BOXY.EXE: ISS Imagent and Oximeter Data Acquisition Program Version 0.80
Ascii Record File

#ACQ INFORMATION
2  Detector Channels 
16  External MUX Channels 
1  Auxiliary Channels 
5000  Waveform (CCF) Frequency (Hz)
1  Waveforms Skipped 
30  Waveforms Averaged 
1  Cycles Averaged 
16  Acquisitions per Waveform 
10.0806  Updata Rate (Hz) 

#FILE INFORMATION
TRUE -- External MUX Channel results are PARSED.
FALSE -- AC DC and Phase are NOT grouped.
TRUE -- Companion Program Settings File CREATED.
FALSE -- AC data not excluded
FALSE -- DC data not excluded
FALSE -- Phase data not excluded
FALSE -- Auxillary Chn. data not excluded
Tab delimiters

#CALIBRATION STATE
TRUE -- Waveform Calibration Values APPLIED.


#AUX CALIBRATION VALUES
Val Type	aux-1	

Term	1.0000e+00	
Factor	0.0000e+00	


#WF CALIBRATION VALUES
A = Detector Channel
Val Type	A-AC1	A-AC2	A-AC3	A-AC4	A-AC5	A-AC6	A-AC7	A-AC8	A-AC9	A-AC10	A-AC11	A-AC12	A-AC13	A-AC14	A-AC15	A-AC16	A-DC1	A-DC2	A-DC3	A-DC4	A-DC5	A-DC6	A-DC7	A-DC8	A-DC9	A-DC10	A-DC11	A-DC12	A-DC13	A-DC14	A-DC15	A-DC16	A-Ph1	A-Ph2	A-Ph3	A-Ph4	A-Ph5	A-Ph6	A-Ph7	A-Ph8	A-Ph9	A-Ph10	A-Ph11	A-Ph12	A-Ph13	A-Ph14	A-Ph15	A-Ph16	

Term	0.00000e+00	0.00000e+00	0.00000e+00	0.00000e+00	0.00000e+00	0.00000e+00	0.00000e+00	0.00000e+00	0.00000e+00	0.00000e+00	0.00000e+00	0.00000e+00	0.00000e+00	0.00000e+00	0.00000e+00	0.00000e+00	0.00000e+00	0.00000e+00	0.00000e+00	0.00000e+00	0.00000e+00	0.00000e+00	0.00000e+00	0.00000e+00	0.00000e+00	0.00000e+00	0.00000e+00	0.00000e+00	0.00000e+00	0.00000e+00	0.00000e+00	0.00000e+00	0.00000e+00	0.00000e+00	0.00000e+00	0.00000e+00	0.00000e+00	0.00000e+00	0.00000e+00	0.00000e+00	0.00000e+00	0.00000e+00	0.00000e+00	0.00000e+00	0.00000e+00	0.00000e+00	0.00000e+00	0.00000e+00	
Factor	1.00000e+00	1.00000e+00	1.00000e+00	1.00000e+00	1.00000e+00	1.00000e+00	1.00000e+00	1.00000e+00	1.00000e+00	1.00000e+00	1.00000e+00	1.00000e+00	1.00000e+00	1.00000e+00	1.00000e+00	1.00000e+00	1.00000e+00	1.00000e+00	1.00000e+00	1.00000e+00	1.00000e+00	1.00000e+00	1.00000e+00	1.00000e+00	1.00000e+00	1.00000e+00	1.00000e+00	1.00000e+00	1.00000e+00	1.00000e+00	1.00000e+00	1.00000e+00	X	X	X	X	X	X	X	X	X	X	X	X	X	X	X	X	

B = Detector Channel
Val Type	B-AC1	B-AC2	B-AC3	B-AC4	B-AC5	B-AC6	B-AC7	B-AC8	B-AC9	B-AC10	B-AC11	B-AC12	B-AC13	B-AC14	B-AC15	B-AC16	B-DC1	B-DC2	B-DC3	B-DC4	B-DC5	B-DC6	B-DC7	B-DC8	B-DC9	B-DC10	B-DC11	B-DC12	B-DC13	B-DC14	B-DC15	B-DC16	B-Ph1	B-Ph2	B-Ph3	B-Ph4	B-Ph5	B-Ph6	B-Ph7	B-Ph8	B-Ph9	B-Ph10	B-Ph11	B-Ph12	B-Ph13	B-Ph14	B-Ph15	B-Ph16	

Term	0.00000e+00	0.00000e+00	0.00000e+00	0.00000e+00	0.00000e+00	0.00000e+00	0.00000e+00	0.00000e+00	0.00000e+00	0.00000e+00	0.00000e+00	0.00000e+00	0.00000e+00	0.00000e+00	0.00000e+00	0.00000e+00	0.00000e+00	0.00000e+00	0.00000e+00	0.00000e+00	0.00000e+00	0.00000e+00	0.00000e+00	0.00000e+00	0.00000e+00	0.00000e+00	0.00000e+00	0.00000e+00	0.00000e+00	0.00000e+00	0.00000e+00	0.00000e+00	-1.06138e+02	-1.29047e+02	-1.21568e+02	-1.83476e+02	-5.52129e+01	-7.56509e+01	-1.59880e+02	-1.62015e+02	-5.74747e+01	-6.97283e+01	-1.75117e+02	-1.71928e+02	-1.83346e+02	-1.76281e+02	-5.73029e+01	-1.49823e+02	
Factor	1.52751e-05	1.27225e-04	4.13959e-05	1.84327e-01	1.04722e-06	1.71902e-06	1.70247e-01	4.74238e-02	9.30981e-07	1.49024e-06	9.31797e-02	3.12405e-02	3.94049e-02	8.22718e-03	1.10834e-06	1.22183e-02	1.99470e-06	2.18733e-06	6.09788e-07	9.24792e-02	2.38180e-08	2.40278e-08	8.06688e-02	2.40565e-02	2.37376e-08	2.40181e-08	4.51395e-02	1.53027e-02	1.98509e-02	4.17740e-03	2.39144e-08	5.96623e-03	X	X	X	X	X	X	X	X	X	X	X	X	X	X	X	X	



#DISTANCE SETTINGS
A = Detector Channel
A-1	A-2	A-3	A-4	A-5	A-6	A-7	A-8	A-9	A-10	A-11	A-12	A-13	A-14	A-15	A-16	

2.5000e+00	3.0000e+00	2.5000e+00	3.0000e+00	2.0000e+00	3.0000e+00	1.5000e+00	3.0000e+00	3.0000e+00	3.0000e+00	3.0000e+00	3.0000e+00	3.0000e+00	3.0000e+00	1.5000e+00	3.0000e+00	

B = Detector Channel
B-1	B-2	B-3	B-4	B-5	B-6	B-7	B-8	B-9	B-10	B-11	B-12	B-13	B-14	B-15	B-16	

1.0000e+01	1.0000e+01	1.0000e+01	1.4400e+00	1.0000e+01	1.0000e+01	1.5100e+00	1.9400e+00	1.0000e+01	1.0000e+01	1.9900e+00	2.4900e+00	2.4100e+00	2.9000e+00	1.0000e+01	2.9800e+00	




#DATA BEGINS
time	group	step	mark	flag	A-AC1	A-AC2	A-AC3	A-AC4	A-AC5	A-AC6	A-AC7	A-AC8	A-AC9	A-AC10	A-AC11	A-AC12	A-AC13	A-AC14	A-AC15	A-AC16	A-DC1	A-DC2	A-DC3	A-DC4	A-DC5	A-DC6	A-DC7	A-DC8	A-DC9	A-DC10	A-DC11	A-DC12	A-DC13	A-DC14	A-DC15	A-DC16	A-Ph1	A-Ph2	A-Ph3	A-Ph4	A-Ph5	A-Ph6	A-Ph7	A-Ph8	A-Ph9	A-Ph10	A-Ph11	A-Ph12	A-Ph13	A-Ph14	A-Ph15	A-Ph16	B-AC1	B-AC2	B-AC3	B-AC4	B-AC5	B-AC6	B-AC7	B-AC8	B-AC9	B-AC10	B-AC11	B-AC12	B-AC13	B-AC14	B-AC15	B-AC16	B-DC1	B-DC2	B-DC3	B-DC4	B-DC5	B-DC6	B-DC7	B-DC8	B-DC9	B-DC10	B-DC11	B-DC12	B-DC13	B-DC14	B-DC15	B-DC16	B-Ph1	B-Ph2	B-Ph3	B-Ph4	B-Ph5	B-Ph6	B-Ph7	B-Ph8	B-Ph9	B-Ph10	B-Ph11	B-Ph12	B-Ph13	B-Ph14	B-Ph15	B-Ph16	aux-1	digaux	

1174.524	1	1	0	512	0.33948	0.079893	0.28964	0.25546	0.067936	0.32747	0.18703	0.067929	0.21354	0.11734	0.17262	0.16977	0.053251	0.37199	0.31522	0.16916	-0.95417	-0.43958	-1.0979	-1.3229	-0.39375	-1.4292	-1.0104	-1.0146	-1.4521	-0.66875	-1.3687	-1.2563	-0.7875	-1.5688	-0.79792	-1.1688	242.691	429.492	119.750	326.362	286.039	277.063	250.074	316.423	321.404	215.763	187.973	411.757	382.227	361.705	410.863	399.572	0.00050718	0.00072924	3.06e-05	422.87	1.3339e-05	5.2564e-06	508.12	209.7	9.1023e-06	6.9177e-06	257.84	116.73	110.19	64.802	1.6147e-05	67.141	0.0043612	0.0047189	0.0013025	614.67	5.131e-05	5.1466e-05	667.4	257.35	5.1953e-05	5.2783e-05	345.71	147.2	149.91	72.95	5.3351e-05	78.086	179.001	177.229	337.992	89.052	203.383	292.099	86.782	94.840	308.169	142.103	90.755	94.759	99.308	102.016	219.865	97.047	-8191	255	
1174.596	1	1	0	0	0.21413	0.1386	0.21108	0.15116	0.23352	0.0481	0.21285	0.24327	0.17637	0.342	0.33752	0.20242	0.4045	0.44152	0.11842	0.03835	-1.0896	-0.66042	-1.1604	-1.4229	-0.61458	-1.3958	-1.0917	-0.96458	-1.6542	-0.79583	-1.0708	-1.3792	-0.53542	-1.6521	-0.98958	-0.81458	284.111	276.581	160.574	419.931	132.370	85.683	379.497	401.014	126.887	244.024	337.633	101.151	110.835	406.623	79.437	210.384	0.00051963	0.0011448	0.00015997	427.76	8.5243e-06	1.2347e-05	506.66	208.99	2.9735e-06	9.537e-06	257.07	117.25	111.62	64.932	5.6441e-06	67.799	0.0044707	0.004833	0.0013347	621.76	5.2563e-05	5.2848e-05	671.35	258.52	5.2724e-05	5.3782e-05	347.9	147.87	150.94	73.256	5.3129e-05	78.544	184.647	84.865	182.074	88.780	267.806	228.031	86.990	94.486	110.309	357.906	90.465	94.636	99.746	102.253	306.950	97.153	-8191	255	
1174.716	1	1	0	0	0.24303	0.080037	0.26639	0.097736	0.15648	0.077424	0.32762	0.070841	0.37334	0.1023	0.22712	0.22559	0.21104	0.20821	0.13896	0.31123	-1.1708	-0.78958	-0.91875	-1.3521	-0.5625	-1.3042	-1.1521	-0.89167	-1.4062	-0.95	-1.1208	-1.7229	-0.80417	-1.4021	-0.96042	-0.72292	313.625	396.087	101.735	372.929	210.713	364.698	406.328	87.603	331.239	109.503	216.180	349.864	83.623	82.959	95.233	352.576	0.00063312	0.00034781	0.00036824	427.21	1.4223e-05	1.8906e-05	507.14	209.88	2.4546e-06	1.7932e-05	256.3	116.8	109.94	64.993	4.3591e-06	67.271	0.0044174	0.004833	0.0013314	618.9	5.2624e-05	5.2916e-05	672.2	258.78	5.2806e-05	5.4261e-05	348.51	147.57	150.9	73.328	5.3711e-05	78.361	212.979	104.672	135.505	88.486	163.312	143.855	86.647	94.619	229.648	320.072	90.860	94.721	98.966	102.176	159.360	97.707	-8191	255	
1174.813	1	1	0	0	0.17678	0.069674	0.11172	0.13718	0.26699	0.32496	0.30527	0.027723	0.16053	0.071027	0.26854	0.066618	0.30185	0.16325	0.22842	0.26501	-1.2208	-0.89583	-0.91667	-1.575	-0.61667	-1.2208	-1.3062	-0.69792	-1.4146	-0.87708	-0.85	-1.675	-0.53125	-1.0833	-1.2625	-0.7	362.984	144.614	426.606	374.097	99.190	404.519	369.929	359.941	431.696	368.429	172.226	86.222	377.763	155.910	339.578	396.644	0.00046296	0.0022883	0.00029728	428.2	1.2071e-05	1.678e-05	506.15	210.5	7.0189e-06	1.4127e-05	257.19	115.81	109.95	64.904	3.7031e-06	66.914	0.0043963	0.0048481	0.001332	617.72	5.2091e-05	5.2456e-05	668.14	258.28	5.1881e-05	5.3805e-05	346.19	146.12	150.16	72.991	5.2911e-05	77.766	203.059	164.902	398.904	89.524	279.267	157.096	86.759	95.071	216.454	102.984	90.754	94.696	99.256	102.286	281.636	97.059	-8191	255	
1174.909	1	1	0	0	0.24298	0.020253	0.34115	0.35104	0.28374	0.23951	0.34518	0.044612	0.22814	0.15727	0.22486	0.099624	0.18596	0.34366	0.14329	0.13621	-0.98125	-0.93333	-0.75	-1.6521	-0.77708	-1.025	-1.5438	-0.57083	-1.45	-1	-0.64167	-1.6583	-0.69792	-1.0833	-1.2792	-0.64792	270.091	391.155	224.817	305.699	366.220	100.219	380.086	137.548	417.134	245.130	239.502	239.513	146.093	407.503	413.867	293.043	0.00046452	0.0011798	0.00025831	424.87	6.3505e-06	9.9549e-06	505.81	210.86	1.1764e-05	1.3105e-05	258.07	116.48	110.85	65.075	1.2191e-05	67.359	0.0043598	0.0048058	0.0013139	611.39	5.1525e-05	5.1108e-05	661.65	256.34	5.0019e-05	5.1394e-05	342.53	145.04	148.9	72.838	5.0931e-05	77.773	212.991	123.342	241.332	88.917	271.229	153.980	87.334	94.737	90.490	288.775	90.433	94.791	99.248	102.529	159.333	97.266	-8191	255	
1175.005	1	1	0	0	0.29454	0.085486	0.054183	0.1942	0.063915	0.26346	0.24424	0.33013	0.19553	0.23628	0.41568	0.20329	0.29032	0.26501	0.14301	0.147	-1.0021	-1.0833	-0.66875	-1.4771	-0.87083	-1.0021	-1.5438	-0.62708	-1.4458	-1.0833	-0.80208	-1.6875	-0.85	-1.1688	-1.3813	-0.85	387.010	294.176	298.909	134.258	407.542	178.859	345.055	361.661	274.812	369.306	363.274	405.488	138.445	371.929	153.885	127.561	0.0005642	0.00078985	0.00056158	429.17	1.1843e-05	1.1055e-05	508.07	209.84	1.1979e-05	1.5577e-06	257.29	118.14	111.02	65.387	4.4141e-06	67.646	0.004257	0.0047015	0.0012878	611.17	5.1383e-05	5.1144e-05	662.5	256.87	5.0404e-05	5.2451e-05	345.01	146.88	150.54	73.315	5.2083e-05	78.508	177.289	313.037	129.621	89.063	382.488	241.549	87.017	94.847	280.172	191.421	90.625	94.905	99.285	102.565	285.696	97.486	-8191	255	
1175.124	1	1	0	0	0.20511	0.057555	0.21886	0.13169	0.045811	0.042484	0.17076	0.15551	0.10861	0.22397	0.037917	0.023757	0.25043	0.35128	0.31087	0.28114	-0.90417	-1.0854	-0.53125	-1.5104	-0.81667	-0.90833	-1.4813	-0.86042	-1.3375	-1.2271	-0.51458	-1.5021	-0.68958	-1.0479	-1.2854	-0.74792	165.892	136.934	275.532	88.366	292.855	427.247	282.546	291.485	203.205	171.870	77.455	423.524	166.355	347.543	407.319	100.093	0.00057694	0.0011417	0.00012176	425.7	1.387e-05	1.4851e-05	508.07	210.12	3.6116e-06	5.7298e-06	257.1	117.39	109.94	65.017	7.1402e-06	67.634	0.0043834	0.0048541	0.001331	614.43	5.318e-05	5.2598e-05	668.74	259.11	5.2282e-05	5.4458e-05	348.65	148.01	151.81	73.578	5.3851e-05	79.15	199.550	124.872	181.892	89.480	209.053	264.074	87.184	94.641	259.220	369.936	90.977	95.184	98.851	102.304	209.831	97.416	-8191	255	
1175.220	1	1	0	0	0.18322	0.13241	0.28951	0.37017	0.18113	0.094168	0.10065	0.10726	0.25342	0.14763	0.29403	0.17308	0.10726	0.267	0.18126	0.12981	-0.65208	-1.2979	-0.55625	-1.4042	-1.0208	-0.675	-1.4708	-0.79167	-0.92083	-1.0458	-0.70208	-1.4688	-1.15	-0.9125	-1.4562	-1.0167	115.667	293.866	101.330	407.516	198.693	335.889	364.145	376.912	427.298	405.223	387.669	362.391	342.040	317.968	388.816	373.161	0.00045381	0.00089741	0.00021385	423.54	9.9932e-06	1.9669e-05	500.03	209.88	5.7339e-06	1.907e-05	254.51	116.94	111	64.735	1.9791e-06	66.932	0.0045459	0.0050141	0.0013883	622.69	5.561e-05	5.5298e-05	671.92	261.39	5.4488e-05	5.5746e-05	349.78	147.59	152.34	73.196	5.358e-05	78.402	187.291	385.384	420.419	89.363	186.134	401.502	87.584	95.094	333.571	133.782	91.046	95.376	99.391	102.686	363.872	97.649	-8191	255	
1175.293	1	1	0	0	0.24365	0.13528	0.13338	0.072858	0.17411	0.10417	0.13461	0.2785	0.16914	0.26467	0.19065	0.22545	0.074122	0.092962	0.33364	0.20561	-0.26875	-1.2958	-0.51458	-1.3333	-1.2563	-0.8	-1.4688	-0.92708	-0.84167	-1.2854	-0.78542	-1.2938	-1.3729	-0.63125	-1.3521	-0.94583	148.233	363.584	352.617	177.725	185.301	355.555	305.985	416.864	278.603	141.891	256.824	389.554	107.080	386.713	214.683	297.215	0.00066506	0.00053539	0.00019531	426.13	7.7906e-06	1.2853e-05	501.63	208.96	9.7433e-06	2.4799e-05	257.41	116.16	110.12	64.662	7.0463e-06	66.488	0.0045277	0.0049142	0.0013737	618.14	5.4152e-05	5.3439e-05	665.26	258.38	5.2249e-05	5.2915e-05	345.17	145.79	149.84	72.806	5.1728e-05	77.676	194.165	291.629	209.382	89.434	251.876	237.384	87.058	94.767	314.677	195.223	91.199	95.058	99.150	102.633	208.269	97.160	-8191	255	
1175.389	1	1	0	0	0.15472	0.22641	0.1197	0.12738	0.20757	0.13752	0.091185	0.10142	0.16746	0.19705	0.20183	0.33615	0.33679	0.16962	0.082284	0.11806	-0.32917	-1.4396	-0.55625	-0.97708	-1.3958	-0.59583	-1.1938	-1.0229	-0.5625	-1.5458	-0.53542	-1.2083	-1.3708	-0.69583	-1.4104	-1.0146	374.216	375.980	172.394	313.739	171.674	245.161	322.874	435.331	344.998	196.755	359.199	416.858	156.416	107.180	313.559	321.032	0.00052535	0.0010244	0.0003193	428.3	6.8641e-06	1.5516e-05	504.8	209.46	1.6197e-05	1.2581e-05	256.47	116.89	111.34	64.545	2.3004e-06	67.057	0.0043657	0.0047698	0.001342	613.95	5.2662e-05	5.2661e-05	663.11	258.05	5.1626e-05	5.2242e-05	344.96	146.47	150.03	72.9	5.2312e-05	78.181	191.012	256.368	367.035	89.323	258.364	345.836	87.398	94.970	194.309	352.572	90.490	95.146	99.505	102.748	167.647	97.674	-8191	255	
1175.508	1	1	0	0	0.12381	0.1638	0.16049	0.19967	0.19844	0.25799	0.095819	0.22482	0.23883	0.16256	0.039484	0.06774	0.30114	0.2791	0.060338	0.10687	-0.49583	-1.325	-0.84375	-0.92708	-1.3083	-0.49792	-1.2458	-1.1625	-0.53542	-1.3583	-0.70417	-1.0333	-1.6021	-0.77292	-1.0375	-1.4312	400.494	251.942	322.695	375.509	340.664	408.144	233.482	390.717	232.009	236.419	150.290	192.721	124.866	408.417	332.422	127.383	0.00039153	0.00031689	0.0001389	427.53	1.5991e-05	1.1505e-05	501.4	209.01	3.3458e-06	1.4555e-05	255.66	117.71	111.81	65.384	1.3436e-05	67.343	0.0044362	0.0048387	0.0013745	617.71	5.3349e-05	5.3696e-05	666.93	259.29	5.2827e-05	5.3301e-05	348.62	147.38	151.18	73.366	5.2611e-05	78.809	193.470	278.354	229.710	89.763	141.309	202.489	87.232	94.991	249.248	128.566	90.880	95.124	99.580	102.779	238.713	97.353	-8191	255	
1175.604	1	1	0	0	0.084592	0.19836	0.069464	0.13422	0.14353	0.067219	0.077675	0.28205	0.25971	0.023414	0.16382	0.26489	0.11959	0.17421	0.10358	0.2694	-0.33125	-1.6021	-0.78958	-1.1104	-1.1479	-0.48125	-1.2333	-1.3458	-0.70833	-1.25	-0.87708	-0.775	-1.5562	-0.78125	-1.0708	-1.4167	211.514	271.627	171.278	411.947	125.733	146.438	435.551	297.090	227.654	100.480	118.446	411.049	424.377	332.055	327.016	80.222	0.00077843	0.00086894	0.00034406	423.17	6.5181e-06	1.8969e-05	505.35	210.21	9.0219e-06	2.2727e-05	257.92	118.24	112.18	65.175	1.7204e-05	67.707	0.0044847	0.0048591	0.0013877	619.57	5.3621e-05	5.4321e-05	669.47	260.05	5.3345e-05	5.368e-05	350.31	148.04	151.86	73.596	5.382e-05	78.816	191.039	302.659	177.697	89.742	253.828	329.581	87.621	94.828	243.155	423.309	90.981	95.421	99.507	102.787	210.849	97.648	-8191	255	
1175.701	1	1	0	0	0.034832	0.14202	0.13726	0.19356	0.21342	0.1814	0.15297	0.30988	0.14713	0.1508	0.15474	0.16806	0.31396	0.23323	0.135	0.42128	-0.13542	-1.3667	-0.925	-0.79167	-1.4042	-0.62292	-1.3125	-1.3438	-0.54583	-1.3521	-1.0646	-0.70417	-1.3687	-0.9875	-1.0896	-1.5125	140.401	406.093	89.156	198.375	376.015	295.424	327.875	417.872	426.968	353.657	182.357	279.826	111.600	90.433	191.709	399.896	0.00052149	0.00044833	0.00031575	421.16	9.1261e-06	1.959e-06	503.99	209.13	5.043e-06	1.5666e-05	256.44	116.56	109.62	64.716	1.0654e-05	66.792	0.0045407	0.0049363	0.001404	618.24	5.3487e-05	5.4609e-05	668.16	259.28	5.3155e-05	5.3516e-05	348.67	146.64	150.42	73.198	5.3152e-05	78.015	209.785	183.881	210.071	89.671	171.771	340.737	87.489	95.083	304.108	297.614	91.010	95.459	99.813	102.759	324.506	97.694	-8191	255	
1175.821	1	1	0	0	0.23559	0.06085	0.32763	0.21982	0.17782	0.11509	0.19109	0.2607	0.13272	0.2011	0.16084	0.2588	0.23467	0.1493	0.50751	0.28174	-0.28542	-1.4271	-1.0479	-0.81667	-1.4062	-0.94167	-0.92083	-1.6021	-0.68542	-1.3167	-1.5167	-0.55	-1.3771	-1.3104	-0.96875	-1.5625	344.257	274.296	342.724	89.313	421.502	432.090	78.567	418.760	228.157	178.691	167.966	101.528	422.022	330.915	230.187	355.476	0.00066839	0.00047024	0.00051216	422.02	8.3166e-06	2.8026e-06	500.62	209.32	1.1432e-05	3.9895e-06	254.88	115.66	109.65	64.687	8.4558e-06	66.082	0.0045038	0.0048642	0.0013789	615.85	5.3072e-05	5.4516e-05	664.45	258.95	5.3894e-05	5.4027e-05	347.9	146.81	150.64	73.293	5.4446e-05	78.033	183.848	291.824	395.722	89.978	156.733	390.561	87.960	95.265	226.024	434.553	91.227	95.536	99.952	102.821	225.924	97.672	-8191	255	
1175.893	1	1	0	0	0.16363	0.3419	0.18442	0.10687	0.27946	0.17288	0.20349	0.19557	0.14256	0.045853	0.23989	0.27166	0.065669	0.26019	0.16359	0.26184	-0.31875	-1.0812	-1.2521	-0.57708	-1.3833	-0.88958	-0.76042	-1.6104	-0.45417	-1.0979	-1.4771	-0.69375	-1.5292	-1.275	-0.65	-1.6333	419.452	306.101	400.842	333.376	371.200	217.480	294.560	157.479	211.438	277.149	316.971	371.377	225.276	400.313	309.232	316.748	0.00071638	0.0010267	0.00016845	424.18	6.4131e-06	1.9366e-05	499.58	207.7	1.6246e-05	3.0367e-06	253.24	115.45	109.25	64.53	1.9203e-05	66.767	0.004688	0.0050434	0.001442	627.26	5.6253e-05	5.8237e-05	673.71	261.28	5.771e-05	5.7797e-05	353.81	148.66	153.27	73.696	5.722e-05	78.912	188.025	136.952	274.515	89.448	199.572	135.116	88.342	95.294	310.189	405.672	90.918	95.280	99.699	102.637	220.195	97.989	-8191	255	
1175.989	1	1	0	0	0.17672	0.16606	0.056979	0.32538	0.037193	0.23496	0.32551	0.11429	0.17721	0.21366	0.19848	0.31771	0.055504	0.18108	0.07988	0.17339	-0.35208	-1.0229	-1.4542	-0.82708	-1.2271	-1.1292	-0.85625	-1.4438	-0.89167	-0.98333	-1.6	-0.80625	-1.4438	-1.1542	-0.5	-1.4604	276.301	428.184	253.842	332.472	283.926	255.998	431.190	360.577	90.770	327.682	363.663	343.986	229.650	420.455	287.348	412.449	0.00044091	0.0011007	0.00025915	419.44	1.5627e-05	3.9582e-05	496.87	207.96	6.1796e-06	3.0118e-06	253.12	116.35	111.2	64.882	8.0557e-06	67.331	0.0048965	0.005239	0.0014762	633.42	5.7413e-05	5.8846e-05	677.07	261.89	5.7819e-05	5.7641e-05	353.66	149.78	154.01	74.145	5.7681e-05	79.673	198.962	195.389	105.586	89.702	238.549	242.047	88.121	95.700	126.904	352.284	91.658	95.615	99.951	102.917	265.693	97.802	-8191	255	
1176.110	1	1	0	0	0.19837	0.26789	0.35833	0.099723	0.11645	0.1915	0.17123	0.25204	0.08946	0.38442	0.15771	0.41083	0.33012	0.23702	0.15004	0.10395	-0.51042	-0.93958	-1.5375	-0.70417	-1.375	-0.975	-0.91042	-1.425	-0.87292	-0.97083	-1.5063	-0.75208	-1.0688	-1.4813	-0.56458	-1.7333	190.395	187.289	130.910	223.874	284.182	91.948	117.311	393.999	365.485	92.769	134.104	340.801	114.375	369.661	200.862	122.966	0.00049879	0.00074223	0.00036438	420.68	1.1295e-05	9.2604e-06	500.51	208.53	1.1214e-05	1.2371e-05	254.63	116.15	109.97	64.548	1.2384e-05	67.05	0.0049939	0.0053371	0.0015031	638.38	5.8365e-05	5.9496e-05	680.27	261.98	5.83e-05	5.7882e-05	354.67	149.99	153.81	73.932	5.7854e-05	79.228	175.863	212.382	112.710	89.787	260.781	140.259	87.411	95.144	331.758	150.281	91.370	95.412	99.944	102.607	253.474	97.919	-8191	255	
1176.204	1	1	0	0	0.10313	0.24473	0.24018	0.072841	0.17096	0.1447	0.1958	0.20772	0.2236	0.24505	0.16749	0.1413	0.057453	0.12045	0.18073	0.21868	-0.46667	-0.71458	-1.3813	-0.5875	-0.98333	-1.2667	-0.63125	-1.3521	-1.1	-0.63958	-1.4229	-0.51667	-1.2771	-1.4875	-0.71458	-1.3417	337.549	313.700	301.532	224.895	208.082	91.850	173.717	132.637	263.467	400.448	138.889	150.789	147.176	375.448	380.352	286.064	0.00057424	0.0022919	0.00050957	421.57	7.013e-06	2.0604e-06	496.62	207.58	1.1236e-05	1.4772e-06	252.67	115.62	110.95	64.598	1.6542e-05	66.285	0.0049688	0.0053024	0.0014829	634.05	5.7071e-05	5.7582e-05	674.4	260.57	5.6186e-05	5.5749e-05	351.2	148.27	152.95	73.597	5.6843e-05	78.598	191.841	136.221	112.033	89.693	230.890	387.135	87.904	95.532	184.113	91.030	91.286	95.522	100.041	102.702	248.848	97.835	-8191	255	
1176.300	1	1	0	0	0.26798	0.22044	0.16259	0.01737	0.15266	0.14949	0.30552	0.12941	0.19999	0.13965	0.24497	0.13722	0.18622	0.29682	0.069082	0.035123	-0.62917	-0.67917	-1.5063	-0.83542	-0.96667	-1.3875	-0.60833	-1.2354	-1.1521	-0.42708	-1.325	-0.9125	-0.80833	-1.6083	-0.51875	-1.5021	386.728	362.420	351.656	330.732	116.723	382.849	417.789	301.235	88.210	411.079	267.426	377.404	181.829	388.556	405.690	133.205	0.00063453	0.00075662	0.00030032	423.29	3.69e-06	4.342e-06	496.35	209.52	4.2578e-06	7.4171e-06	252.65	115.34	109.78	64.483	4.0325e-06	66.473	0.0049263	0.0052845	0.001479	634.85	5.7576e-05	5.8647e-05	676.37	262.04	5.8087e-05	5.8482e-05	352.97	149.4	154.29	73.794	5.8949e-05	78.956	194.081	245.733	184.002	90.560	81.981	273.306	87.741	95.411	107.837	166.586	91.503	95.456	100.104	102.977	329.441	98.158	-8191	255	
1176.421	1	1	0	0	0.18672	0.19934	0.38386	0.20892	0.25521	0.1942	0.19591	0.20408	0.11713	0.2156	0.092707	0.27072	0.036084	0.22527	0.0046138	0.16551	-0.85417	-0.62708	-1.2875	-0.88542	-0.8	-1.4125	-0.84167	-1.3042	-1.3542	-0.56875	-1.4854	-1.0292	-0.75	-1.7313	-0.4875	-1.2167	340.057	206.395	175.569	207.343	203.908	352.845	436.793	400.020	412.482	141.649	395.006	383.508	130.804	411.049	296.865	232.697	0.00048665	0.00039546	0.00038311	422.85	1.4463e-05	2.8235e-05	494.71	208.87	5.4799e-06	4.692e-06	252.71	114.88	109.68	64.58	1.0837e-05	67.043	0.0049684	0.0053105	0.001482	636.44	5.7402e-05	5.846e-05	679.94	262.3	5.8154e-05	5.8438e-05	354.75	150.12	154.17	73.932	5.8563e-05	79.305	208.686	269.992	156.647	89.761	298.655	221.926	87.732	95.733	168.483	196.789	91.252	95.083	99.208	102.200	192.982	97.271	-8191	255	
1176.493	1	1	0	0	0.059941	0.095039	0.092986	0.27181	0.14793	0.50837	0.16214	0.15554	0.2542	0.2146	0.12563	0.086733	0.20186	0.48831	0.22396	0.17014	-0.9875	-0.48125	-1.3604	-1.0938	-0.68542	-1.8146	-0.875	-1.0917	-1.2542	-0.40625	-1.3625	-1.0187	-0.84792	-1.5583	-0.725	-1.0208	172.154	143.046	98.504	163.498	167.624	131.876	99.528	350.013	263.415	361.905	286.816	255.871	202.151	395.125	376.750	89.515	0.00059379	0.0012372	0.00023382	419.15	2.0193e-05	8.9952e-06	497.36	207.43	8.4911e-06	1.3174e-05	254.77	115.05	109.64	64.945	1.7597e-05	66.925	0.0049199	0.0053412	0.001489	636.18	5.7879e-05	5.8666e-05	683.04	262.24	5.8213e-05	5.89e-05	355.86	150.5	154.93	74.166	5.9879e-05	79.715	191.668	174.477	226.838	89.029	223.730	187.702	86.453	94.505	414.756	212.029	90.428	94.361	98.766	102.175	210.294	97.592	-8191	255	
1176.589	1	1	0	0	0.48608	0.17696	0.031933	0.14704	0.017518	0.13715	0.091162	0.13158	0.134	0.15635	0.14449	0.21395	0.25482	0.37306	0.21572	0.19106	-1.0167	-0.46667	-1.4562	-1.2062	-0.55417	-1.425	-0.73125	-0.85	-1.3083	-0.52708	-1.2437	-1.4479	-0.6	-1.5438	-0.87292	-0.79583	217.494	302.094	116.088	250.801	308.581	139.631	301.176	77.273	382.393	177.275	133.182	344.133	383.755	399.080	120.030	231.410	0.00053627	0.0012614	0.00043151	418.02	2.1354e-05	1.0147e-05	498.28	207.57	5.2485e-06	1.5564e-05	253.93	115.13	109.55	64.792	4.9e-06	66.054	0.0050037	0.0054524	0.0014992	635.97	5.8265e-05	5.8572e-05	680.97	261.32	5.7564e-05	5.8568e-05	353.71	149.23	153.63	73.824	5.849e-05	78.809	184.447	209.429	125.286	89.111	193.522	175.287	87.061	94.532	294.944	277.770	90.363	94.317	99.124	102.084	350.624	97.045	-8191	255	
1176.685	1	1	0	0	0.036323	0.13815	0.064492	0.14602	0.1988	0.12248	0.114	0.010929	0.32499	0.1577	0.171	0.10589	0.17081	0.36893	0.18384	0.29427	-1.1271	-0.61667	-1.075	-1.1771	-0.55	-1.5729	-1.0042	-0.93333	-1.4583	-0.49792	-1.45	-1.4521	-0.50208	-1.7083	-0.7125	-0.71042	150.287	301.618	223.473	179.623	186.028	340.699	90.052	250.945	217.041	405.547	298.440	329.746	254.872	375.043	83.751	396.645	0.00047397	0.0012655	0.00019215	422.44	9.6469e-06	7.0155e-06	492.37	205.77	1.3018e-05	1.6845e-05	252.16	115.21	109.54	64.132	1.2175e-05	66.235	0.0048647	0.0053057	0.0014531	630.75	5.6633e-05	5.6796e-05	672.36	259.79	5.6215e-05	5.7368e-05	349.68	147.68	152.89	73.258	5.6931e-05	78.198	196.348	242.896	204.170	89.059	249.381	131.120	87.010	94.519	266.194	174.487	90.462	94.231	98.761	101.670	104.168	96.654	-8191	255	
1176.805	1	1	0	0	0.12683	0.01942	0.088212	0.21737	0.1876	0.30797	0.053961	0.090201	0.10272	0.10864	0.03374	0.15691	0.28046	0.205	0.16366	0.15019	-1.1396	-0.625	-0.80417	-1.5312	-0.35625	-1.0562	-1.1104	-0.6875	-1.2375	-0.89167	-0.87917	-1.5792	-0.66875	-1.2958	-1.1646	-0.69375	364.918	423.639	336.480	145.967	328.682	291.372	76.611	255.881	315.351	409.144	80.370	360.925	317.122	361.600	297.060	201.124	0.0004624	0.0001946	0.00067935	417.29	1.839e-05	2.1938e-05	487.57	206.16	5.6801e-06	1.1061e-05	252.6	113.96	107.68	63.981	4.5103e-06	65.923	0.0047097	0.0051774	0.0014189	623.12	5.6128e-05	5.6318e-05	667.75	259.07	5.5481e-05	5.6761e-05	347.56	147.12	151.62	73.206	5.5817e-05	78.177	194.484	127.594	269.353	88.721	235.707	182.857	86.721	94.215	430.875	425.641	90.345	94.082	98.315	101.839	108.945	96.982	-8191	255	
1176.902	1	1	0	0	0.16549	0.087486	0.029	0.11513	0.1828	0.20291	0.24372	0.13501	0.087368	0.22903	0.21867	0.28835	0.18763	0.31053	0.13161	0.3063	-1.2042	-0.83333	-0.75	-1.5729	-0.33542	-1.15	-1.3771	-0.46042	-1.4708	-1.0604	-0.71042	-1.4917	-0.57292	-1.1833	-1.425	-0.66042	320.853	324.825	292.810	365.230	113.938	339.018	329.360	195.896	319.218	200.286	313.522	398.937	181.578	371.925	220.266	425.126	0.00073197	0.0002252	0.00059331	419.56	1.1878e-05	3.5034e-05	494.44	206.96	4.3438e-06	1.9524e-05	253.14	115.67	109.86	64.175	7.9159e-06	66.191	0.004666	0.0051464	0.0014005	622.24	5.5698e-05	5.5546e-05	669.35	259.31	5.4911e-05	5.6231e-05	348.37	147.91	152.55	73.463	5.4746e-05	78.722	195.627	358.475	171.029	88.769	308.404	186.596	86.707	94.388	346.057	88.900	90.165	94.565	98.539	102.030	251.364	96.954	-8191	255	
1176.998	1	1	0	0	0.18282	0.11828	0.1073	0.13699	0.2559	0.094266	0.19609	0.21708	0.17732	0.22574	0.030249	0.29973	0.071824	0.13014	0.27239	0.022541	-1.1021	-1.1	-0.63542	-1.2875	-0.71042	-0.88125	-1.3604	-0.58333	-1.2604	-0.92292	-0.69583	-1.5458	-0.55625	-0.975	-1.4583	-0.4875	158.742	127.629	298.890	313.258	187.391	393.393	302.625	414.806	319.304	294.133	274.681	419.702	246.332	408.053	320.170	291.897	0.0004128	0.0011002	0.00045167	413.33	1.0445e-05	2.3744e-05	491.98	207.78	1.9943e-05	1.4954e-05	257.82	116.51	110.89	65.202	7.7e-06	67.499	0.0045779	0.0050313	0.0013729	615.89	5.428e-05	5.3779e-05	667.34	259.48	5.365e-05	5.4889e-05	349.14	148.39	152.28	73.691	5.3958e-05	79.152	158.270	274.278	203.806	88.568	130.697	251.140	86.587	94.480	247.811	136.498	90.405	94.639	99.228	102.149	267.385	97.161	-8191	255	
1177.094	1	1	0	0	0.077714	0.13778	0.24149	0.12538	0.16182	0.26896	0.37413	0.21901	0.19732	0.17647	0.032252	0.31424	0.1168	0.27176	0.13159	0.24373	-0.8625	-1.1042	-0.46458	-1.4208	-0.69167	-0.88542	-1.4	-0.75208	-1.0604	-1.0146	-0.72292	-1.5812	-0.675	-1.1396	-1.3396	-0.66667	137.060	224.671	245.278	300.608	117.648	290.640	429.406	400.933	292.114	92.100	139.249	354.717	297.851	382.581	249.224	306.336	0.00054181	0.0010978	0.00019425	419.05	1.2668e-05	8.8562e-07	500.28	207.22	8.3445e-06	5.2708e-06	257.79	116.82	110.13	64.838	5.6379e-06	66.917	0.004532	0.0049787	0.001375	617.72	5.4077e-05	5.3525e-05	666.66	258.5	5.254e-05	5.4149e-05	346.71	147.01	151.35	73.278	5.3689e-05	78.501	185.734	79.167	435.705	89.558	184.355	245.168	86.361	94.626	197.282	173.159	90.530	94.754	99.002	102.045	184.583	96.793	-8191	255	
1177.190	1	1	0	0	0.10912	0.14389	0.11847	0.087648	0.1923	0.13049	0.1239	0.045882	0.17195	0.1693	0.028318	0.087625	0.21855	0.3172	0.014017	0.29206	-0.87917	-1.0354	-0.65	-1.2167	-0.6625	-0.84167	-1.4312	-0.93958	-1.0792	-1.2792	-0.72917	-1.2938	-0.91042	-0.81458	-1.4208	-0.81458	406.046	200.356	326.581	85.331	328.367	297.683	355.932	348.669	129.490	100.842	185.021	281.828	147.210	103.532	390.961	383.740	0.0007009	0.0006002	0.00023613	417.85	8.8797e-06	3.0333e-06	498.34	208.24	7.5037e-06	9.3853e-06	255.21	115.87	109.29	64.508	8.3589e-06	66.339	0.0044874	0.0049409	0.0013722	616.04	5.4117e-05	5.3673e-05	662.69	258.64	5.265e-05	5.4049e-05	345.86	146.4	150.8	73.228	5.3637e-05	78.004	179.595	89.968	181.375	89.301	205.198	388.723	87.044	94.448	275.139	345.983	90.517	94.801	98.890	102.132	107.359	97.035	-8191	255	
1177.286	1	1	0	0	0.15401	0.089944	0.17941	0.22504	0.2139	0.068866	0.052513	0.34875	0.13724	0.14377	0.1552	0.40504	0.28948	0.18934	0.12146	0.040965	-0.42708	-1.3292	-0.3875	-1.4417	-0.71875	-0.57292	-1.6771	-0.75625	-0.86042	-1.3979	-0.75625	-1.3917	-1.1104	-0.72917	-1.2563	-0.94167	259.182	129.162	266.026	305.878	336.528	244.299	240.073	396.057	215.507	191.057	364.076	356.559	132.460	433.002	284.697	187.344	0.00059014	0.0014369	0.00046051	417.19	1.2997e-05	1.1795e-05	493.81	207.01	8.5549e-06	1.4303e-05	251.94	115.79	109.26	64.353	1.5607e-05	66.923	0.004486	0.0049544	0.001386	616.38	5.411e-05	5.4124e-05	663.1	258.5	5.3212e-05	5.4386e-05	347.46	147.15	151.63	73.354	5.3363e-05	78.583	196.948	326.794	257.617	89.260	233.611	111.215	86.838	94.356	212.066	149.112	90.469	94.528	98.892	101.930	256.053	97.030	-8191	255	
1177.382	1	1	0	0	0.20578	0.2868	0.075709	0.21108	0.026888	0.14515	0.23343	0.068459	0.2346	0.14193	0.18211	0.11383	0.2827	0.24588	0.13262	0.15708	-0.53333	-1.3917	-0.42917	-1.2479	-1.0812	-0.40417	-1.5187	-0.85625	-0.83333	-1.5187	-0.75833	-1.3625	-1.3208	-0.77917	-1.225	-1.0083	257.254	213.795	168.539	159.080	347.062	296.741	324.691	87.046	269.993	390.707	421.835	367.060	310.576	424.273	369.499	394.366	0.00038685	0.0012894	0.00021186	413.67	1.2866e-05	2.4241e-05	495.72	208.09	9.5829e-06	8.7263e-06	249.38	114.84	109.43	63.516	8.3226e-06	65.774	0.0044359	0.0048667	0.0013612	610.01	5.272e-05	5.2869e-05	659.76	257.81	5.1354e-05	5.2225e-05	344.42	146.25	149.92	72.966	5.1953e-05	78.334	188.860	302.428	113.826	88.946	423.106	164.411	87.041	94.346	269.941	166.970	89.716	94.080	99.045	101.682	250.047	96.901	-8191	255	
1177.501	1	1	0	0	0.15131	0.15904	0.40721	0.061255	0.20016	0.36014	0.065832	0.28823	0.26219	0.30783	0.27115	0.19818	0.18315	0.15303	0.040779	0.30973	-0.22708	-1.4667	-0.57292	-1.1083	-1.1396	-0.70833	-1.3604	-0.91875	-0.68333	-1.2812	-0.74792	-0.97083	-1.4354	-0.59375	-1.3417	-1.0562	120.421	296.446	422.841	274.896	386.795	80.895	77.313	368.195	128.304	206.574	81.256	290.625	392.356	364.629	362.935	353.404	0.00054639	0.0018036	0.00039759	414.02	5.2246e-06	1.094e-05	486.76	206.19	9.2282e-06	1.1747e-05	252.96	115.15	109.03	63.963	1.4872e-05	66.36	0.0043675	0.0047554	0.0013426	605.35	5.1427e-05	5.1607e-05	652.53	255.69	4.9784e-05	5.0914e-05	342.82	144.96	148.85	72.887	5.0383e-05	78.012	186.919	147.818	106.883	88.684	204.813	241.351	86.908	94.640	311.637	182.030	90.147	94.772	98.727	101.982	191.697	96.718	-8191	255	
1177.597	1	1	0	0	0.17129	0.16088	0.27327	0.1283	0.095383	0.065827	0.052453	0.042195	0.212	0.42545	0.18903	0.14299	0.087768	0.19032	0.28879	0.30503	-0.19792	-1.1771	-0.77083	-0.94792	-1.4979	-0.53333	-1.3229	-1.2229	-0.73125	-1.3937	-1.0792	-0.9375	-1.7083	-0.78542	-1.2042	-1.3125	140.711	262.503	385.342	389.231	124.850	134.583	352.307	115.099	387.904	110.297	270.457	399.553	83.779	374.345	202.152	309.136	0.00054755	0.00073794	0.00017716	415.92	1.4634e-05	7.5026e-06	493.12	205.46	1.2848e-05	1.0006e-05	251.51	115.12	108.99	64.442	2.539e-06	66.25	0.0042549	0.0046126	0.0013036	600.2	5.0016e-05	5.0542e-05	649.55	254.99	4.922e-05	5.0012e-05	340.25	144.32	148.29	72.838	4.9867e-05	77.448	182.631	182.882	295.494	88.962	261.340	332.046	86.998	94.396	271.707	341.753	90.242	94.507	98.806	101.825	428.269	96.948	-8191	255	
1177.694	1	1	0	0	0.029362	0.33947	0.27083	0.24863	0.13402	0.31263	0.14133	0.1379	0.071441	0.083609	0.33272	0.089031	0.040587	0.15542	0.16621	0.21701	-0.2875	-1.4021	-0.83958	-0.80833	-1.4333	-0.65625	-1.1646	-1.1979	-0.47083	-1.3521	-0.93333	-0.86042	-1.7396	-0.82708	-1.1437	-1.6167	235.356	410.614	127.948	354.812	426.584	274.331	336.887	423.037	334.016	233.366	149.295	306.418	383.746	315.754	188.583	104.424	0.00053907	0.00068413	0.00021638	419.3	9.4972e-06	1.5193e-05	494.56	206.14	1.4308e-05	1.9984e-05	251.5	114.92	109.07	64.608	1.3567e-05	66.274	0.0042611	0.0045889	0.0012961	601.02	4.9793e-05	5.0979e-05	649.22	254.27	4.9518e-05	4.9757e-05	338.67	143.78	147.99	72.79	4.9135e-05	77.022	181.938	219.424	255.715	89.155	284.499	145.644	86.843	94.551	224.306	408.961	90.918	94.567	98.899	101.977	190.495	97.181	-8191	255	
1177.790	1	1	0	0	0.044593	0.25137	0.097963	0.21611	0.18988	0.182	0.14337	0.080083	0.14881	0.42056	0.23628	0.025684	0.15851	0.2984	0.25149	0.1497	-0.35833	-1.2125	-0.95833	-0.75208	-1.3813	-0.59375	-1.0812	-1.575	-0.46875	-1.3979	-1.1708	-0.77917	-1.4062	-0.90833	-0.93542	-1.4729	153.323	270.735	430.026	145.625	234.909	217.063	247.430	410.939	265.769	344.752	371.599	229.898	150.952	396.787	339.983	250.937	0.00048217	0.00098882	0.00032018	417.73	9.2109e-06	1.7057e-05	496.29	208.25	5.1213e-06	1.499e-05	252.33	115.67	110.26	64.887	7.5024e-06	67.022	0.0041901	0.0044959	0.0012611	597.24	4.8617e-05	4.9453e-05	646.29	253.96	4.8281e-05	4.8251e-05	338.19	144.22	147.37	72.822	4.7569e-05	77.463	196.831	325.762	98.337	88.899	87.436	258.307	87.018	94.842	379.079	242.999	90.586	94.597	99.373	102.187	216.383	96.933	-8191	255	
1177.886	1	1	0	0	0.15944	0.30553	0.088908	0.092034	0.23725	0.30144	0.15049	0.16414	0.10667	0.20549	0.25087	0.20344	0.1447	0.13767	0.039274	0.27191	-0.17083	-1.2229	-1.1083	-0.775	-1.1354	-0.56875	-0.94792	-1.4292	-0.55417	-1.0562	-1.1708	-0.71667	-1.3771	-0.85625	-0.65625	-1.6271	108.404	422.291	427.133	90.242	305.571	427.196	87.497	319.119	91.617	165.759	285.092	378.937	250.513	134.058	315.596	284.040	0.00053495	0.0013462	0.00015882	418.19	2.8921e-06	1.1511e-05	496.78	208.31	3.7532e-06	7.2698e-06	256.79	116.83	110.21	65.146	5.4007e-06	67.632	0.0040967	0.0043824	0.0012308	594.7	4.7625e-05	4.888e-05	647.99	254.67	4.8134e-05	4.8232e-05	340.59	145.44	147.45	73.119	4.8077e-05	78.171	195.066	176.568	116.354	88.933	153.668	213.966	86.918	94.599	310.206	270.220	90.390	94.688	99.548	102.106	166.336	97.286	-8191	255	
1177.982	1	1	0	0	0.20754	0.083973	0.22972	0.075937	0.017477	0.39937	0.22007	0.19375	0.38708	0.13932	0.091189	0.1132	0.35694	0.28354	0.16493	0.2488	-0.49583	-1.125	-1.2896	-0.425	-1.1562	-1.0833	-0.73958	-1.5792	-0.66667	-1.0063	-1.125	-0.73333	-1.3563	-1.0542	-0.87917	-1.3563	225.862	140.116	137.652	197.510	161.531	117.297	317.329	386.026	103.009	345.238	82.745	164.361	145.567	386.216	324.331	389.768	0.00077366	0.00061847	0.00027376	421.06	9.0736e-06	2.1165e-05	497.5	208.73	3.4713e-06	4.9398e-06	256.1	116.64	109.34	65.054	1.1197e-05	66.831	0.0040863	0.0043354	0.00123	596.47	4.7342e-05	4.845e-05	647.61	254.66	4.8034e-05	4.7681e-05	338.65	144.51	146.56	72.865	4.7336e-05	77.421	194.441	223.501	176.354	88.910	189.496	255.412	87.152	94.547	99.211	237.457	90.250	94.465	99.325	101.998	203.621	97.252	-8191	255	
1178.103	1	1	0	0	0.2501	0.28368	0.066196	0.079175	0.10919	0.11114	0.069694	0.14613	0.24257	0.22106	0.081299	0.050694	0.028004	0.1552	0.20598	0.26815	-0.26875	-0.93333	-1.2	-0.71875	-1.3125	-1.2083	-0.55833	-1.4833	-0.625	-0.79792	-1.7229	-0.59375	-1.525	-1.3458	-0.6	-1.4896	426.175	168.045	300.486	254.635	384.898	133.173	435.364	279.401	255.137	125.305	388.295	101.133	83.973	412.487	213.224	328.885	0.00067289	0.0019689	0.00011514	421.49	6.791e-06	7.0911e-06	495.27	207.42	5.5273e-06	1.3913e-05	253.52	116.04	110.6	64.689	1.2214e-05	66.889	0.0040623	0.004333	0.0012274	597.57	4.751e-05	4.8483e-05	644.05	252.92	4.7198e-05	4.7147e-05	335.33	143.5	145.94	72.363	4.745e-05	76.788	197.781	167.003	165.647	89.248	206.129	197.308	87.197	94.692	148.301	419.609	90.553	94.968	99.735	102.231	138.867	96.467	-8191	255	
1178.199	1	1	0	0	0.18698	0.041348	0.17489	0.29901	0.16996	0.16134	0.17254	0.10593	0.43545	0.093974	0.14944	0.19092	0.12473	0.49804	0.23166	0.18212	-0.42708	-0.66042	-1.3396	-0.62292	-1.1604	-1.3542	-0.45	-1.4417	-0.75208	-0.66875	-1.5958	-0.71042	-1.1604	-1.3979	-0.6	-1.6271	357.494	372.001	180.524	85.950	378.585	139.087	428.870	138.576	153.836	316.991	368.071	374.402	287.013	401.424	84.347	198.498	0.00077881	0.00060723	0.00054667	419.19	6.4836e-06	2.1072e-05	494.67	208.97	7.5698e-06	1.0462e-05	255.05	117	110.69	64.833	4.9874e-06	66.969	0.0040484	0.0042926	0.0012104	592.81	4.6004e-05	4.7003e-05	638.26	251.54	4.5818e-05	4.5507e-05	333.23	143	144.9	72.332	4.5495e-05	76.621	186.072	189.851	144.202	89.003	359.521	411.483	86.302	94.182	403.638	339.900	90.046	94.275	99.011	101.809	183.100	96.781	-8191	255	
1178.293	1	1	0	0	0.099764	0.14695	0.13751	0.060365	0.33138	0.24205	0.08166	0.10775	0.19422	0.13196	0.19701	0.14117	0.1355	0.1741	0.20386	0.23933	-0.60417	-0.75208	-1.4333	-0.82083	-1.0167	-1.1333	-0.75208	-1.1854	-1.0833	-0.575	-1.3062	-0.71458	-1.0125	-1.6146	-0.47917	-1.3771	388.872	265.162	112.168	87.786	296.778	148.739	392.290	418.178	320.093	150.932	211.708	120.827	279.493	318.748	299.769	374.289	0.00062696	0.0024367	0.00017754	420.29	6.1077e-06	1.3879e-05	499	209.01	8.8119e-06	6.0963e-06	254.99	117.59	111.19	65.085	1.2403e-05	67.496	0.0038689	0.0040983	0.0011557	588.7	4.4285e-05	4.555e-05	640.92	251.61	4.5279e-05	4.5547e-05	334.52	143.76	145.07	72.641	4.5771e-05	77.205	189.976	104.173	221.734	89.042	340.328	181.992	86.727	94.069	286.569	313.080	90.396	94.647	99.244	101.876	366.109	96.911	-8191	255	
1178.389	1	1	0	0	0.24766	0.24248	0.097949	0.227	0.14582	0.21271	0.13902	0.10252	0.13969	0.054377	0.091762	0.1041	0.16212	0.15797	0.040294	0.5157	-0.68125	-0.47083	-1.3188	-0.61667	-0.99583	-1.2604	-0.65833	-1.175	-1.2375	-0.52917	-1.4208	-0.90208	-0.7625	-1.6417	-0.52083	-1.375	315.582	262.706	121.093	400.210	282.751	330.990	341.746	341.036	159.850	244.332	98.434	244.598	334.263	148.128	427.985	361.530	0.00056767	0.00023472	0.00042379	422.74	1.9667e-05	1.3264e-05	501.86	209.99	6.1924e-06	2.114e-05	258.9	117.53	111.65	65.544	1.4504e-05	67.607	0.0038424	0.0041511	0.0011609	588.87	4.4907e-05	4.594e-05	643.79	252.79	4.5688e-05	4.6104e-05	335.48	144.19	145.72	72.801	4.6207e-05	77.382	183.103	162.993	153.207	88.619	192.356	156.465	87.004	94.467	336.408	178.494	90.593	94.909	99.340	101.859	244.535	96.060	-8191	255	
1178.463	1	1	0	0	0.22166	0.15782	0.075117	0.11931	0.27313	0.10068	0.079639	0.29743	0.24091	0.13021	0.055869	0.24299	0.12316	0.36276	0.2588	0.294	-0.96875	-0.52708	-1.375	-0.92083	-0.76875	-1.3125	-0.70417	-0.95417	-1.2125	-0.48542	-1.5083	-1.025	-0.69375	-1.4438	-0.73958	-1.1167	305.577	248.743	320.704	143.878	263.931	212.600	426.188	302.917	375.136	80.859	114.711	360.952	326.633	411.212	185.414	376.702	0.00061414	0.0025035	0.000259	419.48	5.1417e-06	1.9528e-05	493.72	208.87	4.1256e-06	2.0805e-05	253.62	115.84	110.85	64.334	3.7213e-06	66.999	0.0038889	0.0041824	0.0011613	589.53	4.544e-05	4.6414e-05	641.81	251.97	4.6052e-05	4.6462e-05	332.99	142.99	145.07	72.27	4.596e-05	76.571	180.236	100.407	165.162	87.859	287.363	82.599	85.378	93.567	147.343	315.580	89.248	93.190	97.682	100.635	162.169	96.121	-8191	255	
1178.582	1	1	0	0	0.11458	0.03278	0.20338	0.28344	0.11728	0.14485	0.19255	0.17513	0.2311	0.1024	0.12331	0.20165	0.36297	0.34957	0.069301	0.33578	-1.0146	-0.49375	-1.4625	-1.1562	-0.52708	-1.7083	-0.68125	-1.2354	-1.2833	-0.64375	-1.2854	-0.97917	-0.72917	-1.5667	-0.6375	-0.9375	248.479	152.584	361.059	389.513	295.578	75.905	266.509	77.070	335.524	231.187	172.942	430.988	422.618	427.323	329.468	375.603	0.00060387	0.001607	0.00036435	421.99	8.3308e-06	1.0661e-05	500.18	210.43	7.9114e-06	8.8888e-06	257.01	116.33	109.83	65.214	4.5392e-07	67.035	0.0038579	0.0041873	0.0011455	587.76	4.5063e-05	4.5534e-05	637.93	251.17	4.511e-05	4.5287e-05	330.84	142.22	144.67	72.274	4.5138e-05	76.363	173.403	427.930	149.158	88.400	214.010	162.194	86.009	93.745	222.214	411.902	89.548	93.777	97.861	100.910	105.789	95.869	-8191	255	
1178.678	1	1	0	0	0.056216	0.16407	0.18772	0.15398	0.14672	0.35498	0.1477	0.11077	0.1076	0.32483	0.15204	0.15835	0.021812	0.12943	0.16677	0.2548	-1.1625	-0.57292	-1.3229	-1.1396	-0.63333	-1.225	-0.91875	-0.82292	-1.5896	-0.40417	-1.1542	-1.175	-0.47292	-1.4438	-0.83542	-0.825	177.064	232.886	402.568	163.439	324.072	426.884	334.510	134.506	158.510	99.653	288.948	341.111	113.929	345.843	79.094	393.140	0.0007232	0.00064668	0.00074697	424.9	8.9954e-06	8.2875e-06	499.88	211.65	6.2319e-06	1.5099e-05	258.56	117.91	112.01	66.009	1.5272e-05	68.023	0.0038228	0.0041492	0.0011359	586.67	4.4872e-05	4.5091e-05	637.74	251.89	4.5137e-05	4.5883e-05	332.63	143.32	145.92	72.753	4.59e-05	77.14	185.962	213.562	212.253	88.428	361.249	296.152	85.887	93.721	294.604	100.103	89.117	93.783	97.817	101.192	196.621	96.120	-8191	255	
1178.774	1	1	0	0	0.24348	0.13408	0.33384	0.098749	0.15943	0.21785	0.20518	0.17179	0.14009	0.16283	0.25051	0.13961	0.17372	0.34303	0.047213	0.34008	-1.0104	-0.54792	-0.98333	-1.3188	-0.39792	-1.2792	-0.9125	-0.72708	-1.4083	-0.61875	-1.05	-1.4583	-0.53125	-1.5771	-0.99792	-0.69167	165.124	173.894	321.297	206.516	295.764	374.830	247.748	140.511	322.214	323.338	370.403	282.732	176.346	90.410	163.732	343.053	0.00059476	0.0014789	0.00031407	426.78	9.8584e-06	1.6154e-05	505.73	213.06	9.0628e-06	9.765e-06	259.84	118.39	112.27	66.161	2.5036e-06	68.948	0.0038814	0.0042236	0.0011561	592.02	4.5723e-05	4.5618e-05	642.09	252.88	4.4955e-05	4.5695e-05	333.03	143.93	145.55	72.869	4.5045e-05	77.644	180.127	166.834	259.148	88.362	181.795	204.911	86.044	93.877	175.192	334.729	89.506	93.506	98.251	101.154	306.054	96.053	-8191	255	
1178.870	1	1	0	0	0.16253	0.1262	0.098552	0.22181	0.26045	0.24496	0.21874	0.16523	0.11212	0.16729	0.060968	0.056739	0.2433	0.33972	0.19459	0.27016	-1.0229	-0.5875	-0.93542	-1.4146	-0.53333	-1.2875	-1.2604	-0.61458	-1.5167	-0.86667	-0.99167	-1.5979	-0.775	-1.3937	-1.2938	-0.66667	119.302	262.428	232.528	118.509	223.604	140.929	96.071	393.179	244.508	422.187	292.108	99.533	354.545	404.076	408.058	404.440	0.00055797	0.0011553	0.00052692	424.34	6.2642e-06	6.3762e-06	505.65	212.84	3.039e-06	1.4563e-05	260.74	118.94	112.27	66.512	3.6715e-06	68.688	0.0037577	0.0041011	0.0011271	585.26	4.4433e-05	4.4195e-05	640.88	252.85	4.385e-05	4.4858e-05	333.48	143.61	145.43	73.075	4.5003e-05	77.443	190.561	181.237	144.219	88.249	124.137	196.368	86.040	93.806	223.792	280.671	89.333	94.037	98.304	101.725	266.049	96.635	-8191	255	
1178.991	1	1	0	0	0.13165	0.15925	0.067091	0.26208	0.26199	0.43662	0.25037	0.11866	0.24214	0.15459	0.32553	0.15106	0.35207	0.023549	0.22958	0.080259	-0.98958	-0.88125	-0.7875	-1.4667	-0.45	-1.0083	-1.3312	-0.49792	-1.2771	-0.9625	-0.87083	-1.5708	-0.58542	-1.3312	-1.425	-0.56667	414.658	245.582	231.808	348.028	217.371	84.859	391.193	280.611	318.543	332.022	137.475	126.506	398.571	170.963	102.560	324.457	0.00056171	0.00066169	6.1917e-05	425.64	1.7003e-06	1.8311e-05	501.85	214.48	3.6246e-06	1.7371e-05	259.08	117.82	112.54	66.054	7.4445e-06	67.924	0.0037404	0.0040966	0.0011288	586.31	4.4658e-05	4.4107e-05	639.82	253.22	4.401e-05	4.5618e-05	332.76	142.7	145.28	72.672	4.5798e-05	76.891	194.362	81.682	146.782	88.707	343.939	182.947	86.193	93.822	353.696	183.749	90.245	94.140	98.694	101.660	210.067	96.562	-8191	255	
1179.062	1	1	0	0	0.13943	0.14861	0.11952	0.18043	0.20845	0.34004	0.36304	0.13	0.21683	0.29685	0.097101	0.12367	0.063984	0.29606	0.17726	0.21179	-1.0792	-0.92083	-0.65417	-1.5438	-0.52083	-0.86458	-1.4917	-0.375	-1.3146	-0.9625	-0.74583	-1.5792	-0.8	-1.2354	-1.3354	-0.7625	349.676	374.742	265.176	307.146	338.945	159.524	415.056	214.921	302.431	383.730	263.117	334.613	77.685	428.320	416.859	383.691	0.00049975	0.0023387	0.00019978	429.14	5.8638e-06	1.0292e-05	501.84	211.72	6.6074e-06	2.6431e-06	256.9	117.95	112.09	66.046	9.8542e-06	68.308	0.0038198	0.0042403	0.0011611	588.32	4.5489e-05	4.4928e-05	637.58	251.58	4.356e-05	4.5154e-05	330.27	142.06	144.32	72.36	4.4494e-05	76.654	193.343	238.765	127.346	89.055	222.474	251.508	86.703	94.670	249.708	293.617	89.978	93.820	98.958	101.907	235.006	96.927	-8191	255	
1179.183	1	1	0	0	0.15009	0.13497	0.14371	0.33768	0.088206	0.30393	0.26833	0.24473	0.24265	0.054259	0.30056	0.047464	0.10903	0.25917	0.22842	0.13739	-0.88125	-0.87292	-0.75833	-1.3542	-0.67917	-0.74167	-1.4188	-0.58542	-1.2292	-1.1688	-0.69375	-1.3792	-0.90625	-0.80833	-1.3729	-0.99792	186.547	118.593	283.779	381.322	94.778	157.870	376.280	401.921	107.458	283.764	413.373	118.637	390.472	369.328	237.301	404.642	0.00062186	0.0017892	0.00013363	428.61	4.6005e-06	1.2218e-05	503.26	213.11	9.4825e-06	1.9824e-06	261.09	118.45	112.69	66.5	1.4969e-05	68.37	0.0036874	0.0040978	0.0011377	585	4.4608e-05	4.4383e-05	638.86	252.37	4.3517e-05	4.4964e-05	332.6	142.3	145.42	72.802	4.4679e-05	77.219	188.925	186.486	339.531	88.413	226.102	82.196	86.609	94.229	232.979	79.679	90.471	94.820	98.763	102.096	182.258	96.804	-8191	255	
1179.279	1	1	0	0	0.14263	0.039068	0.087124	0.17427	0.10315	0.31907	0.32079	0.29091	0.12645	0.15469	0.16489	0.1287	0.24402	0.16881	0.15958	0.11079	-0.60208	-1.1167	-0.49167	-1.3292	-0.98333	-0.74167	-1.4708	-0.58333	-1.1021	-1.2646	-0.56458	-1.3604	-1.05	-0.7875	-1.4542	-0.90833	184.706	255.402	229.135	342.482	367.565	164.522	342.394	413.992	98.793	125.415	135.507	415.339	284.451	420.495	148.097	120.795	0.0005245	0.00034026	0.00048981	430.31	9.9508e-06	1.7226e-05	510.06	212.99	5.863e-06	1.157e-05	261.02	119.07	113.18	66.312	5.2596e-06	68.715	0.0037072	0.0041149	0.0011416	585.91	4.476e-05	4.4571e-05	641.2	252.85	4.3845e-05	4.5627e-05	334.39	143.45	145.96	73.02	4.4911e-05	77.58	199.474	133.365	178.394	89.032	266.209	161.397	87.020	94.287	335.049	107.187	90.685	94.619	98.739	101.938	297.238	96.527	-8191	255	
1179.374	1	1	0	0	0.076424	0.27785	0.11388	0.13642	0.12731	0.26323	0.20499	0.17707	0.11554	0.14989	0.14222	0.042416	0.085382	0.27747	0.32053	0.12054	-0.62292	-1.3417	-0.48333	-1.4042	-0.85625	-0.45208	-1.5063	-0.90625	-0.6875	-1.2646	-0.60417	-1.2854	-1.3042	-0.66042	-1.3583	-0.92083	200.700	430.754	195.288	342.269	309.066	314.547	417.181	408.039	179.750	298.078	256.161	235.470	267.420	118.351	182.522	394.889	0.00066105	0.0016023	0.00061612	429.38	3.2267e-06	1.5383e-05	503.69	212.07	5.6955e-06	3.1344e-06	258.05	117.55	113.3	66.025	1.3136e-05	67.867	0.0037472	0.0041539	0.0011573	585.16	4.5452e-05	4.5515e-05	642.02	253.34	4.4825e-05	4.6343e-05	334.3	142.95	146.78	72.82	4.5657e-05	77.047	178.835	182.121	91.229	88.534	191.093	250.511	86.533	94.122	117.533	171.116	90.363	94.675	98.902	101.996	194.903	96.724	-8191	255	
1179.470	1	1	0	0	0.24916	0.15029	0.13549	0.27083	0.22152	0.13878	0.17463	0.2971	0.21203	0.19003	0.13002	0.25007	0.10612	0.20667	0.21278	0.31241	-0.43958	-1.5938	-0.59375	-1.2167	-1.3458	-0.475	-1.5854	-0.80833	-0.78125	-1.3292	-0.80625	-1.1187	-1.6229	-0.7	-1.3271	-1.1667	281.626	204.059	390.050	250.789	139.708	213.177	195.127	311.992	194.094	103.058	307.122	237.912	137.366	358.273	413.031	389.228	0.00053953	0.00066998	0.00021988	426.07	1.0902e-05	1.8319e-06	502.67	210.87	1.0434e-05	3.9301e-06	259.11	117.79	112.07	66.166	1.3624e-06	68.287	0.0038571	0.0042291	0.0011725	587.06	4.6087e-05	4.5781e-05	636.57	252.08	4.4326e-05	4.5249e-05	331.83	141.93	144.88	72.528	4.3341e-05	76.82	190.588	293.292	258.469	88.677	238.424	356.470	86.818	94.562	141.510	387.753	89.899	94.545	98.960	101.974	189.201	96.947	-8191	255	
1179.590	1	1	0	0	0.20379	0.074901	0.14292	0.24185	0.095543	0.1365	0.31986	0.15061	0.20564	0.28346	0.14363	0.077365	0.28822	0.19314	0.16438	0.28215	-0.21042	-1.2167	-0.49375	-1.2062	-1.3708	-0.63542	-1.5646	-1.0604	-0.54167	-1.475	-0.82708	-0.91042	-1.4354	-0.66042	-1.4562	-1.1437	248.281	286.268	361.247	388.396	302.999	251.630	424.829	141.014	283.034	241.866	385.558	366.442	146.669	421.282	337.970	108.403	0.00056715	0.00098462	0.00017944	424.78	1.0777e-05	8.5435e-06	501.25	211.68	2.0437e-06	8.8948e-06	256.09	118.31	112.26	65.861	3.3552e-06	68.277	0.0037182	0.0040352	0.0011321	580.82	4.4881e-05	4.5023e-05	634.35	252.41	4.4096e-05	4.4694e-05	331.09	142.38	145.64	72.603	4.3906e-05	77.296	184.964	91.421	200.135	88.510	165.947	376.808	85.908	93.812	267.824	307.890	89.826	94.151	98.234	101.311	244.097	96.101	-8191	255	
1179.662	1	1	0	0	0.1687	0.11268	0.30288	0.18325	0.30594	0.16037	0.18122	0.18189	0.23703	0.28532	0.14758	0.13304	0.2489	0.24186	0.18097	0.16482	-0.34167	-1.2854	-0.83333	-1.125	-1.3167	-0.69167	-1.2667	-1.2812	-0.58958	-1.3687	-0.94583	-0.73125	-1.5208	-0.55	-1.1688	-1.3292	215.382	294.333	157.625	401.493	335.504	207.028	324.626	342.978	257.081	228.454	144.046	257.457	287.010	401.522	309.409	381.425	0.00050386	0.00088654	0.00020196	423.87	8.9273e-06	2.0055e-05	499.54	209.86	1.0917e-05	1.0252e-05	257.04	118.07	111.62	65.368	1.2406e-05	67.639	0.0037692	0.0040875	0.0011534	586.56	4.5479e-05	4.6048e-05	639.94	253.16	4.5507e-05	4.5995e-05	336.32	143.88	146.76	72.879	4.6772e-05	77.833	181.423	147.281	155.715	88.614	228.290	130.284	86.489	93.867	220.546	345.539	89.813	93.746	98.541	101.359	251.542	96.323	-8191	255	
1179.758	1	1	0	0	0.14562	0.096107	0.10363	0.23112	0.13626	0.22784	0.060629	0.38321	0.075376	0.067665	0.14996	0.16237	0.23923	0.10117	0.046696	0.43699	-0.11458	-1.2188	-0.91458	-0.77708	-1.4104	-0.44583	-1.1542	-1.5021	-0.57083	-1.2646	-1.0271	-0.85417	-1.3396	-0.86875	-1.0292	-1.3917	132.218	240.329	258.511	373.254	207.604	190.036	198.152	216.607	398.526	350.225	287.542	297.059	372.068	367.047	376.948	328.779	0.00053907	0.00089549	0.0003692	424.84	9.2691e-06	2.6178e-05	497.36	210.19	1.3666e-05	6.4475e-06	255.8	117.12	111.43	65.135	1.1102e-05	66.858	0.0040601	0.004385	0.00125	599.85	4.8881e-05	4.937e-05	645.16	256	4.8852e-05	4.8927e-05	339.61	144.74	148.49	73.005	4.9788e-05	77.691	186.596	364.268	308.213	88.360	356.673	229.702	86.186	93.744	261.083	92.579	89.377	93.680	98.358	101.263	187.642	96.269	-8191	255	
1179.879	1	1	0	0	0.11514	0.050835	0.063738	0.11971	0.14776	0.075039	0.17905	0.33679	0.28326	0.1175	0.13516	0.32347	0.2519	0.081107	0.088701	0.0081906	-0.15417	-1.0063	-0.94583	-0.69375	-1.4271	-0.93125	-0.85625	-1.4354	-0.68125	-1.1896	-1.1562	-0.85208	-1.4958	-1.1208	-1.0229	-1.5229	342.981	210.187	261.317	240.247	207.273	338.951	286.911	100.125	142.839	161.450	375.110	430.345	376.929	407.427	347.468	359.037	0.00032352	0.00094551	0.00033397	416.05	8.6422e-06	7.0004e-06	494.28	207.95	8.8643e-06	7.0142e-06	251.17	114.6	110.25	64.517	6.2572e-06	65.736	0.0043008	0.0046125	0.0013235	606.72	5.1275e-05	5.2016e-05	651.01	256.71	5.1683e-05	5.1675e-05	341.11	144.92	149.12	72.694	5.2293e-05	76.987	183.757	256.129	144.230	88.372	215.647	186.273	86.560	93.807	318.398	245.079	89.576	93.853	98.283	101.403	329.551	95.914	-8191	255	
1179.975	1	1	0	0	0.10586	0.17815	0.11558	0.092868	0.27491	0.030868	0.032776	0.024621	0.13258	0.26538	0.13573	0.15535	0.038814	0.23197	0.10794	0.18857	-0.27708	-0.96042	-0.99792	-0.76875	-1.175	-0.76458	-1	-1.5271	-0.48125	-1.0146	-1.0958	-0.74167	-1.3896	-1.0896	-0.65417	-1.6854	314.966	167.068	393.715	258.024	241.741	101.443	406.760	361.007	219.657	269.736	194.703	415.122	260.382	406.614	427.906	94.173	0.00047893	0.00076135	0.0002317	418.65	1.7511e-05	4.2553e-06	487.19	205.1	1.158e-06	2.3235e-05	248.17	114.16	109.2	64.181	1.6469e-05	65.839	0.0044762	0.0048314	0.0013911	615.16	5.3798e-05	5.5392e-05	656.84	257.2	5.4848e-05	5.4646e-05	345.13	145.65	151.17	72.957	5.535e-05	77.397	182.289	149.792	368.268	88.344	154.234	304.795	86.363	93.425	211.049	206.240	89.289	93.670	98.249	100.928	183.434	95.842	-8191	255	
1180.071	1	1	0	0	0.14122	0.15011	0.084713	0.18947	0.14019	0.26149	0.14797	0.049085	0.16759	0.20873	0.25816	0.068995	0.18343	0.32588	0.073096	0.48927	-0.020833	-1.1771	-1.0646	-0.375	-1.2167	-0.87083	-0.50625	-1.2938	-0.71667	-1.1313	-1.4188	-0.55625	-1.3125	-1.2375	-0.5875	-1.5562	132.742	376.325	431.493	325.229	324.780	427.646	332.797	338.703	190.456	161.498	104.403	368.465	238.994	408.341	361.760	343.543	0.00054676	0.0007144	0.00090339	421.32	1.0155e-05	8.7336e-06	488.76	207.99	8.7791e-06	7.1526e-06	251.03	114.27	110.2	64.345	3.4218e-06	66.042	0.0047165	0.005063	0.0014429	622.33	5.4967e-05	5.6586e-05	660.9	258.56	5.4825e-05	5.4572e-05	345.73	145.79	150.15	72.82	5.302e-05	77.38	165.485	199.448	167.931	88.307	234.056	232.502	85.886	93.664	109.699	295.497	89.253	93.631	98.193	101.025	318.553	96.001	-8191	255	
1180.167	1	1	0	0	0.1259	0.12535	0.17257	0.027325	0.15891	0.28195	0.2892	0.22297	0.11054	0.18198	0.31485	0.10063	0.17994	0.066126	0.1293	0.33402	-0.52917	-0.86042	-1.3417	-0.65208	-1.3229	-1.3458	-0.59792	-1.6375	-0.75208	-0.88125	-1.5875	-0.63125	-1.3583	-1.0875	-0.58958	-1.6021	403.990	297.906	241.047	209.737	405.152	408.594	341.721	180.382	154.689	136.406	303.215	324.130	121.221	340.895	354.644	82.818	0.00058959	0.0025755	0.0001323	418.09	6.4836e-06	5.0888e-06	493.03	207.47	6.2651e-06	9.3513e-06	252.98	115.52	109.62	64.568	1.0798e-05	66.702	0.0045042	0.0048037	0.001365	614.02	5.2041e-05	5.3878e-05	657.72	257	5.3037e-05	5.3277e-05	344.11	145.74	149.6	72.91	5.2757e-05	77.476	203.291	184.882	213.048	88.440	269.151	296.421	85.992	93.850	394.460	350.194	89.675	93.718	98.310	101.099	225.926	96.311	-8191	255	
1180.286	1	1	0	0	0.11087	0.070977	0.15	0.096779	0.069254	0.26009	0.21078	0.17942	0.085876	0.17394	0.047508	0.37638	0.18287	0.49625	0.23015	0.1913	-0.52708	-0.70417	-1.475	-0.60625	-0.96042	-1.1354	-0.80417	-1.2729	-0.97917	-0.675	-1.5021	-0.68125	-1.0562	-1.4771	-0.41875	-1.6313	95.373	408.704	240.849	385.614	408.216	401.420	330.797	125.325	122.873	245.475	92.563	368.761	115.095	385.686	429.408	79.534	0.00055562	0.0014754	0.00055473	418.86	6.5226e-06	1.1342e-05	494.04	209.18	5.3489e-06	7.3673e-06	252.6	115.61	110.12	64.826	1.4913e-05	66.532	0.0044387	0.0047304	0.0013221	606.68	5.0389e-05	5.1987e-05	650.71	254.85	5.08e-05	5.0944e-05	339.94	144.73	148.49	72.923	5.1597e-05	77.099	184.206	377.725	132.800	88.116	258.522	223.757	86.442	93.678	192.344	352.759	89.757	93.733	97.837	101.140	236.436	96.281	-8191	255	
1180.358	1	1	0	0	0.11517	0.080603	0.19909	0.07785	0.097986	0.15672	0.19757	0.2352	0.1256	0.13967	0.16213	0.055084	0.20123	0.28047	0.10056	0.34486	-0.4	-0.625	-1.4083	-0.71458	-0.98333	-1.4146	-0.59792	-1.325	-1.0312	-0.71667	-1.4708	-0.79583	-0.94167	-1.4667	-0.45417	-1.2563	373.192	254.619	211.637	168.338	250.480	238.339	166.583	140.056	380.509	112.509	100.510	387.259	251.701	352.613	336.132	327.243	0.00049711	0.00059633	0.0001564	415.43	1.5086e-05	5.7408e-06	493.45	207.94	8.9058e-06	1.4863e-05	253.13	114.35	111.17	64.616	8.0046e-06	65.717	0.0044474	0.0047345	0.0013202	605.4	5.0778e-05	5.2014e-05	648.58	254.21	5.1241e-05	5.1316e-05	337.65	143.83	148.43	72.531	5.0869e-05	76.367	200.202	122.852	366.118	88.006	231.751	173.980	86.319	93.824	228.189	317.141	89.759	93.792	98.319	101.242	205.323	96.303	-8191	255	
1180.454	1	1	0	0	0.28297	0.07019	0.27978	0.044292	0.234	0.11424	0.071444	0.27331	0.060916	0.11908	0.25256	0.18308	0.12945	0.12986	0.098046	0.067843	-0.67917	-0.70208	-1.4104	-0.8625	-0.725	-1.4292	-0.59375	-1.4208	-1.1812	-0.58333	-1.6333	-0.97708	-0.84792	-1.675	-0.4125	-1.275	289.283	150.793	175.643	380.347	165.015	364.252	356.950	86.361	349.322	246.287	291.916	261.950	285.648	386.208	376.289	358.402	0.00064581	0.00055046	0.00030868	421.91	1.729e-06	2.5902e-05	490.4	207.97	9.085e-06	1.2364e-05	250.77	114.44	109.23	64.107	1.7951e-06	65.939	0.0043356	0.0046601	0.0012959	606.92	5.0704e-05	5.1817e-05	647.83	254.69	5.1693e-05	5.1836e-05	338.29	144.05	149.06	72.359	5.2242e-05	76.731	191.230	179.934	426.054	88.002	290.017	239.979	86.184	93.796	171.850	297.940	89.924	93.425	98.359	101.089	434.452	96.303	-8191	255	
1180.550	1	1	0	0	0.20126	0.21101	0.11602	0.18547	0.35495	0.07335	0.25474	0.12917	0.11274	0.34582	0.14159	0.12015	0.19266	0.049573	0.035529	0.24062	-0.90625	-0.475	-1.3896	-0.95208	-0.79792	-1.5875	-0.91458	-1.1063	-1.1646	-0.52917	-1.2708	-0.87708	-0.53125	-1.4604	-0.75625	-1.1083	193.347	131.103	333.567	171.627	343.870	260.618	291.968	424.061	340.403	239.563	300.187	405.630	281.493	217.413	292.134	392.643	0.0005596	0.0020782	0.00038667	421.42	7.0301e-06	1.2805e-05	494.31	208.19	2.3081e-06	2.1935e-05	249.52	113.92	109.19	63.925	1.288e-05	65.648	0.0044735	0.0048599	0.0013316	615.65	5.298e-05	5.441e-05	658.1	257.15	5.4383e-05	5.4481e-05	342.18	145.55	150.69	72.552	5.5161e-05	77.392	175.522	378.705	137.071	88.019	219.285	146.043	86.188	93.741	284.323	280.871	89.511	93.856	98.561	101.351	201.332	96.387	-8191	255	
1180.671	1	1	0	0	0.30154	0.20112	0.027092	0.071575	0.099033	0.040348	0.15904	0.44236	0.1413	0.20176	0.053044	0.26641	0.10486	0.13405	0.13005	0.1672	-0.95	-0.49583	-1.4896	-1.0396	-0.75	-1.4813	-0.71667	-1.1917	-1.1125	-0.49792	-1.1083	-1.2708	-0.59583	-1.3937	-0.8625	-0.88542	383.532	185.429	123.208	395.520	209.844	137.872	398.889	333.083	181.046	404.486	134.743	223.629	279.851	299.557	77.118	352.948	0.00058262	0.0012827	0.00056129	415.57	9.1899e-06	1.2729e-05	484.3	206.8	1.1062e-05	1.7515e-05	249.64	113.71	108.68	63.928	1.0791e-05	65.685	0.004709	0.0050945	0.0014115	625.06	5.5918e-05	5.6141e-05	662.06	258.5	5.5997e-05	5.5926e-05	344.25	146.2	150.62	72.525	5.4531e-05	77.026	190.313	105.820	267.257	88.064	193.497	162.544	86.115	93.740	205.678	288.698	89.615	93.573	98.158	101.196	212.157	96.617	-8191	255	
1180.767	1	1	0	0	0.12307	0.15732	0.26922	0.084993	0.10902	0.12979	0.10313	0.37856	0.26926	0.10375	0.37975	0.13363	0.064244	0.1457	0.071757	0.16884	-1.1917	-0.41667	-1.1771	-1.2563	-0.44583	-1.4771	-0.87083	-0.86042	-1.4188	-0.75	-1.2042	-1.2062	-0.85833	-1.3937	-0.93958	-0.83333	402.617	277.393	407.098	350.710	169.073	391.704	87.503	341.112	154.115	401.411	326.064	430.849	129.861	255.962	348.303	417.821	0.00051917	0.0007471	0.00035298	419.18	8.2139e-06	1.6305e-05	490.29	206.57	1.3503e-05	7.6914e-06	248.5	113.92	108.97	63.745	1.5445e-05	64.768	0.0045649	0.0049126	0.0013508	614.35	5.3045e-05	5.2599e-05	654.89	255.64	5.2106e-05	5.2606e-05	338.98	144.23	148.85	71.862	5.3123e-05	76.054	189.272	129.254	260.689	88.706	88.406	233.754	86.088	93.875	185.804	314.336	89.566	93.484	98.208	101.462	243.625	96.278	-8191	255	
1180.863	1	1	0	0	0.21362	0.10093	0.13064	0.1431	0.048529	0.47294	0.15219	0.19126	0.11308	0.082858	0.091481	0.33485	0.11238	0.14076	0.012482	0.11496	-1.1187	-0.7625	-0.89375	-1.425	-0.44792	-1.3604	-0.925	-0.81458	-1.3146	-0.75	-1.1625	-1.3	-0.49167	-1.2229	-1.0312	-0.64583	268.570	95.941	255.344	121.941	136.705	307.762	97.262	347.761	131.782	404.040	96.167	350.929	321.509	352.256	230.910	351.142	0.00049477	0.0021954	0.00010307	418.95	9.7242e-06	6.3784e-06	489.6	206.89	7.14e-06	3.7785e-06	250.58	113.47	109.76	63.756	1.1748e-05	65.002	0.0044213	0.0048269	0.0013273	612.84	5.216e-05	5.1655e-05	650.26	254.41	5.1249e-05	5.2447e-05	338.25	143.48	148.77	71.79	5.3249e-05	75.973	180.944	125.936	142.777	88.030	93.415	286.702	85.957	93.914	278.146	196.760	89.596	94.230	98.222	101.549	221.068	96.619	-8191	255	
1180.959	1	1	0	0	0.22266	0.12686	0.13387	0.06266	0.17373	0.1488	0.12254	0.011444	0.16928	0.25315	0.29412	0.097053	0.24972	0.19963	0.27072	0.10254	-1.1812	-0.59167	-0.91875	-1.3167	-0.64167	-1.3563	-1.0708	-0.67292	-1.2604	-0.58958	-0.99792	-1.7729	-0.475	-1.3417	-1.2854	-0.83333	315.687	144.770	98.803	166.378	302.467	79.032	233.705	224.308	206.981	204.140	359.187	190.483	92.266	291.674	155.800	295.298	0.00054118	0.00040353	0.00016339	418.6	1.2576e-06	1.4264e-05	486.6	206.26	9.1595e-06	1.2312e-05	248.56	114.35	109.5	64.423	3.9702e-06	65.803	0.0044176	0.0048741	0.0013422	612.24	5.2511e-05	5.2506e-05	652.78	255.45	5.1589e-05	5.3326e-05	338.38	144.07	148.41	72.042	5.1884e-05	76.333	180.720	83.303	311.191	88.355	349.712	172.867	86.254	93.768	240.388	304.507	89.702	93.893	98.672	101.400	177.982	96.525	-8191	255	
1181.055	1	1	0	0	0.27843	0.15554	0.12655	0.13078	0.17853	0.24734	0.33576	0.095398	0.22689	0.256	0.031134	0.12635	0.078153	0.23784	0.2174	0.18978	-1.1688	-0.55208	-0.66042	-1.4771	-0.51667	-1.1812	-1.1583	-0.9125	-1.2542	-0.80417	-0.74583	-1.4292	-0.65208	-1.3208	-1.2875	-0.71875	149.707	384.178	141.577	429.247	181.352	91.817	432.401	404.181	277.410	421.158	386.775	311.925	78.480	369.643	110.355	431.599	0.00051227	0.0011061	0.00010042	422.61	1.2803e-05	7.5881e-06	492.92	208.64	2.6839e-06	7.4179e-06	253.04	115.59	111.31	64.604	2.8555e-06	66.197	0.0042566	0.0047095	0.0012892	605.33	5.0192e-05	5.0061e-05	649.02	253.89	4.8661e-05	5.0436e-05	335.96	143.13	147.28	72.116	4.9321e-05	76.481	189.007	229.295	173.687	87.948	235.021	196.196	86.224	94.084	248.164	275.428	89.717	93.851	98.381	101.377	417.737	96.637	-8191	255	
1181.151	1	1	0	0	0.14251	0.23736	0.049642	0.064392	0.27223	0.12352	0.13305	0.33113	0.14984	0.19578	0.21196	0.19106	0.16433	0.2167	0.0845	0.27893	-1.1	-0.91667	-0.90208	-1.2875	-0.54792	-1.1292	-1.4229	-0.65208	-1.275	-1.1958	-0.61042	-1.5021	-0.77292	-0.9375	-1.4792	-0.55625	167.912	274.982	213.219	367.392	305.256	385.964	252.548	371.393	328.768	278.503	384.504	98.027	251.847	98.764	303.796	354.538	0.000455	0.0007011	0.00015578	423.12	1.5457e-05	3.9928e-06	494.4	209.12	9.1527e-06	7.8811e-06	254.05	115.29	110.15	64.603	1.6814e-06	66.189	0.0041085	0.004567	0.0012476	599.27	4.9073e-05	4.8898e-05	645.16	253.38	4.7572e-05	4.9337e-05	334.19	142.09	146.59	71.926	4.8642e-05	76.038	176.809	320.591	212.370	88.712	232.855	310.736	85.898	93.789	412.730	267.024	89.962	93.796	98.325	101.559	101.330	96.271	-8191	255	
1181.272	1	1	0	0	0.23108	0.17067	0.15351	0.017911	0.2193	0.31332	0.1462	0.086906	0.10559	0.113	0.33273	0.15609	0.079984	0.31893	0.079609	0.38751	-0.88542	-1.25	-0.46458	-1.6771	-0.58542	-0.96042	-1.3271	-0.68542	-1.075	-1.3271	-0.62083	-1.2396	-1.1208	-0.80625	-1.4333	-0.58958	360.720	343.624	236.168	406.719	428.223	243.127	373.503	300.198	116.549	253.847	211.195	421.694	280.895	411.600	367.984	384.071	0.00057368	0.0012003	0.00030034	426.04	5.3357e-06	2.2905e-05	491.93	208.47	7.8984e-06	2.1092e-05	250.05	114.11	110.14	64.268	8.1785e-06	65.123	0.0040529	0.0044991	0.0012366	595.57	4.883e-05	4.8379e-05	640.36	252.93	4.7544e-05	4.9082e-05	332.63	140.93	146.37	71.568	4.858e-05	75.265	189.243	280.358	349.769	88.467	160.107	225.405	86.014	93.943	240.025	207.939	89.707	94.252	98.154	101.500	148.819	96.288	-8191	255	
1181.366	1	1	0	0	0.24054	0.027677	0.17475	0.21395	0.21678	0.2288	0.094325	0.24164	0.44328	0.15807	0.033302	0.077694	0.11117	0.3317	0.12373	0.2473	-0.68333	-1.2437	-0.43542	-1.2	-0.93542	-0.77083	-1.6042	-0.63958	-0.8625	-1.2854	-0.4375	-1.3917	-1.1187	-0.85208	-1.5208	-0.83125	347.502	343.126	129.558	386.031	210.649	103.273	412.384	406.825	116.075	355.398	104.753	94.690	218.394	399.178	366.483	331.159	0.00043609	0.0005323	0.00041841	422.24	1.0405e-05	1.8964e-05	490.39	208.42	9.6687e-06	1.4244e-05	249.7	115.08	109.79	63.996	1.1095e-05	65.191	0.0040985	0.0045323	0.0012464	598.23	4.9453e-05	4.881e-05	639.64	252.17	4.7836e-05	4.8916e-05	330.96	140.93	146.02	71.528	4.7726e-05	75.352	195.520	269.450	237.886	88.728	307.075	198.325	86.590	94.079	193.463	282.136	89.743	94.106	98.335	101.677	157.461	96.262	-8191	255	
1181.463	1	1	0	0	0.25431	0.14762	0.1447	0.095929	0.20159	0.23287	0.2414	0.086527	0.053435	0.26212	0.21515	0.35027	0.10065	0.19144	0.14089	0.16454	-0.7	-1.3771	-0.7125	-1.2958	-1.0583	-0.67292	-1.6583	-0.88958	-0.74167	-1.3833	-0.66458	-1.0667	-1.1646	-0.79375	-1.2958	-0.86667	196.883	398.427	308.471	383.505	163.446	218.604	335.790	193.279	220.022	113.340	102.513	358.283	309.630	373.100	209.240	336.838	0.00054396	0.00053791	0.00038669	422.4	3.803e-06	9.2297e-06	494.05	208.09	1.293e-05	1.6443e-05	250.36	113.87	109.19	63.574	1.3892e-05	65.332	0.0040556	0.0044775	0.001245	597.31	5.0029e-05	4.9905e-05	643.78	254.54	4.9601e-05	5.0835e-05	337	142.79	148.28	71.56	5.0468e-05	76.048	181.782	197.971	188.377	88.024	255.742	105.259	86.344	93.782	191.677	287.584	90.000	94.072	98.317	101.547	212.651	96.391	-8191	255	
1181.583	1	1	0	0	0.10755	0.23873	0.37223	0.19599	0.032921	0.13211	0.22656	0.097406	0.079845	0.26109	0.19776	0.41859	0.15855	0.11269	0.14443	0.1585	-0.3375	-1.475	-0.53958	-1.1437	-0.98125	-0.61458	-1.3792	-1.0729	-0.52917	-1.3667	-0.6125	-1.125	-1.0833	-0.81042	-1.3333	-1.3	374.980	434.830	351.065	302.645	268.715	191.780	296.863	311.430	222.076	365.959	132.373	417.499	101.168	105.809	302.723	380.981	0.00063169	0.00099297	0.00035539	423.64	5.4948e-06	9.3736e-06	492.29	208.02	1.6072e-05	2.8886e-06	250.1	113.5	108.55	63.04	1.1737e-05	64.426	0.0042809	0.0046533	0.0013072	606.84	5.1487e-05	5.149e-05	650.63	255.45	5.1076e-05	5.2089e-05	337.96	142.9	148.11	71.278	5.1917e-05	75.644	191.297	165.559	263.360	88.376	87.187	399.419	86.097	93.888	231.292	347.741	89.971	94.413	98.121	101.700	420.150	96.927	-8191	255	
1181.655	1	1	0	0	0.14838	0.22391	0.1202	0.2772	0.065046	0.1685	0.19989	0.23868	0.26102	0.15421	0.13299	0.045523	0.012971	0.14506	0.32006	0.22584	-0.30417	-1.2292	-0.52917	-0.94792	-1.3771	-0.64583	-1.4333	-1.0042	-0.44167	-1.4083	-0.84167	-0.925	-1.4208	-0.67083	-1.1458	-1.2437	189.356	257.920	430.873	78.884	264.830	352.144	291.338	410.023	394.789	305.825	154.472	225.514	286.364	366.890	183.827	358.625	0.00067789	0.00078521	0.00036148	422.35	6.2794e-06	1.2174e-05	488.06	206.05	2.342e-06	2.1968e-05	244.59	111.36	107.84	62.413	9.9136e-06	63.366	0.0044532	0.0048418	0.0013674	615.76	5.3689e-05	5.3475e-05	650.33	256.09	5.2613e-05	5.3031e-05	338.32	141.61	147.75	70.5	5.2464e-05	74.418	190.053	175.472	189.674	88.259	301.143	261.319	86.471	93.825	239.353	387.441	90.019	94.222	98.684	101.786	268.958	96.714	-8191	255	
1181.751	1	1	0	0	0.18221	0.056278	0.10165	0.23368	0.012654	0.1215	0.18813	0.20075	0.094898	0.38988	0.10554	0.15527	0.1724	0.18216	0.30417	0.15199	-0.125	-1.4667	-0.60208	-0.94167	-1.1604	-0.29583	-1.275	-1.025	-0.41875	-1.2958	-0.93542	-0.86667	-1.1833	-0.8	-1.2687	-1.3958	411.397	277.265	313.912	405.853	431.216	93.701	372.500	203.838	397.624	282.827	404.382	328.226	383.974	391.901	429.199	383.142	0.00053022	0.0009451	0.00020928	421.2	1.3319e-05	9.0933e-06	488.41	204.98	6.8458e-06	1.7655e-05	245.97	110.99	107.5	62.299	4.4132e-06	63.153	0.00441	0.0047363	0.001352	609.62	5.205e-05	5.2269e-05	645.15	253.26	5.0489e-05	5.08e-05	334.16	140.39	146.17	70.164	5.0718e-05	74.067	178.184	131.345	380.628	88.620	284.273	103.137	86.503	93.863	130.606	246.441	89.554	94.512	98.628	101.773	144.768	96.737	-8191	255	
1181.847	1	1	0	0	0.30316	0.073989	0.12842	0.22826	0.14337	0.15434	0.1907	0.06112	0.19122	0.26164	0.1803	0.18988	0.27977	0.1778	0.093884	0.2071	-0.041667	-1.5042	-0.80833	-0.60625	-1.3021	-0.75	-1.2812	-1.5167	-0.37917	-1.2958	-1.1479	-0.54792	-1.4	-0.96458	-0.84583	-1.4188	367.440	326.190	165.977	430.921	397.132	109.562	361.485	241.913	159.564	365.236	299.095	400.496	168.645	89.884	261.242	365.717	0.00043302	0.0012915	0.00033639	424.24	1.2865e-05	2.2508e-05	489.11	205.16	7.8515e-06	1.7199e-05	244.7	110.07	107.84	61.49	5.4796e-06	62.876	0.0043274	0.0047091	0.0013403	610.97	5.2112e-05	5.3191e-05	650.63	255.28	5.3015e-05	5.3635e-05	339.33	141.75	148.01	70.263	5.4176e-05	74.655	174.437	251.581	140.816	87.969	293.947	271.199	85.745	93.945	148.076	403.568	89.881	94.539	98.704	101.731	266.004	96.756	-8191	255	
1181.968	1	1	0	0	0.074054	0.036942	0.1436	0.17944	0.12765	0.16579	0.36611	0.14232	0.36701	0.12327	0.23814	0.22073	0.27983	0.090252	0.18322	0.2371	-0.40208	-1.1625	-1.1917	-0.4875	-1.2979	-0.675	-0.81458	-1.4083	-0.56875	-1.1646	-1.2208	-0.57917	-1.5396	-0.89792	-0.97292	-1.5187	260.566	426.429	121.774	200.650	125.755	278.637	426.894	275.685	89.896	100.603	375.428	429.046	434.944	142.595	193.106	382.048	0.00049664	0.001666	0.00031133	421.47	5.997e-06	1.2536e-05	486.69	205.65	1.4896e-05	2.3788e-05	247.79	111.83	106.63	61.933	1.7997e-05	63.121	0.0045695	0.0049392	0.0014014	619.71	5.3555e-05	5.4836e-05	655.92	256.1	5.3562e-05	5.357e-05	340.7	142.69	147.56	70.425	5.3178e-05	74.708	174.669	97.051	272.207	88.526	233.512	237.394	86.662	93.876	184.511	225.150	89.718	94.470	98.573	101.432	249.089	96.910	-8191	255	
1182.064	1	1	0	0	0.40742	0.12317	0.091448	0.078728	0.12387	0.36787	0.14378	0.26565	0.20438	0.28279	0.26561	0.20754	0.13677	0.032404	0.15175	0.43892	-0.23125	-1.0292	-1.075	-0.93333	-1.2396	-0.8375	-0.84792	-1.4229	-0.79167	-1.2458	-1.2104	-0.5625	-1.525	-1.0167	-0.85833	-1.8021	420.832	253.616	404.837	168.208	242.794	88.537	348.685	220.744	255.008	81.359	326.549	345.916	371.728	425.071	338.977	387.991	0.00068622	0.0010457	0.00040179	422.91	1.3833e-05	2.0697e-05	489.39	206.19	9.9735e-06	9.1566e-06	246.87	111.34	107.49	62.035	5.0743e-06	63.099	0.0044857	0.0048401	0.0013716	614.01	5.2088e-05	5.3662e-05	650.9	254.12	5.2012e-05	5.2476e-05	337.76	141.38	146.46	70.186	5.1706e-05	74.137	191.734	306.183	241.181	88.657	263.253	243.842	86.654	94.159	193.626	76.996	89.498	94.430	98.744	101.683	191.902	96.862	-8191	255	
1182.160	1	1	0	0	0.25444	0.37153	0.10039	0.12226	0.304	0.19056	0.029498	0.4241	0.1473	0.14826	0.31308	0.18822	0.030294	0.16727	0.17098	0.089639	-0.06875	-1.2188	-1.1625	-0.49375	-1.4958	-0.75	-0.8	-1.5208	-0.56667	-0.875	-1.3021	-0.62083	-1.3021	-1.0521	-0.63125	-1.4375	196.011	307.880	196.608	419.177	312.765	343.955	323.516	320.304	408.435	247.122	202.805	413.990	362.434	96.947	216.893	82.832	0.00044558	0.0015916	0.00035892	425.15	7.0833e-06	1.0457e-05	486.77	205.33	3.9659e-06	6.8614e-06	244.03	110.34	106.66	61.674	4.8966e-06	62.959	0.0044053	0.0047482	0.001344	611.69	5.1595e-05	5.3711e-05	648.12	253.06	5.2774e-05	5.261e-05	335.43	140.59	146.14	69.938	5.1945e-05	73.651	176.582	221.175	117.973	88.459	340.564	189.764	86.340	94.634	282.815	143.164	89.451	94.113	98.675	101.765	135.386	96.923	-8191	255	
1182.232	1	1	0	0	0.16247	0.27161	0.15639	0.33089	0.14153	0.13825	0.29977	0.24827	0.35526	0.08183	0.20738	0.27588	0.16866	0.098333	0.28398	0.23483	-0.20208	-0.83125	-1.4458	-0.50833	-1.0292	-1.0271	-0.68333	-1.4229	-0.73542	-0.65833	-1.3625	-0.575	-1.2604	-1.0604	-0.68958	-1.5729	128.462	154.395	316.474	100.785	328.643	84.809	383.448	343.028	228.046	315.793	169.608	359.618	114.337	157.825	153.657	346.993	0.00062118	0.0008955	0.00055948	420.41	3.3684e-06	1.2277e-06	485.18	205.36	5.7315e-06	1.1494e-05	245.49	110.99	107.35	62.043	1.2086e-05	63.391	0.0044342	0.0047402	0.0013333	609.98	5.127e-05	5.2877e-05	643.62	252.38	5.1819e-05	5.1496e-05	332.88	140.12	145.42	70.001	5.0888e-05	73.828	191.590	133.174	150.144	88.883	152.182	152.352	86.787	94.095	291.643	277.094	90.430	94.524	98.997	101.633	208.862	97.110	-8191	255	
1182.351	1	1	0	0	0.17585	0.26112	0.13422	0.10189	0.269	0.066988	0.18802	0.099427	0.10639	0.12763	0.33915	0.24027	0.22332	0.35074	0.19877	0.31358	-0.475	-0.4875	-1.4208	-0.66458	-1.0688	-1.1688	-0.58958	-1.4375	-0.85208	-0.59583	-1.5438	-0.99792	-1.2021	-1.5083	-0.72708	-1.5083	109.486	356.928	389.170	88.594	420.240	365.789	358.131	220.946	430.214	198.965	402.225	92.438	421.938	378.868	346.045	293.352	0.00052955	0.0012308	0.000309	423.95	9.7966e-06	8.248e-06	490.53	205.12	3.617e-06	1.1688e-05	246.76	112	107.85	62.145	2.0998e-05	63.407	0.0043646	0.0046563	0.0012919	607.63	5.0356e-05	5.1649e-05	646.43	252.25	5.1052e-05	5.0894e-05	332.69	141.17	145.84	70.213	5.0547e-05	74.167	193.269	413.100	163.153	88.363	288.710	262.771	86.347	94.276	206.936	213.632	90.296	94.442	98.929	101.896	258.201	96.552	-8191	255	
1182.447	1	1	0	0	0.23786	0.27747	0.10386	0.20732	0.052947	0.27421	0.14096	0.17779	0.13221	0.21858	0.082478	0.37285	0.2986	0.50867	0.15121	0.11928	-0.72917	-0.70625	-1.4021	-0.85833	-0.76042	-1.4771	-0.44792	-1.4042	-0.89167	-0.4875	-1.5104	-0.95208	-0.89167	-1.6146	-0.55	-1.3583	294.280	298.051	316.807	277.619	134.515	323.786	261.439	363.860	214.009	240.140	276.220	398.273	366.601	87.078	197.526	99.604	0.000617	0.0005038	0.00035611	429.35	8.8754e-06	1.7078e-05	489.5	205.9	8.2327e-06	1.9739e-05	248.3	112.25	108.15	62.329	9.169e-06	63.622	0.0043323	0.0046082	0.0012827	608.67	5.0114e-05	5.0919e-05	645.96	251.83	5.0893e-05	5.0257e-05	332.96	141.07	145.4	70.011	4.9609e-05	73.987	166.856	124.270	123.035	88.495	98.201	305.640	86.658	94.510	209.046	212.839	90.253	94.362	98.779	101.926	174.257	97.221	-8191	255	
1182.545	1	1	0	0	0.17073	0.26926	0.02859	0.15993	0.056168	0.10372	0.11809	0.021247	0.14731	0.077672	0.065483	0.25192	0.29657	0.095624	0.27639	0.27995	-0.68333	-0.475	-1.3729	-0.86667	-0.97917	-1.1604	-0.71667	-1.3417	-1.2083	-0.45	-1.5708	-1.025	-0.96042	-1.4979	-0.68958	-1.2146	92.138	423.679	354.790	267.915	249.347	334.037	430.968	410.187	249.384	175.012	387.656	372.028	225.993	429.238	379.369	360.000	0.00050011	0.00074487	0.00014505	426.11	5.0242e-06	9.0135e-06	492.97	206.53	2.1409e-06	7.5242e-06	248.78	112.09	107.19	61.928	4.9558e-06	63.2	0.0042069	0.0045021	0.0012508	604.59	4.8832e-05	4.9353e-05	642.72	250.93	4.9543e-05	4.91e-05	330.84	139.85	144.54	69.664	4.9319e-05	73.426	189.668	370.153	360.285	88.580	141.847	179.775	87.025	94.255	349.820	179.371	90.202	94.733	99.304	102.001	395.153	97.140	-8191	255	
1182.664	1	1	0	0	0.12642	0.25429	0.038222	0.088125	0.19791	0.046395	0.20591	0.091688	0.14817	0.077227	0.20388	0.21673	0.12391	0.16708	0.010287	0.25303	-0.8875	-0.59375	-1.1958	-0.85833	-0.68542	-1.5792	-0.72292	-1.0271	-1.2125	-0.375	-1.675	-1.0146	-0.95417	-1.6292	-0.79583	-0.91458	225.258	397.513	188.281	106.599	392.739	275.055	352.212	189.876	275.501	329.190	355.635	333.029	125.231	415.386	218.578	312.415	0.00042689	0.0011446	0.00035627	423.51	1.0602e-05	1.2981e-05	490.07	206.6	8.9391e-06	5.237e-06	244.77	111.63	107.63	61.871	1.3611e-05	62.646	0.0041688	0.004457	0.0012357	601.41	4.8238e-05	4.8628e-05	639.01	250.39	4.8975e-05	4.9504e-05	329.51	139.9	144.75	69.541	5.0774e-05	73.285	200.492	83.188	117.822	88.694	312.891	273.727	86.648	93.967	375.307	358.843	90.032	94.167	98.716	101.891	177.333	97.359	-8191	255	
1182.760	1	1	0	0	0.11235	0.27861	0.042182	0.17667	0.25652	0.23541	0.069954	0.33567	0.23565	0.21293	0.16625	0.13401	0.16199	0.16413	0.084257	0.11364	-1.1187	-0.4875	-1.3438	-1.1708	-0.78542	-1.2646	-0.91458	-1.0083	-1.3438	-0.51042	-1.3271	-1.0458	-0.66042	-1.5292	-0.84167	-0.75625	115.941	185.688	81.862	137.331	302.454	333.255	224.563	385.269	153.044	305.106	348.720	296.170	150.837	116.956	427.075	356.504	0.00052321	0.00025622	0.00033808	424.29	5.4685e-06	6.5682e-06	488.29	204.79	3.1806e-06	1.0258e-05	245.35	109.93	107.05	60.973	7.0207e-06	62.126	0.004283	0.0046504	0.0012934	613.01	5.1216e-05	5.2044e-05	651.9	253.02	5.2972e-05	5.3931e-05	337.61	142.26	148.16	69.688	5.6142e-05	74.108	184.204	179.258	130.989	88.654	182.387	231.204	86.449	94.101	230.190	197.388	89.939	94.381	98.489	101.853	161.582	96.803	-8191	255	
1182.831	1	1	0	0	0.25515	0.069325	0.10829	0.46796	0.17602	0.055466	0.14472	0.027713	0.15752	0.17009	0.35383	0.26929	0.46051	0.20543	0.22036	0.20018	-1.1333	-0.48958	-1.1917	-1.1083	-0.50625	-1.425	-0.9875	-0.89375	-1.3979	-0.73333	-1.2208	-1.1125	-0.61875	-1.5542	-0.82292	-0.93542	185.485	351.389	399.228	95.490	292.558	255.652	245.314	268.322	406.845	365.357	308.844	418.424	323.389	382.695	173.984	263.695	0.00035704	0.0023402	0.00032018	422	9.3401e-06	2.054e-05	493.67	204.66	4.8441e-06	1.5746e-05	245.64	109.24	105.87	60.037	8.1648e-06	61.141	0.0046979	0.0051451	0.001431	628.7	5.5689e-05	5.5958e-05	665.91	255.83	5.5092e-05	5.6549e-05	342.38	142.73	148.85	69.276	5.8004e-05	73.683	196.319	115.759	222.556	87.993	215.563	133.593	86.116	94.064	214.018	227.390	89.996	94.286	98.834	102.320	167.634	97.202	-8191	255	
1182.952	1	1	0	0	0.19351	0.17789	0.2098	0.20652	0.16533	0.21203	0.18438	0.15487	0.080946	0.16281	0.20217	0.20101	0.26125	0.14019	0.11535	0.10481	-1.0917	-0.6	-1.0542	-1.2625	-0.41667	-1.3042	-1.0875	-0.91875	-1.4104	-0.71875	-0.99792	-1.4688	-0.48125	-1.3813	-1.2667	-0.83333	336.399	111.141	164.175	320.782	146.896	149.078	342.245	131.745	373.673	146.607	308.967	400.171	380.247	388.115	154.016	364.346	0.00029775	0.00057063	0.00016492	425.33	6.3209e-06	1.9261e-05	489.65	202.08	3.8535e-06	1.6684e-05	242.6	108.2	104.77	58.996	1.4685e-06	59.591	0.0048374	0.0053293	0.0014723	636.14	5.7625e-05	5.8009e-05	671.21	256.81	5.7425e-05	5.9207e-05	343.81	142.78	149.98	68.608	6.083e-05	72.855	199.204	403.596	87.451	89.010	228.620	204.495	86.850	94.587	338.132	88.476	90.466	94.893	98.727	102.305	89.837	97.432	-8191	255	
1183.048	1	1	0	0	0.27732	0.18273	0.073858	0.07809	0.1504	0.18315	0.19494	0.23791	0.02985	0.052971	0.098197	0.11978	0.14769	0.34979	0.3017	0.063694	-1.0458	-0.72917	-0.92708	-1.6125	-0.5125	-1.2458	-1.2958	-0.66458	-1.2271	-0.75625	-0.8875	-1.5646	-0.75417	-1.1187	-1.4375	-0.65625	88.855	284.651	416.831	328.239	285.743	417.391	397.336	339.671	312.469	258.802	155.719	217.173	82.447	376.298	167.844	115.956	0.0007297	0.0006035	0.00056076	418.76	1.0291e-05	1.5252e-05	484.17	200.04	9.5394e-06	1.4083e-05	238.58	106.03	103.28	57.907	1.152e-05	58.427	0.005108	0.0056481	0.0015571	643.65	6.1022e-05	6.0794e-05	676.19	256.86	5.9905e-05	6.1622e-05	343.94	141.2	149.81	67.706	6.101e-05	71.898	186.812	240.729	225.824	88.655	341.385	213.123	86.641	94.785	342.872	367.115	90.117	95.341	99.503	102.304	321.077	97.627	-8191	255	
1183.144	1	1	0	0	0.25972	0.083082	0.24365	0.19037	0.098954	0.15041	0.12303	0.20187	0.10054	0.078049	0.032878	0.21423	0.25751	0.15264	0.02062	0.17278	-0.92708	-0.86875	-0.63333	-1.5583	-0.7	-1.0812	-1.4438	-0.65208	-1.4292	-1.1021	-0.82917	-1.625	-0.78333	-1.1938	-1.4771	-0.52917	333.130	105.144	222.636	382.142	396.728	364.767	83.367	387.791	173.588	329.771	216.666	355.321	96.223	407.968	337.639	379.504	0.00052337	0.00074588	0.00037591	418.16	6.5029e-06	1.8206e-05	476.43	200.07	1.2746e-05	6.9394e-06	234.88	104.98	103.28	57.536	1.3871e-05	58.191	0.0051144	0.0056821	0.0015617	645.08	6.2314e-05	6.2438e-05	678.58	258.64	6.2837e-05	6.4912e-05	347.06	142.61	152.25	67.703	6.4241e-05	72.199	172.178	203.811	164.743	88.678	197.223	144.688	87.165	94.827	285.644	264.676	90.952	95.595	99.166	102.340	304.167	97.772	-8191	255	
1183.263	1	1	0	0	0.20243	0.4681	0.1637	0.34921	0.12268	0.083582	0.20802	0.19816	0.14114	0.1476	0.26698	0.22063	0.35633	0.21072	0.18392	0.2422	-1.0021	-1.0729	-0.79583	-1.4813	-0.65208	-1.025	-1.5146	-0.56458	-1.3458	-1.0312	-0.75625	-1.6187	-0.89583	-0.87292	-1.525	-0.89167	246.994	424.834	308.390	84.117	321.124	161.748	287.075	398.202	257.530	86.470	101.322	333.178	373.362	369.405	205.763	400.645	0.0004618	0.0010215	0.00010217	417.55	1.1051e-05	1.4031e-05	482.61	200.41	7.873e-06	9.4724e-06	237.97	106.48	103.67	58.065	6.1932e-06	58.729	0.0052992	0.0058247	0.0015872	646.15	6.2202e-05	6.1659e-05	674.89	257.23	5.9779e-05	6.1638e-05	342.49	141.34	149.61	67.551	5.9486e-05	72.175	190.382	417.302	137.374	88.877	204.444	144.596	87.352	95.080	275.713	242.576	91.380	95.276	99.035	103.003	323.531	98.260	-8191	255	
1183.359	1	1	0	0	0.16143	0.06375	0.10149	0.065218	0.28562	0.080906	0.33649	0.22033	0.3236	0.2466	0.16058	0.21398	0.18843	0.37125	0.048074	0.07778	-0.82708	-1.1604	-0.54167	-1.5604	-1.0146	-0.7625	-1.3917	-0.92917	-1.0917	-1.3583	-0.4625	-1.5792	-0.97083	-0.88542	-1.4083	-0.82708	188.294	274.223	248.108	142.331	153.288	222.387	234.030	379.072	421.671	427.230	161.153	101.328	413.571	406.562	263.301	171.955	0.00040286	0.00040453	0.00057877	418.8	6.3598e-06	1.2995e-05	477.5	199.11	9.9856e-06	1.235e-05	236.69	105.14	102.38	57.67	1.5494e-05	58.27	0.0050399	0.0056222	0.0015545	643.05	6.2379e-05	6.204e-05	675.48	258.64	6.1808e-05	6.3474e-05	346.82	142.44	151.68	67.71	6.3019e-05	72.531	195.560	200.617	245.277	89.319	295.845	82.498	86.405	93.838	293.257	103.924	89.346	94.381	98.361	102.117	217.232	97.266	-8191	255	
1183.456	1	1	0	0	0.10271	0.15825	0.084117	0.08359	0.32326	0.0085079	0.13359	0.47701	0.18179	0.0721	0.083427	0.15949	0.27918	0.14957	0.1364	0.30378	-0.72708	-1.2042	-0.56875	-1.5063	-0.88333	-0.85833	-1.5271	-0.82917	-1.0438	-1.3438	-0.66875	-1.525	-1.1729	-0.75208	-1.4042	-0.83333	267.385	158.698	86.998	266.901	297.501	112.639	327.071	89.561	153.335	129.019	251.665	299.248	87.533	219.252	185.967	386.350	0.00037844	0.00044503	4.4012e-05	411.76	7.2684e-06	1.9296e-05	476.66	197.28	1.3505e-05	1.6206e-05	236.5	104.56	102.23	57.719	9.0841e-06	58.344	0.005337	0.0059006	0.0016464	651.91	6.536e-05	6.5077e-05	679.94	258.73	6.3092e-05	6.3999e-05	345.77	141.03	150.08	67.45	5.9855e-05	71.657	174.379	316.031	184.623	88.826	155.766	154.652	86.716	94.207	237.413	306.814	90.041	94.677	99.047	102.485	177.883	97.196	-8191	255	
1183.527	1	1	0	0	0.10125	0.097454	0.14275	0.20224	0.21178	0.095793	0.2104	0.23189	0.10271	0.04226	0.24482	0.11515	0.11694	0.38931	0.16341	0.22725	-0.59375	-1.2125	-0.54583	-1.2083	-1.1958	-0.65208	-1.8042	-0.76042	-1.1375	-1.4125	-0.6625	-1.3458	-1.2687	-0.75208	-1.3	-1.0479	213.059	120.590	91.632	252.429	401.561	208.783	95.911	349.513	267.574	88.665	431.484	432.667	172.086	391.560	316.944	409.340	0.00047812	0.0025374	0.00025132	413.57	9.8099e-06	3.3818e-05	472.68	198.72	7.6053e-06	1.2091e-05	233.97	104.5	102.31	57.952	1.7761e-05	58.417	0.0049862	0.0054713	0.0015302	633.92	6.0095e-05	5.9735e-05	660.67	254.35	5.8254e-05	5.9222e-05	338.28	139.16	147.77	67.346	5.7883e-05	71.38	170.119	86.224	136.770	89.050	399.994	189.646	86.570	94.285	422.114	415.721	90.402	94.877	98.745	102.533	274.423	97.283	-8191	255	
1183.648	1	1	0	0	0.065389	0.24953	0.33646	0.1472	0.045613	0.062036	0.27953	0.24404	0.011864	0.090361	0.2105	0.20735	0.16345	0.117	0.34378	0.31483	-0.47917	-1.6208	-0.66667	-1.2396	-1.1708	-0.60833	-1.3167	-0.98333	-0.69375	-1.3917	-0.64167	-1.15	-1.4	-0.65208	-1.4042	-1.1354	105.251	376.460	91.341	345.648	343.710	314.820	87.889	372.321	410.205	415.976	302.174	327.285	411.725	331.656	215.675	417.343	0.00056482	0.00015811	0.00024549	414.45	6.4799e-06	2.7841e-05	475.83	198.97	6.208e-06	2.1439e-05	238.9	107.22	104.34	59.186	5.8803e-06	60.155	0.0047951	0.0051975	0.0014564	620.55	5.5786e-05	5.4982e-05	645.09	250.62	5.2755e-05	5.3551e-05	330.33	137.13	143.57	67.661	5.1698e-05	71.774	175.051	194.736	161.641	88.607	260.940	240.210	86.513	93.699	260.173	199.297	89.559	93.732	98.447	101.706	230.179	96.575	-8191	255	
1183.744	1	1	0	0	0.25977	0.1543	0.25667	0.11112	0.017462	0.12866	0.24015	0.23644	0.20733	0.089151	0.22093	0.082366	0.21668	0.083593	0.10884	0.13413	-0.15208	-1.5438	-0.63542	-1.0958	-1.3229	-0.35417	-1.4229	-1.0312	-0.7625	-1.5292	-0.8125	-1.2292	-1.4562	-0.89583	-1.2167	-1.2271	115.399	174.920	223.351	99.445	224.870	393.045	371.383	344.708	111.922	148.149	417.085	296.867	353.996	358.252	325.419	192.975	0.00041028	0.00070394	0.0003202	418.36	1.4704e-05	1.3107e-05	483.45	201.24	7.5761e-06	1.1195e-05	241.58	109.2	104.68	60.165	8.8073e-06	61.674	0.0043485	0.0046856	0.0013204	601.49	5.0527e-05	5.079e-05	638.24	248.52	4.9753e-05	5.0515e-05	328.91	137.47	142.91	68.117	4.9247e-05	72.177	180.780	252.906	125.035	88.706	242.010	246.106	85.975	93.978	212.244	312.099	90.187	94.022	98.351	101.757	184.052	96.439	-8191	255	
1183.840	1	1	0	0	0.16837	0.20961	0.25679	0.019887	0.22906	0.22604	0.25333	0.14108	0.37485	0.13603	0.19036	0.14289	0.10992	0.27928	0.078587	0.21025	-0.11667	-1.5021	-0.83958	-0.64583	-1.4896	-0.6125	-1.2458	-1.0896	-0.73958	-1.2167	-0.97083	-0.99583	-1.3271	-0.74167	-1.0354	-1.5438	281.601	286.631	96.570	89.766	364.121	208.690	419.650	111.384	375.175	110.563	394.110	243.503	157.324	414.411	356.621	358.792	0.00058737	0.00046195	0.00028259	424.79	1.0409e-05	1.4549e-05	484.62	203.21	5.5733e-06	1.146e-05	242.59	108.8	105.86	60.152	8.8542e-06	61.402	0.0041233	0.0044826	0.0012581	596.02	4.8129e-05	4.8907e-05	632.91	247.2	4.7944e-05	4.8784e-05	325.77	136.26	142.12	68.068	4.8193e-05	71.598	201.475	326.648	199.018	88.475	336.415	287.272	85.950	93.966	229.205	347.397	89.523	93.797	98.512	101.372	206.617	96.454	-8191	255	
1183.936	1	1	0	0	0.14106	0.056024	0.095817	0.45586	0.16887	0.11457	0.45509	0.14313	0.19998	0.3759	0.11156	0.16906	0.14295	0.39343	0.42856	0.28881	-0.13958	-1.4979	-0.7875	-0.825	-1.4271	-0.64792	-1.2396	-1.4521	-0.54167	-1.2229	-0.9875	-0.79583	-1.5333	-0.80417	-1.0208	-1.6229	82.523	131.683	187.590	387.178	326.338	346.548	349.841	81.347	417.286	205.525	223.728	331.605	138.366	403.864	411.894	299.177	0.00041076	0.0013321	4.7538e-05	417.26	5.2218e-06	8.1902e-06	481.9	201.88	1.9365e-06	2.3652e-06	240.45	108.31	106.05	60.32	7.7445e-06	61.265	0.0040622	0.0043638	0.0012376	590.11	4.7354e-05	4.8338e-05	627.7	246.05	4.6834e-05	4.7205e-05	321.2	135.37	140.99	68.018	4.6536e-05	71.177	167.431	409.534	413.356	88.030	435.234	338.353	85.935	93.665	110.216	139.039	89.442	93.649	97.977	101.157	192.779	96.414	-8191	255	
1184.032	1	1	0	0	0.16669	0.24324	0.12326	0.23623	0.21868	0.16036	0.14445	0.24707	0.31161	0.14168	0.21258	0.2407	0.167	0.062175	0.20208	0.4047	-0.11042	-1.2667	-1.0229	-0.80417	-1.4458	-0.9375	-1.0562	-1.5396	-0.61042	-1.2646	-1.3292	-0.56875	-1.5375	-0.77292	-1.0312	-1.4479	419.166	293.301	84.967	349.165	181.135	406.797	87.044	362.086	421.527	116.673	407.013	392.974	317.840	407.023	89.617	333.207	0.0004801	0.0010263	0.00037616	419.03	7.1277e-06	1.7537e-05	479.35	201.88	8.0824e-06	7.8413e-06	242.57	108.46	105.68	60.854	9.86e-06	62.325	0.0039676	0.0042755	0.0012028	586.08	4.6566e-05	4.7357e-05	621.04	244.53	4.5996e-05	4.6054e-05	320.22	134.87	139.76	68.212	4.452e-05	71.706	193.414	248.368	355.644	87.900	311.437	176.444	86.202	93.329	271.114	399.263	89.745	93.679	97.727	101.076	144.054	96.143	-8191	255	
1184.129	1	1	0	0	0.21779	0.15083	0.2098	0.18314	0.0218	0.28488	0.091032	0.1056	0.207	0.15094	0.10847	0.21194	0.23774	0.098745	0.037926	0.281	-0.42708	-1.2542	-1.1667	-0.71667	-1.3083	-0.84792	-0.83125	-1.8	-0.60833	-1.2292	-1.4417	-0.63958	-1.4979	-0.99167	-0.65208	-1.4271	337.812	312.162	329.730	261.460	193.455	371.447	127.192	365.431	215.276	157.457	275.642	87.578	431.723	109.696	283.428	325.996	0.00049748	0.001571	6.9191e-05	419	9.5206e-06	2.186e-05	482.63	202.49	7.4131e-06	7.9396e-06	243.35	110.56	105.93	61.157	9.2354e-06	62.144	0.0038129	0.004077	0.0011485	580.66	4.4578e-05	4.5782e-05	619.99	244.91	4.5061e-05	4.4737e-05	319.57	135.68	139.34	68.458	4.3757e-05	71.856	194.422	175.413	351.768	87.417	268.389	236.737	85.935	93.244	194.999	289.588	89.376	93.642	97.836	100.880	232.237	96.029	-8191	255	
1184.225	1	1	0	0	0.1327	0.32567	0.28973	0.31245	0.13171	0.042523	0.13111	0.26586	0.27039	0.18772	0.15576	0.1183	0.029085	0.16486	0.18046	0.38071	-0.18125	-1.0562	-1.0958	-0.56667	-1.2208	-0.71458	-0.79167	-1.4583	-0.52292	-1.0896	-1.5542	-0.45833	-1.4562	-1.1667	-0.56875	-1.55	135.243	224.380	219.108	348.201	278.303	303.275	326.938	372.205	256.362	406.799	132.606	367.179	290.895	419.174	109.415	293.130	0.00057742	0.00037763	0.00069563	422.12	2.4991e-06	8.4386e-06	484.13	202.64	1.1731e-05	1.0696e-05	244.65	111.32	106.54	61.646	2.467e-06	63.34	0.0037522	0.0039809	0.0011185	579.31	4.3186e-05	4.4009e-05	617.99	243.79	4.3316e-05	4.299e-05	318.47	135.61	138.97	68.535	4.2807e-05	72.046	189.377	133.600	184.330	87.630	187.999	103.568	85.973	93.189	226.626	252.979	89.384	93.364	98.134	101.084	159.860	96.363	-8191	255	
1184.345	1	1	0	0	0.12378	0.08027	0.20863	0.12225	0.14274	0.27867	0.15883	0.086084	0.16986	0.062487	0.073436	0.11542	0.14381	0.40571	0.15371	0.19835	-0.38333	-0.76042	-1.2583	-0.47292	-1.1667	-0.91667	-0.76042	-1.2771	-1.0667	-0.73958	-1.5229	-0.60833	-1.2313	-1.3208	-0.73958	-1.325	416.898	379.964	319.020	234.301	89.823	404.850	355.399	109.274	324.722	302.504	96.249	134.776	408.780	420.471	430.229	391.167	0.00045046	0.00047889	0.0002033	421.36	3.698e-06	1.5444e-05	486.46	203.15	7.2567e-06	4.6324e-06	244.16	110.74	107.09	61.442	1.8009e-06	62.485	0.0037132	0.0039407	0.0011145	580.12	4.3007e-05	4.3757e-05	618.3	244.03	4.3098e-05	4.2725e-05	317.31	134.9	138.77	68.141	4.2947e-05	71.368	208.995	110.264	129.263	87.538	302.790	281.402	85.908	93.350	293.946	259.174	89.228	93.370	98.073	100.977	217.263	96.212	-8191	255	
#DATA ENDS
