BOXY.EXE: ISS Imagent and Oximeter Data Acquisition Program Version 0.80
Ascii Record File

#ACQ INFORMATION
2  Detector Channels 
16  External MUX Channels 
1  Auxiliary Channels 
5000  Waveform (CCF) Frequency (Hz)
1  Waveforms Skipped 
30  Waveforms Averaged 
1  Cycles Averaged 
16  Acquisitions per Waveform 
10.0806  Updata Rate (Hz) 

#FILE INFORMATION
TRUE -- External MUX Channel results are PARSED.
FALSE -- AC DC and Phase are NOT grouped.
TRUE -- Companion Program Settings File CREATED.
FALSE -- AC data not excluded
FALSE -- DC data not excluded
FALSE -- Phase data not excluded
FALSE -- Auxillary Chn. data not excluded
Tab delimiters

#CALIBRATION STATE
TRUE -- Waveform Calibration Values APPLIED.


#AUX CALIBRATION VALUES
Val Type	aux-1	

Term	1.0000e+00	
Factor	0.0000e+00	


#WF CALIBRATION VALUES
A = Detector Channel
Val Type	A-AC1	A-AC2	A-AC3	A-AC4	A-AC5	A-AC6	A-AC7	A-AC8	A-AC9	A-AC10	A-AC11	A-AC12	A-AC13	A-AC14	A-AC15	A-AC16	A-DC1	A-DC2	A-DC3	A-DC4	A-DC5	A-DC6	A-DC7	A-DC8	A-DC9	A-DC10	A-DC11	A-DC12	A-DC13	A-DC14	A-DC15	A-DC16	A-Ph1	A-Ph2	A-Ph3	A-Ph4	A-Ph5	A-Ph6	A-Ph7	A-Ph8	A-Ph9	A-Ph10	A-Ph11	A-Ph12	A-Ph13	A-Ph14	A-Ph15	A-Ph16	

Term	0.00000e+00	0.00000e+00	0.00000e+00	0.00000e+00	0.00000e+00	0.00000e+00	0.00000e+00	0.00000e+00	0.00000e+00	0.00000e+00	0.00000e+00	0.00000e+00	0.00000e+00	0.00000e+00	0.00000e+00	0.00000e+00	0.00000e+00	0.00000e+00	0.00000e+00	0.00000e+00	0.00000e+00	0.00000e+00	0.00000e+00	0.00000e+00	0.00000e+00	0.00000e+00	0.00000e+00	0.00000e+00	0.00000e+00	0.00000e+00	0.00000e+00	0.00000e+00	0.00000e+00	0.00000e+00	0.00000e+00	0.00000e+00	0.00000e+00	0.00000e+00	0.00000e+00	0.00000e+00	0.00000e+00	0.00000e+00	0.00000e+00	0.00000e+00	0.00000e+00	0.00000e+00	0.00000e+00	0.00000e+00	
Factor	1.00000e+00	1.00000e+00	1.00000e+00	1.00000e+00	1.00000e+00	1.00000e+00	1.00000e+00	1.00000e+00	1.00000e+00	1.00000e+00	1.00000e+00	1.00000e+00	1.00000e+00	1.00000e+00	1.00000e+00	1.00000e+00	1.00000e+00	1.00000e+00	1.00000e+00	1.00000e+00	1.00000e+00	1.00000e+00	1.00000e+00	1.00000e+00	1.00000e+00	1.00000e+00	1.00000e+00	1.00000e+00	1.00000e+00	1.00000e+00	1.00000e+00	1.00000e+00	X	X	X	X	X	X	X	X	X	X	X	X	X	X	X	X	

B = Detector Channel
Val Type	B-AC1	B-AC2	B-AC3	B-AC4	B-AC5	B-AC6	B-AC7	B-AC8	B-AC9	B-AC10	B-AC11	B-AC12	B-AC13	B-AC14	B-AC15	B-AC16	B-DC1	B-DC2	B-DC3	B-DC4	B-DC5	B-DC6	B-DC7	B-DC8	B-DC9	B-DC10	B-DC11	B-DC12	B-DC13	B-DC14	B-DC15	B-DC16	B-Ph1	B-Ph2	B-Ph3	B-Ph4	B-Ph5	B-Ph6	B-Ph7	B-Ph8	B-Ph9	B-Ph10	B-Ph11	B-Ph12	B-Ph13	B-Ph14	B-Ph15	B-Ph16	

Term	0.00000e+00	0.00000e+00	0.00000e+00	0.00000e+00	0.00000e+00	0.00000e+00	0.00000e+00	0.00000e+00	0.00000e+00	0.00000e+00	0.00000e+00	0.00000e+00	0.00000e+00	0.00000e+00	0.00000e+00	0.00000e+00	0.00000e+00	0.00000e+00	0.00000e+00	0.00000e+00	0.00000e+00	0.00000e+00	0.00000e+00	0.00000e+00	0.00000e+00	0.00000e+00	0.00000e+00	0.00000e+00	0.00000e+00	0.00000e+00	0.00000e+00	0.00000e+00	-2.04106e+02	-1.47295e+02	-1.31471e+02	-1.83006e+02	-1.05308e+02	-9.56335e+01	-1.57489e+02	-1.62015e+02	-1.04563e+02	-3.96514e+01	-1.72066e+02	-1.71987e+02	-1.87133e+02	-1.76833e+02	-7.95936e+01	-1.54913e+02	
Factor	7.03256e-05	1.41041e-04	4.05673e-05	1.70326e-01	1.62816e-06	1.33254e-06	1.95207e-01	5.96007e-02	1.84989e-06	1.49910e-06	1.05898e-01	4.16366e-02	9.64820e-02	1.05399e-02	1.79118e-06	2.58797e-02	1.57653e-06	1.61043e-06	4.48186e-07	8.61403e-02	1.75392e-08	1.76000e-08	9.27146e-02	3.00841e-02	1.75714e-08	1.76740e-08	5.11745e-02	1.99295e-02	4.41448e-02	5.29322e-03	1.75939e-08	1.20619e-02	X	X	X	X	X	X	X	X	X	X	X	X	X	X	X	X	



#DISTANCE SETTINGS
A = Detector Channel
A-1	A-2	A-3	A-4	A-5	A-6	A-7	A-8	A-9	A-10	A-11	A-12	A-13	A-14	A-15	A-16	

2.5000e+00	3.0000e+00	2.5000e+00	3.0000e+00	2.0000e+00	3.0000e+00	1.5000e+00	3.0000e+00	3.0000e+00	3.0000e+00	3.0000e+00	3.0000e+00	3.0000e+00	3.0000e+00	1.5000e+00	3.0000e+00	

B = Detector Channel
B-1	B-2	B-3	B-4	B-5	B-6	B-7	B-8	B-9	B-10	B-11	B-12	B-13	B-14	B-15	B-16	

1.0000e+01	1.0000e+01	1.0000e+01	1.4400e+00	1.0000e+01	1.0000e+01	1.5100e+00	1.9400e+00	1.0000e+01	1.0000e+01	1.9900e+00	2.4900e+00	2.4100e+00	2.9000e+00	1.0000e+01	2.9800e+00	




#DATA BEGINS
time	group	step	mark	flag	A-AC1	A-AC2	A-AC3	A-AC4	A-AC5	A-AC6	A-AC7	A-AC8	A-AC9	A-AC10	A-AC11	A-AC12	A-AC13	A-AC14	A-AC15	A-AC16	A-DC1	A-DC2	A-DC3	A-DC4	A-DC5	A-DC6	A-DC7	A-DC8	A-DC9	A-DC10	A-DC11	A-DC12	A-DC13	A-DC14	A-DC15	A-DC16	A-Ph1	A-Ph2	A-Ph3	A-Ph4	A-Ph5	A-Ph6	A-Ph7	A-Ph8	A-Ph9	A-Ph10	A-Ph11	A-Ph12	A-Ph13	A-Ph14	A-Ph15	A-Ph16	B-AC1	B-AC2	B-AC3	B-AC4	B-AC5	B-AC6	B-AC7	B-AC8	B-AC9	B-AC10	B-AC11	B-AC12	B-AC13	B-AC14	B-AC15	B-AC16	B-DC1	B-DC2	B-DC3	B-DC4	B-DC5	B-DC6	B-DC7	B-DC8	B-DC9	B-DC10	B-DC11	B-DC12	B-DC13	B-DC14	B-DC15	B-DC16	B-Ph1	B-Ph2	B-Ph3	B-Ph4	B-Ph5	B-Ph6	B-Ph7	B-Ph8	B-Ph9	B-Ph10	B-Ph11	B-Ph12	B-Ph13	B-Ph14	B-Ph15	B-Ph16	aux-1	digaux	

1571.722	1	1	0	512	0.30856	0.15925	0.33877	0.28735	0.12099	0.078156	0.39193	0.1889	0.10339	0.2076	0.039053	0.40506	0.064268	0.13983	0.25334	0.23294	-2	-1.9896	-1.9521	-2.2	-1.6667	-1.9542	-2.2146	-1.9917	-2.1646	-2.0271	-1.825	-2.3521	-1.8625	-2.1188	-2.2604	-1.9021	175.037	316.717	361.105	369.156	225.522	157.000	399.169	352.558	178.119	311.652	232.730	386.646	265.742	79.147	148.693	266.331	0.0022243	0.00069624	0.00022971	910.5	5.6132e-06	3.5069e-06	1225.1	367.98	1.1175e-05	3.5665e-06	605.39	259.85	154.15	71.231	1.1956e-05	135.57	0.0013617	0.0013449	0.00037675	934.75	1.467e-05	1.4761e-05	1232.1	372.49	1.4694e-05	1.4782e-05	607.12	257.02	166.28	71.539	1.4856e-05	133.1	75.105	93.063	163.728	67.374	148.713	411.929	66.952	71.744	270.208	303.306	70.657	74.156	75.597	79.473	204.374	78.058	-8191	255	
1571.843	1	1	0	0	0.10639	0.17078	0.093999	0.27976	0.17402	0.33134	0.16636	0.22651	0.11704	0.18023	0.11317	0.17337	0.054168	0.098156	0.17725	0.46464	-1.8479	-1.7292	-1.6437	-2.1458	-1.4958	-1.7833	-2.3875	-1.7229	-1.9375	-1.7812	-1.8062	-2.1917	-1.8917	-2.0812	-2.2542	-1.9562	118.071	69.376	267.408	400.405	224.879	301.533	260.976	374.254	112.199	249.625	240.286	402.349	357.414	89.378	247.025	54.408	0.0021473	0.0013172	0.00010438	908.76	9.5353e-06	1.2135e-05	1221.1	368	8.9309e-06	1.4231e-05	606.3	259.89	152.46	70.478	3.0423e-06	134.67	0.0013769	0.0013663	0.00038175	932.96	1.4961e-05	1.5113e-05	1229.2	372.92	1.5067e-05	1.5039e-05	608.69	257.21	166.84	71.245	1.5171e-05	132.5	82.025	139.762	159.361	67.496	235.899	373.882	67.038	71.625	181.238	168.138	70.475	74.300	75.129	79.338	114.721	77.837	-8191	255	
1571.939	1	1	0	0	0.094851	0.2641	0.17513	0.067402	0.15549	0.35333	0.25753	0.36009	0.013415	0.068037	0.25304	0.070195	0.4266	0.13208	0.063938	0.36039	-1.5938	-1.9	-1.6979	-2.3458	-1.8396	-1.8188	-2.0708	-1.6771	-1.9104	-2.1167	-1.8021	-2.1708	-1.8583	-1.9229	-2.1146	-1.7521	217.694	310.712	241.571	75.690	222.952	286.384	381.074	365.465	314.237	155.064	290.956	328.223	199.353	412.393	299.893	367.417	0.0022744	0.00062264	4.8591e-05	904.46	9.0524e-06	7.5381e-06	1204.5	365.77	1.1568e-05	9.3018e-06	599.74	255.55	150.81	69.208	1.0469e-05	131.56	0.0014071	0.001398	0.00038992	932.1	1.5269e-05	1.5299e-05	1222.5	371.74	1.5194e-05	1.5205e-05	601.96	253.13	164.96	69.865	1.5146e-05	129.81	80.929	79.465	232.854	67.687	127.527	272.905	66.908	71.540	204.050	125.575	70.722	74.227	75.052	79.537	215.250	77.957	-8191	255	
1572.035	1	1	0	0	0.010511	0.20539	0.16328	0.11896	0.050024	0.093787	0.4291	0.12645	0.076314	0.14044	0.33241	0.26946	0.029091	0.44355	0.10902	0.34069	-1.5333	-2.1521	-1.6854	-2.0875	-1.8417	-1.6146	-2.2479	-1.7708	-1.9375	-2.1479	-1.8479	-2.2729	-2.0417	-1.8	-2.2417	-2.1292	133.269	79.972	255.551	65.425	279.086	141.518	379.822	395.697	110.623	410.690	361.058	104.995	344.438	376.238	229.954	382.504	0.0019447	0.00050182	0.00024785	904.84	7.4684e-06	1.162e-05	1203.8	364.17	1.0796e-05	7.3074e-06	596.02	256.15	150.75	70.606	9.5479e-06	135.17	0.0013845	0.0013739	0.00037861	928.1	1.4795e-05	1.4661e-05	1217.7	369.84	1.4845e-05	1.4706e-05	601.55	254.43	165.06	71.138	1.456e-05	132.56	90.783	102.031	148.336	65.141	197.285	120.958	64.357	69.271	165.521	215.117	68.535	72.553	72.844	77.169	199.872	76.380	-8191	255	
1572.132	1	1	0	0	0.12792	0.033812	0.21373	0.20572	0.09554	0.2698	0.1767	0.16694	0.20408	0.16474	0.16847	0.19433	0.23199	0.47805	0.034765	0.15911	-1.8458	-2.2375	-1.9	-2.2396	-2.0021	-1.6708	-2.3458	-1.9083	-1.8563	-2.0021	-1.8021	-2.2396	-1.9229	-1.775	-2.075	-2.0458	120.489	230.275	104.961	374.984	206.163	90.919	210.316	64.416	111.240	73.754	367.612	396.858	357.440	324.175	332.328	101.350	0.0026146	0.00051806	0.00013491	908.57	1.371e-05	1.3537e-05	1217.8	368.74	7.9758e-06	8.2532e-06	606.31	259.52	153.62	71.224	1.1512e-05	135.08	0.001343	0.0013239	0.00036737	929.53	1.4266e-05	1.4413e-05	1223.7	372.8	1.4361e-05	1.4356e-05	606.1	256.71	165.69	71.6	1.435e-05	132.84	83.120	116.139	187.284	67.273	151.704	195.813	66.914	71.652	117.299	283.996	70.537	74.269	74.928	79.503	155.180	77.667	-8191	255	
1572.228	1	1	0	0	0.27691	0.094765	0.49635	0.33219	0.23681	0.2317	0.13108	0.22426	0.0083643	0.24101	0.24533	0.11949	0.21957	0.32632	0.27183	0.29484	-1.3937	-2.0146	-1.7354	-2.1771	-1.9271	-1.9396	-2.2938	-1.975	-1.8854	-2.2229	-2.0458	-2.1562	-2.2104	-1.7958	-2.2979	-2.1896	313.178	126.152	181.923	92.063	290.951	330.958	399.371	68.332	360.238	145.027	394.880	237.137	96.024	399.851	148.347	315.948	0.0025707	0.0011227	7.4482e-05	907.89	1.1752e-05	5.2148e-06	1208.6	367.05	1.1819e-05	8.1552e-06	607.93	259	152.96	71.877	1.1614e-05	136.05	0.0013238	0.0013126	0.00036468	930.09	1.4342e-05	1.4251e-05	1223.8	372.71	1.4413e-05	1.4429e-05	608.26	257.05	166.13	72.056	1.4577e-05	133.76	77.446	154.416	151.246	67.317	151.577	95.977	65.361	70.333	182.955	179.153	69.147	73.167	73.805	78.377	239.803	76.694	-8191	255	
1572.324	1	1	0	0	0.20354	0.23532	0.051601	0.28892	0.13701	0.15442	0.26814	0.14297	0.15383	0.048621	0.12581	0.18155	0.029278	0.17879	0.046949	0.3888	-1.475	-2.0938	-1.7271	-2.2167	-2.2	-1.9125	-2.5687	-2.2188	-1.9312	-2.2438	-1.9021	-1.9896	-2.1688	-1.7792	-2.1021	-2.2812	111.193	155.071	185.373	326.168	242.520	128.038	304.290	145.933	135.839	328.254	377.677	377.332	298.961	393.885	61.726	394.961	0.0024863	0.00085783	2.1301e-05	899.79	5.6421e-06	6.8753e-06	1209.9	368.45	3.1492e-06	5.0043e-06	603.77	258.98	152.12	71.327	1.1924e-05	133.99	0.0013342	0.0013222	0.00036665	925.35	1.4313e-05	1.4249e-05	1220.3	372	1.4416e-05	1.4456e-05	605.95	255.9	164.62	71.304	1.415e-05	131.71	78.250	382.284	294.688	67.411	273.883	111.735	67.167	71.670	73.215	262.751	70.634	74.404	75.081	79.638	188.107	77.587	-8191	255	
1572.420	1	1	0	0	0.12269	0.18975	0.14069	0.16324	0.014662	0.060849	0.43124	0.13453	0.17644	0.28616	0.2184	0.12379	0.16275	0.17224	0.1243	0.23343	-1.2687	-2.3021	-1.9479	-2.0187	-2.3083	-1.7021	-2.1917	-2.0958	-1.5875	-2.3042	-2.3688	-2.0104	-2.4042	-2.0812	-2.1063	-2.2917	137.817	375.928	228.256	295.633	354.828	116.721	346.008	371.655	258.750	130.203	355.338	349.645	216.117	392.673	267.003	349.200	0.0022393	0.00042367	0.00053334	896.75	8.5358e-06	7.9475e-06	1198.5	362.51	5.1587e-06	2.5065e-06	596.08	254.52	151.3	69.66	1.6172e-05	132.81	0.001294	0.0012932	0.00035849	915.09	1.3859e-05	1.3856e-05	1204.6	365.85	1.3638e-05	1.3808e-05	595.67	251.33	162.22	70.015	1.3748e-05	129.81	87.019	409.079	154.026	67.597	140.805	196.020	66.722	71.688	164.370	223.961	70.189	74.228	74.970	79.281	155.405	77.880	-8191	255	
1572.539	1	1	0	0	0.064311	0.13301	0.40855	0.35787	0.2443	0.35827	0.20849	0.40266	0.040128	0.20882	0.045693	0.20642	0.146	0.13115	0.2903	0.026782	-1.3937	-2.1042	-1.9729	-1.9146	-2.1333	-1.8479	-1.9146	-2.0854	-1.5917	-1.9813	-2.0438	-1.8542	-2.1917	-1.9562	-1.9104	-2.175	400.830	352.619	341.982	82.117	95.398	131.902	376.696	351.320	249.966	378.907	398.120	407.243	218.417	350.825	215.575	338.224	0.0022678	0.0013132	0.00033298	894.19	1.2148e-05	3.3738e-06	1198.7	364.08	4.7945e-06	9.3516e-06	602.88	258.7	153.16	71.276	1.3888e-05	136.18	0.0012689	0.0012621	0.00035064	912.52	1.3637e-05	1.3645e-05	1203.7	367.41	1.355e-05	1.3739e-05	600.7	254.6	163.13	71.434	1.3551e-05	132.73	77.638	109.198	171.824	67.358	172.678	335.046	66.811	71.773	413.722	327.729	70.502	74.262	75.574	79.447	184.320	77.737	-8191	255	
1572.635	1	1	0	0	0.03691	0.14351	0.28108	0.071896	0.13597	0.26046	0.29553	0.13179	0.16447	0.1029	0.33473	0.13405	0.14267	0.30264	0.11703	0.2461	-1.25	-1.7958	-2.0187	-1.9896	-2.3896	-1.9021	-2.3146	-2.4958	-1.9354	-2.2958	-2.3083	-1.8375	-2.0563	-2.1813	-2.1667	-2.4333	393.029	357.745	107.336	255.243	369.989	178.828	322.321	350.257	305.370	226.488	231.773	330.163	341.767	57.319	196.944	385.845	0.0028217	0.00075446	0.00021154	899.53	8.0573e-06	1.1354e-05	1213	370.88	1.5632e-05	1.0587e-05	613.5	264.1	156.89	73.801	1.2761e-05	139.28	0.0012417	0.0012329	0.00034015	914.93	1.3379e-05	1.3248e-05	1213.1	372.66	1.3225e-05	1.3385e-05	610.48	260.03	165.78	73.426	1.3264e-05	135.72	66.828	157.144	159.262	67.291	164.857	150.202	66.996	71.531	179.739	214.522	70.432	74.250	74.261	79.247	250.529	77.969	-8191	255	
1572.731	1	1	0	0	0.025451	0.31443	0.2623	0.18069	0.17196	0.028864	0.35183	0.31866	0.34212	0.13738	0.30186	0.22625	0.27257	0.20507	0.016232	0.25498	-1.4625	-2.2354	-2.1292	-1.9896	-2.3312	-1.7938	-2.0875	-2.2604	-1.7167	-2.1229	-2.3187	-2.0479	-2.4792	-2.1562	-2.1937	-2.5333	377.553	175.125	84.702	351.894	234.500	158.393	401.162	297.378	250.594	109.907	360.597	392.969	407.465	353.734	199.948	249.550	0.0026567	0.0015221	0.00010578	904.13	1.8216e-05	4.7091e-06	1217.6	374.33	2.8265e-06	5.1355e-06	617.46	267.54	158.49	74.507	1.1934e-05	140.52	0.0012196	0.0012204	0.00033458	918.47	1.3115e-05	1.3171e-05	1221.6	375.51	1.3184e-05	1.3352e-05	615.27	263.02	166.96	74.256	1.3344e-05	137.11	82.860	90.492	384.798	67.537	143.876	350.503	66.858	71.529	102.551	236.972	70.506	74.338	75.089	79.483	178.951	77.873	-8191	255	
1572.827	1	1	0	0	0.20816	0.08345	0.16699	0.30298	0.094433	0.035292	0.16576	0.23805	0.17232	0.28833	0.1356	0.18307	0.15062	0.25609	0.21873	0.12856	-1.5271	-2.2271	-2.0625	-1.8021	-2.1458	-1.9396	-2.0438	-2.4813	-1.9854	-1.9146	-2.2667	-1.7271	-2.2875	-2.0563	-2.025	-2.2646	126.537	167.292	396.785	400.314	345.192	363.972	303.298	391.805	52.128	78.464	356.183	401.837	267.963	358.896	289.807	373.911	0.0023153	0.00062968	0.0001924	902.73	1.101e-05	3.7101e-06	1222.6	371.55	2.4146e-06	5.5997e-06	614.19	265.12	157.73	74.481	1.0388e-05	140.21	0.0012337	0.0012186	0.00033991	920.04	1.338e-05	1.3299e-05	1225.5	374.89	1.3426e-05	1.3423e-05	614.25	262.05	166.95	74.251	1.3186e-05	136.61	80.677	233.308	92.142	65.654	177.094	120.953	64.886	69.571	122.943	252.237	67.780	71.883	72.470	77.144	149.049	75.611	-8191	255	
1572.923	1	1	0	0	0.15787	0.33954	0.10511	0.187	0.036775	0.050906	0.17585	0.29401	0.20171	0.23752	0.092451	0.18794	0.16048	0.098352	0.23676	0.035027	-1.4354	-1.6667	-2.1562	-1.7625	-2.0958	-2.1854	-1.9396	-2.5042	-1.9813	-2.0125	-2.4146	-1.925	-2.2188	-2.1188	-1.5833	-2.3417	364.178	200.594	408.057	76.889	150.033	271.618	246.445	379.452	269.286	57.858	87.166	97.277	53.931	351.159	229.978	238.603	0.0025884	0.0011125	7.1353e-05	908.15	1.1466e-05	8.1439e-06	1217.1	373.58	1.2671e-05	4.4268e-06	618.1	268.17	158.86	75.435	4.1387e-06	141.5	0.0012296	0.0012147	0.00033764	923.08	1.3198e-05	1.3178e-05	1225.7	376.15	1.3189e-05	1.3367e-05	616.37	263.96	168.16	75.185	1.332e-05	138.14	81.438	158.389	189.273	65.127	159.500	321.409	64.597	69.524	131.878	228.645	68.226	72.463	73.069	77.469	251.550	76.197	-8191	255	
1573.020	1	1	0	0	0.060319	0.33767	0.21949	0.17482	0.16868	0.10501	0.15572	0.30585	0.17852	0.30766	0.11271	0.23877	0.18587	0.078985	0.1651	0.070961	-1.7729	-1.8813	-2.4875	-2.0354	-2.0854	-2.2833	-2.1021	-2.2562	-1.8854	-2.0146	-2.6396	-2.0938	-2.0625	-2.3063	-1.7271	-2.3125	132.038	154.332	205.534	97.996	120.515	226.103	173.124	396.755	140.373	392.278	383.434	377.188	349.107	134.596	305.932	312.756	0.0027742	0.000229	0.00018247	904.97	7.7808e-06	2.0783e-06	1225.9	377.64	1.0689e-05	1.3704e-05	626.4	272.36	160.28	76.417	1.2886e-05	143.74	0.0012396	0.0012314	0.00034366	926.03	1.3424e-05	1.3424e-05	1230	379.59	1.3475e-05	1.347e-05	622.09	266.93	169.39	76.098	1.365e-05	139.7	83.697	203.920	409.411	67.557	174.753	339.201	66.889	71.436	211.574	211.185	70.482	74.379	75.245	79.102	250.733	77.853	-8191	255	
1573.140	1	1	0	0	0.14251	0.21642	0.17538	0.061891	0.31513	0.22206	0.2623	0.20467	0.086211	0.12271	0.30062	0.17437	0.32126	0.12817	0.14808	0.14959	-1.7229	-1.9042	-2.4062	-2.3292	-2.2167	-2.3833	-1.9833	-2.5333	-1.8417	-1.8646	-2.4604	-2.1	-1.9458	-2.5917	-1.8646	-2.2292	367.621	372.465	308.147	330.754	144.736	217.398	264.695	388.209	117.922	228.572	303.836	103.572	335.241	68.113	127.249	113.843	0.0017256	0.00059862	0.00010439	906.48	1.4714e-05	1.0745e-05	1228.3	379.67	4.611e-06	1.3275e-05	629.1	274.7	163.49	77.551	1.0974e-05	145.42	0.001284	0.0012547	0.00035269	924.59	1.3854e-05	1.3892e-05	1232	382.44	1.393e-05	1.4027e-05	628.39	270.24	173.23	77.695	1.3897e-05	141.75	95.572	144.555	57.279	67.733	174.365	169.341	66.885	71.572	241.475	195.230	70.042	74.175	75.069	79.038	73.153	77.674	-8191	255	
1573.236	1	1	0	0	0.41915	0.24811	0.17011	0.276	0.12303	0.096572	0.26205	0.1041	0.089816	0.13153	0.13999	0.10734	0.10972	0.24961	0.13022	0.31178	-1.5438	-1.7667	-2.2708	-2.1083	-2.0229	-2.4188	-2.1625	-2.15	-2.05	-1.7792	-2.1896	-2.1354	-1.975	-2.4729	-1.9583	-2.3792	401.569	354.133	170.443	337.772	305.296	131.005	276.780	62.605	281.223	104.044	67.058	109.570	119.763	374.615	76.233	369.350	0.0025869	0.0017373	0.0004375	903.87	1.1633e-05	3.1945e-06	1227.4	379.74	2.5306e-05	7.3762e-06	627	272.77	161.86	76.583	1.9411e-05	141.88	0.0012922	0.0012763	0.00035647	924.05	1.3957e-05	1.3993e-05	1229.5	381.53	1.401e-05	1.4157e-05	625.02	268.03	171.56	76.485	1.4253e-05	138.82	84.299	113.137	125.554	67.281	164.025	138.595	66.880	71.579	166.835	235.535	70.242	74.080	75.074	79.121	247.638	77.791	-8191	255	
1573.331	1	1	0	0	0.16104	0.14961	0.21452	0.057269	0.055172	0.056085	0.28689	0.16931	0.16547	0.24799	0.17685	0.22043	0.1678	0.38733	0.096113	0.12361	-1.7333	-1.8375	-2.1042	-2.2062	-1.7437	-2.1042	-1.8354	-2.2604	-1.9458	-1.5417	-2.3792	-2.125	-2.0042	-2.4354	-1.9104	-2.0792	77.351	231.618	329.132	191.178	296.149	326.118	354.987	407.229	303.726	286.276	398.029	320.433	359.558	390.520	369.539	412.645	0.0022828	0.00064306	0.00027924	895.95	4.5729e-06	5.7999e-06	1201.7	372.03	6.0923e-06	9.6304e-06	611.1	263.43	156.77	73.851	7.1599e-06	136.86	0.0013175	0.0013077	0.00036801	917.58	1.4396e-05	1.4528e-05	1211.5	375.91	1.4534e-05	1.4664e-05	612.43	260.42	169.33	73.842	1.4723e-05	134.91	84.156	153.740	140.227	67.179	108.723	226.961	66.829	71.536	181.249	175.270	70.563	74.086	75.208	79.466	222.230	75.644	-8191	255	
1573.404	1	1	0	0	0.13234	0.19399	0.057096	0.27123	0.069505	0.14817	0.18946	0.1008	0.19585	0.066745	0.22963	0.091969	0.21234	0.2294	0.19886	0.19262	-1.9021	-1.7167	-2.2125	-2.3312	-2.0604	-2.3438	-2.2417	-2.0521	-2.2604	-1.9375	-2.1458	-2.1979	-1.8167	-2.5438	-2.0563	-2.1354	310.675	177.935	283.658	386.740	359.947	267.441	132.938	306.394	177.002	384.204	281.707	277.663	66.967	323.495	214.650	319.289	0.0022575	0.0012187	0.00019151	889.93	6.9493e-06	3.0524e-06	1198.7	368.89	1.6904e-05	8.2271e-06	608.08	263.01	155.67	73.252	8.2433e-06	138.27	0.0013579	0.0013484	0.00037366	914.2	1.4435e-05	1.4544e-05	1207.4	372.99	1.42e-05	1.4138e-05	609	258.93	166.09	73.172	1.3829e-05	134.86	82.010	56.004	149.908	65.686	179.061	137.944	66.919	71.632	198.396	219.850	70.459	74.366	75.229	79.154	190.058	77.785	-8191	255	
1573.523	1	1	0	0	0.19416	0.18046	0.15173	0.17524	0.23268	0.33131	0.37389	0.13986	0.21199	0.12545	0.33816	0.22513	0.14671	0.29288	0.16874	0.42676	-1.9396	-1.85	-2.0833	-2.2208	-1.675	-2.0104	-2.0396	-1.8458	-2.3563	-1.9937	-2.2938	-2.2625	-1.8375	-2.4062	-2.0542	-2.075	116.307	339.667	92.415	102.355	363.278	204.923	330.691	325.235	319.328	379.570	199.136	390.572	156.102	75.785	173.013	354.743	0.0020965	0.00050975	0.00029806	895.42	8.9961e-06	5.0467e-06	1214.2	375.45	1.05e-05	5.2457e-06	621.86	271.61	161.43	76.383	8.8936e-06	143.38	0.0012766	0.001258	0.00035083	914.92	1.3475e-05	1.3575e-05	1220.3	376.67	1.3445e-05	1.3402e-05	618.35	265.47	168.66	75.973	1.3214e-05	139.29	91.415	64.431	152.711	67.620	188.844	292.298	66.781	71.600	241.449	147.297	70.537	74.295	74.948	79.031	123.487	75.843	-8191	255	
1573.619	1	1	0	0	0.15822	0.2124	0.13994	0.038169	0.085807	0.24918	0.11401	0.11153	0.094418	0.248	0.26566	0.089553	0.24323	0.17565	0.086389	0.26197	-1.9708	-1.8979	-2.0979	-2.2583	-1.9271	-2.2104	-2.2333	-2.0875	-2.2604	-1.9375	-1.975	-2.2417	-1.7188	-2.0833	-1.9667	-1.9937	167.699	114.492	363.127	265.914	65.453	352.537	133.898	351.774	69.781	196.088	367.691	372.789	213.121	343.925	279.368	310.905	0.0026883	0.00062267	0.00015038	902.15	5.4499e-06	2.9992e-06	1227.4	375.93	8.3718e-06	5.7611e-06	624.54	272.96	161.48	77.09	1.9827e-05	143.98	0.0012215	0.0012009	0.00033608	919.5	1.3024e-05	1.3138e-05	1230.2	378.62	1.3148e-05	1.3109e-05	623.07	268.22	169.46	76.647	1.2859e-05	139.96	75.009	164.191	177.220	64.601	160.008	387.987	64.370	68.974	177.561	238.404	67.827	71.616	72.316	77.046	186.229	75.499	-8191	255	
1573.715	1	1	0	0	0.13465	0.16385	0.20746	0.32381	0.13458	0.17015	0.17326	0.32048	0.16734	0.080998	0.093874	0.10948	0.23477	0.46973	0.22992	0.21064	-1.9271	-2.2062	-2.0312	-2.3229	-1.7104	-1.8854	-2.0062	-1.7833	-2.2833	-1.8188	-1.8521	-2.5021	-1.9708	-2.2042	-2.1958	-2.2	100.325	136.446	213.099	59.471	231.332	308.629	332.318	373.886	210.709	407.440	333.393	404.365	271.742	345.434	100.200	272.786	0.001635	0.0010731	0.00013637	909.49	5.8138e-06	6.1753e-06	1232.4	373.25	1.3824e-05	6.6787e-06	619.08	267.34	158.33	75.253	7.1042e-06	141.51	0.0011973	0.0011896	0.00032982	922.63	1.3027e-05	1.301e-05	1230	375.96	1.3108e-05	1.3208e-05	616.57	262.8	166.75	74.76	1.3236e-05	137.16	89.383	109.500	87.636	65.256	251.176	161.276	65.242	69.443	218.371	266.905	70.022	74.014	74.841	79.023	350.582	77.833	-8191	255	
1573.812	1	1	0	0	0.36794	0.079837	0.064242	0.28776	0.21263	0.16535	0.10039	0.14714	0.087598	0.34376	0.19653	0.080667	0.15463	0.3085	0.042486	0.18334	-1.9042	-2.1271	-1.7792	-2.2958	-1.6313	-1.8896	-2.1417	-1.7979	-2.3208	-2.2583	-1.9729	-2.4542	-2.0375	-2.1688	-2.1667	-1.8646	212.770	53.706	378.126	365.167	65.507	299.223	72.070	270.229	118.252	125.884	55.856	370.486	65.769	381.062	228.171	150.159	0.0021749	0.00063769	0.00027778	904.05	7.4626e-06	1.0062e-05	1221.5	372.25	2.261e-06	5.5151e-06	616	267.04	157.64	74.595	1.0592e-05	141.59	0.0012315	0.0012014	0.00033373	921.83	1.3007e-05	1.3114e-05	1222.4	374.66	1.3187e-05	1.3188e-05	613.89	262.08	166.29	74.444	1.3192e-05	137.28	73.651	165.474	136.914	66.407	176.007	213.031	66.722	71.517	122.160	186.798	70.221	74.126	75.069	79.183	125.428	77.657	-8191	255	
1573.932	1	1	0	0	0.18176	0.18778	0.1998	0.2988	0.24298	0.050441	0.33435	0.20743	0.28002	0.073613	0.16522	0.2235	0.18451	0.15087	0.25963	0.31311	-1.6458	-2.1458	-1.7146	-2.3438	-2.0125	-2.0479	-2.65	-1.8792	-2.1562	-2.0542	-1.9729	-2.4458	-1.9	-2.025	-2.3688	-1.8833	257.340	343.014	65.714	390.790	205.031	256.169	364.145	67.433	323.842	103.915	407.847	62.321	361.427	385.196	230.938	349.853	0.0025786	0.001509	0.00012267	907.48	1.8012e-05	5.147e-06	1234.5	373.8	9.5543e-06	1.0603e-05	622.91	268.95	159.6	75.173	1.4523e-05	141.41	0.0012243	0.0012039	0.00033344	921.14	1.3172e-05	1.3117e-05	1232.7	376.22	1.3156e-05	1.3105e-05	617.93	263.85	167.27	75.001	1.3034e-05	137.36	91.217	106.062	138.132	67.384	158.302	188.837	66.882	71.497	94.562	253.388	70.281	74.081	74.732	79.302	187.937	77.611	-8191	255	
1574.028	1	1	0	0	0.13348	0.17455	0.25904	0.20778	0.049346	0.30629	0.3433	0.13877	0.11737	0.20989	0.19734	0.20793	0.27851	0.27258	0.24769	0.34058	-1.8042	-2.0958	-1.8229	-2.35	-1.7812	-1.8021	-2.1625	-1.8104	-2.0563	-2.0146	-1.7042	-2.25	-2.0438	-2.0104	-2.1646	-1.7521	172.279	193.352	378.552	58.459	260.133	350.710	299.346	394.081	210.834	246.684	138.206	359.053	76.062	388.986	175.876	362.841	0.0022821	0.00098868	0.00015549	906.28	7.1746e-06	7.1726e-06	1228.7	372.9	6.3931e-06	9.0515e-06	615.27	266.71	158.11	74.231	1.4124e-05	141.06	0.0012072	0.0011837	0.00032926	921.68	1.298e-05	1.2933e-05	1229.7	374.31	1.2929e-05	1.2938e-05	614.26	262.18	165.76	74.148	1.3124e-05	137.09	94.897	73.635	159.407	66.301	300.445	129.720	64.987	69.041	106.397	117.626	67.857	71.662	72.631	76.667	241.315	75.096	-8191	255	
1574.100	1	1	0	0	0.14505	0.15219	0.44843	0.32287	0.028192	0.23894	0.26317	0.074929	0.039373	0.16035	0.11537	0.33732	0.20032	0.19532	0.36253	0.36441	-1.4708	-2.1229	-1.6313	-2.3979	-2.1958	-1.8354	-2.0812	-1.7896	-1.9312	-2.2208	-1.85	-2.1813	-2.0229	-1.8979	-2.3	-1.9979	74.821	288.837	103.154	55.110	172.128	289.158	328.490	261.711	109.380	139.208	186.732	345.487	312.972	301.554	60.220	393.480	0.0021207	0.00058752	8.8401e-05	906.45	2.2254e-05	1.5498e-05	1222	369.15	1.2632e-05	1.8505e-05	614.59	263.88	154.75	72.925	1.1369e-05	137.86	0.0012122	0.0012012	0.00033681	923.04	1.3224e-05	1.3257e-05	1226.4	373.33	1.3245e-05	1.3299e-05	611.63	259.98	164.61	72.966	1.3404e-05	134.25	80.816	282.975	135.500	64.838	190.275	287.610	64.241	69.061	191.716	197.170	67.943	71.673	72.279	76.871	220.636	74.895	-8191	255	
1574.221	1	1	0	0	0.32859	0.076272	0.09317	0.29565	0.07897	0.13487	0.22194	0.17006	0.13316	0.13986	0.15494	0.23364	0.4315	0.48126	0.1672	0.19767	-1.4271	-1.9396	-1.4979	-1.8854	-1.9854	-1.6292	-2.2562	-1.8875	-1.7208	-2.1292	-1.7792	-2.1042	-1.9625	-1.6958	-2.1562	-1.9917	344.588	368.765	156.704	73.967	161.136	188.632	377.833	68.817	163.661	188.836	299.567	363.059	67.334	54.773	57.892	407.845	0.002257	0.00069582	0.00021516	896.02	1.0078e-05	1.0036e-05	1204	365.97	1.5116e-05	8.2374e-06	602.47	256.46	151.9	70.932	2.9638e-06	134.66	0.0012433	0.0012225	0.00034226	916.17	1.3333e-05	1.3424e-05	1212.1	368.46	1.3432e-05	1.3375e-05	602.29	253.72	162.24	71.149	1.323e-05	131.79	79.811	154.507	115.957	65.032	206.977	114.196	64.325	69.162	183.641	243.665	68.052	71.797	72.699	76.668	180.911	75.510	-8191	255	
1574.317	1	1	0	0	0.096116	0.10837	0.16929	0.20758	0.14847	0.43938	0.28397	0.16001	0.33896	0.22188	0.10909	0.32042	0.19195	0.2723	0.12787	0.1889	-1.3958	-2.2875	-1.8833	-2.2042	-1.9937	-1.8375	-2.3417	-1.9792	-1.7979	-2.2833	-2.0708	-2.025	-2.0667	-1.8521	-2.1646	-2.3396	371.016	265.284	359.127	103.326	398.316	103.059	381.664	404.818	196.961	350.433	119.258	356.267	214.578	297.757	75.056	371.915	0.0022347	0.00052144	0.00022349	890.97	2.8451e-06	9.0255e-06	1207.7	366.7	1.5511e-05	5.8436e-06	610.74	263.32	157.45	74.453	1.0935e-05	140.38	0.0012298	0.0012101	0.00033697	911.41	1.3137e-05	1.3228e-05	1209.8	368.81	1.31e-05	1.325e-05	607.66	259.12	165.05	74.089	1.3227e-05	136.6	83.533	182.193	228.792	64.865	407.117	228.081	64.763	69.796	243.092	56.598	70.291	74.500	74.902	79.412	215.174	77.865	-8191	255	
1574.413	1	1	0	0	0.28535	0.060388	0.21604	0.134	0.14073	0.16271	0.3545	0.34573	0.10151	0.085034	0.34803	0.23793	0.054432	0.23493	0.14049	0.18408	-1.4125	-2.0833	-1.9542	-1.9167	-2.1479	-1.7604	-2.3271	-2.4417	-1.8354	-2.3479	-2.1854	-2.1312	-2.0312	-2.025	-2.1854	-2.3812	257.517	219.800	376.182	331.451	246.536	268.956	398.749	350.064	112.138	290.018	402.617	75.980	80.695	88.702	405.477	84.876	0.0020508	0.0013043	0.00045713	901.92	6.6986e-06	8.4882e-06	1223	376.05	1.7763e-05	5.4308e-06	630.65	274.8	164.19	79.616	1.9425e-05	148.18	0.0012172	0.0011961	0.00033502	917.02	1.3011e-05	1.3022e-05	1225.3	377.86	1.2878e-05	1.2996e-05	625.05	269.92	170.91	78.707	1.2945e-05	143.41	88.413	124.975	196.440	67.543	175.635	103.853	66.816	71.550	191.524	256.644	70.384	74.045	74.643	79.332	191.318	77.900	-8191	255	
1574.509	1	1	0	0	0.35285	0.25461	0.10476	0.10465	0.26279	0.3565	0.088629	0.10866	0.14792	0.072556	0.26633	0.16328	0.25573	0.082512	0.17204	0.37178	-1.5729	-2.2646	-1.7771	-1.7938	-2.0938	-1.9937	-2.4292	-2.3771	-1.7083	-1.9667	-2.1958	-2.0583	-2.4375	-1.9167	-2.0729	-2.2354	101.559	289.870	81.354	159.219	173.052	125.753	292.127	330.129	301.967	291.805	364.293	389.490	89.832	411.183	143.124	382.568	0.0028868	0.00010864	8.8287e-05	907.93	9.3138e-06	3.1466e-06	1240.9	383.68	6.9236e-06	1.5127e-05	639.92	280.24	165.06	80.72	1.8781e-05	150.96	0.0012025	0.001187	0.00032889	923.98	1.2941e-05	1.2971e-05	1240.9	384.14	1.2891e-05	1.2988e-05	635.13	274.69	172.27	80.079	1.2958e-05	145.25	82.055	195.953	381.394	67.549	200.954	181.093	66.619	71.714	171.357	264.529	70.270	73.969	74.931	79.286	184.773	77.815	-8191	255	
1574.628	1	1	0	0	0.24097	0.14146	0.18712	0.29247	0.086392	0.071589	0.18012	0.2842	0.034573	0.16349	0.30045	0.11975	0.16476	0.34491	0.131	0.10048	-1.4521	-2.1604	-1.8563	-1.7917	-2.4583	-2.0292	-2.3771	-2.6729	-1.6	-2.0771	-2.2583	-2.1083	-2.2938	-1.9562	-1.8625	-2.1521	153.249	296.176	103.076	387.782	330.370	72.555	394.047	314.463	80.732	380.284	387.918	70.446	285.567	364.142	84.826	104.739	0.0023372	0.000952	0.00033159	917.23	1.2013e-05	1.4464e-05	1245.8	383.27	1.4667e-05	1.5051e-05	640.66	280.07	167.1	81.857	9.4461e-06	152.21	0.0011964	0.0011889	0.00033031	929.19	1.3068e-05	1.3052e-05	1244.4	385.04	1.3131e-05	1.3215e-05	635.47	275.1	174.55	81.154	1.3327e-05	146.71	74.236	115.300	72.308	67.472	179.378	172.132	66.777	71.458	184.735	332.546	70.314	73.977	74.602	79.163	193.432	77.858	-8191	255	
1574.700	1	1	0	0	0.16658	0.23307	0.053509	0.12165	0.22562	0.11802	0.31693	0.13974	0.24015	0.13854	0.10965	0.21664	0.12777	0.3825	0.068336	0.10747	-1.325	-2.2125	-2.175	-1.9	-2.2521	-1.7708	-1.9479	-2.5125	-1.8813	-2.1292	-2.0979	-1.5708	-2.2521	-2.1729	-2.3292	-2.4771	283.911	370.636	230.699	388.861	215.971	239.951	341.192	322.395	198.102	342.342	348.963	352.418	130.745	55.891	355.589	386.778	0.0022428	0.00096374	0.00013915	912.77	1.3853e-05	8.0752e-06	1242.1	390.38	7.6432e-06	5.0552e-06	650.72	288.11	173.99	85.767	1.9243e-05	157.5	0.0012336	0.0012283	0.00034073	929.87	1.3357e-05	1.3276e-05	1245	391.2	1.3284e-05	1.3464e-05	646.17	282.5	179.7	84.705	1.3396e-05	151.87	83.099	78.675	118.330	67.452	176.074	177.436	66.769	71.501	154.491	315.313	70.369	73.901	75.016	78.995	204.705	77.658	-8191	255	
1574.820	1	1	0	0	0.055483	0.19699	0.12186	0.048515	0.3342	0.071806	0.19108	0.30766	0.11395	0.13972	0.18405	0.18989	0.20357	0.27652	0.19979	0.42901	-1.3042	-2.0312	-2.1667	-1.8771	-2.0438	-2.0146	-2.0458	-2.6	-1.8479	-2.0958	-2.2729	-1.7437	-1.8542	-2.2979	-1.8083	-2.4437	57.827	307.835	153.121	409.680	229.584	169.633	69.872	388.113	135.360	209.307	310.718	384.034	366.062	398.148	279.858	383.440	0.0026551	0.00086656	0.00015094	921.18	7.658e-06	1.1265e-05	1257.1	396.19	1.6629e-05	9.9116e-06	661.71	294.65	176.6	87.772	1.0233e-05	160.52	0.0012408	0.0012265	0.00034127	935.17	1.3308e-05	1.3355e-05	1260.6	398.2	1.3376e-05	1.3361e-05	656.28	288.53	183.17	86.757	1.3315e-05	154.86	81.986	132.425	149.708	67.382	410.950	219.264	66.744	71.295	242.014	158.805	70.291	74.030	74.809	79.215	193.356	77.561	-8191	255	
1574.916	1	1	0	0	0.32384	0.13955	0.19407	0.20942	0.18355	0.060649	0.38215	0.10194	0.12639	0.1354	0.27111	0.25951	0.068781	0.050335	0.24206	0.10353	-1.2521	-1.8687	-1.9813	-1.7521	-2.1562	-2.1854	-1.9896	-2.1437	-1.6812	-1.8813	-2.3104	-1.6812	-2.2417	-2.3271	-2.0271	-2.325	162.825	248.982	108.183	124.585	72.322	321.431	329.838	83.201	120.917	204.049	381.680	382.468	163.627	400.859	318.674	312.598	0.0027119	0.0015386	0.00016566	919.93	3.5338e-06	1.0167e-05	1271.3	400.55	1.0342e-05	5.9085e-06	666.07	297.03	177.23	87.978	1.9565e-05	160.89	0.0012357	0.0012205	0.00034298	940.39	1.3471e-05	1.3564e-05	1270.1	402.39	1.3552e-05	1.3703e-05	662.8	290.89	184.12	87.071	1.3797e-05	155.47	78.265	141.881	173.616	67.384	313.584	184.639	66.563	71.575	166.946	141.079	70.252	74.075	74.742	79.348	224.315	77.962	-8191	255	
1575.013	1	1	0	0	0.25852	0.07786	0.19944	0.21896	0.29132	0.11162	0.096716	0.16571	0.15904	0.28838	0.048821	0.39103	0.27529	0.2592	0.13411	0.11065	-1.3729	-1.6917	-2.2604	-1.7583	-1.9688	-2.0917	-1.8792	-2.4437	-2.2313	-1.9833	-2.3875	-2.0542	-2.1104	-2.3146	-1.775	-2.2542	149.537	350.245	60.410	323.571	193.731	338.535	79.214	328.302	72.992	407.493	275.053	393.551	299.693	60.649	83.833	403.248	0.0033018	0.0011185	0.00031535	929.17	1.2341e-05	7.6858e-06	1268.2	402.24	1.4367e-05	8.2114e-06	662.14	296.26	176.43	87.189	1.3581e-05	159.09	0.0012906	0.0012611	0.0003512	945.12	1.3759e-05	1.387e-05	1272	402.43	1.3776e-05	1.3787e-05	661.29	289.19	184.05	86.47	1.3781e-05	154.52	86.563	54.389	202.384	67.444	129.589	190.987	66.957	71.290	261.845	266.602	70.246	73.893	74.696	79.078	200.095	77.761	-8191	255	
1575.109	1	1	0	0	0.18767	0.17309	0.15238	0.28687	0.23304	0.043223	0.22488	0.37013	0.072821	0.14717	0.24845	0.20381	0.26123	0.32451	0.1314	0.27502	-1.6354	-1.7104	-2.1708	-2.15	-2.2	-2.1792	-1.7042	-2.2042	-2.125	-1.7771	-2.3021	-1.8729	-1.9354	-2.3646	-1.9292	-2.5396	72.760	220.884	381.206	81.677	332.752	331.011	323.549	306.933	115.948	121.142	373.848	363.092	356.568	51.386	80.044	349.456	0.0027406	8.4148e-05	0.00013094	926.38	1.3635e-05	4.2955e-06	1263	404.23	2.8166e-05	1.1964e-05	668.89	298.52	179.99	89.75	9.4691e-06	162.27	0.0012835	0.0012639	0.00035444	943.65	1.3772e-05	1.3895e-05	1269.7	406.13	1.3769e-05	1.3906e-05	667.12	293.46	187.59	88.831	1.3899e-05	157.42	68.706	208.496	262.586	67.274	260.892	226.219	66.927	68.832	147.794	185.864	67.863	71.185	72.367	76.568	184.360	75.038	-8191	255	
1575.229	1	1	0	0	0.37897	0.22399	0.033555	0.14349	0.1722	0.14741	0.17618	0.11226	0.21185	0.26349	0.2197	0.37481	0.13293	0.36848	0.13998	0.18436	-1.475	-1.4646	-2.2313	-1.9979	-2.0292	-2.3375	-2.0625	-1.9937	-1.8208	-1.7958	-2.1312	-2.2938	-2.1021	-2.3292	-1.6833	-2.2208	303.382	309.500	61.433	194.080	213.002	356.277	383.249	377.022	408.848	211.443	374.618	355.463	292.082	67.472	201.212	386.804	0.0022157	0.00021698	0.0001606	921.47	5.2678e-06	3.2941e-06	1263.4	406.3	6.3859e-06	1.0208e-06	673.27	302.81	181.3	90.176	2.1488e-05	164.9	0.0013004	0.0012735	0.00035394	941.91	1.3804e-05	1.3917e-05	1270.6	408.51	1.3798e-05	1.3839e-05	671.83	295.95	187.98	89.324	1.3848e-05	158.82	78.465	268.939	191.396	64.685	158.994	192.089	64.026	69.039	170.036	295.735	68.218	72.529	74.483	79.257	178.009	77.693	-8191	255	
1575.324	1	1	0	0	0.062921	0.14574	0.2302	0.29421	0.10301	0.17115	0.25371	0.28845	0.18304	0.17948	0.27781	0.17869	0.09534	0.23358	0.050998	0.41189	-1.9375	-1.7354	-2.1646	-2.1958	-1.7583	-2.1792	-1.9229	-2.2188	-2.1896	-1.7271	-2.1937	-2.2229	-2.0458	-2.4708	-1.9188	-2.1125	125.579	129.340	358.760	383.980	131.733	376.674	293.015	403.500	72.586	405.138	378.315	97.784	102.867	359.164	361.178	389.831	0.002762	0.00071563	0.00028622	930	9.4137e-06	4.6291e-06	1277	410.06	1.3922e-05	9.4641e-06	675.84	300.92	180.55	88.91	1.3263e-05	162.87	0.001281	0.0012603	0.00035555	948.05	1.38e-05	1.3862e-05	1279	409.97	1.3741e-05	1.3791e-05	673.17	295.01	186.47	88.148	1.3559e-05	156.88	88.811	216.759	307.243	67.399	130.600	292.220	66.850	71.348	139.016	213.990	70.259	74.105	74.829	79.121	244.613	77.511	-8191	255	
1575.397	1	1	0	0	0.15699	0.068874	0.21084	0.36912	0.19947	0.15654	0.080243	0.18376	0.043827	0.16767	0.1273	0.20654	0.043421	0.36941	0.1607	0.18808	-1.7437	-1.6833	-2.2979	-2.2083	-1.9021	-2.3708	-1.9312	-1.9542	-2.1708	-1.6271	-2.2542	-2.1896	-1.8854	-2.5292	-2.0979	-2.1208	400.434	62.441	273.100	405.486	325.913	75.037	380.309	363.685	83.115	272.818	81.649	396.829	343.194	378.207	112.946	206.388	0.0025914	0.0010057	0.00019829	931.66	1.5874e-05	1.1674e-05	1283	406.82	7.4914e-06	1.0481e-05	671.37	299.22	177.78	86.56	2.4206e-06	159.24	0.0012674	0.001236	0.00034107	951.57	1.3363e-05	1.3286e-05	1284.3	405.71	1.334e-05	1.3319e-05	667.59	291.39	183.03	85.822	1.3297e-05	153.94	76.079	119.995	295.336	67.541	142.337	256.625	66.740	71.517	185.977	264.928	70.388	73.990	74.870	79.223	153.103	77.739	-8191	255	
1575.493	1	1	0	0	0.18279	0.23901	0.17958	0.22234	0.066553	0.34216	0.34824	0.19082	0.074902	0.17937	0.16229	0.47379	0.12499	0.16945	0.16547	0.060101	-1.675	-1.6063	-2.1125	-2.4437	-2.0125	-2.2458	-2.1708	-1.95	-2.2167	-1.7729	-2.0917	-2.2938	-1.7146	-2.4083	-1.9792	-1.9562	285.436	196.390	397.771	326.005	194.881	64.585	398.144	314.142	342.418	68.054	234.901	58.580	387.752	312.013	112.183	213.195	0.0029527	2.1264e-05	0.0005427	934.62	9.8464e-06	4.7137e-06	1277.1	401.51	4.5773e-06	1.2169e-05	666.69	293.23	174.97	85.579	1.3454e-05	157.17	0.0012352	0.0012168	0.00033684	951.05	1.3361e-05	1.3256e-05	1276.7	401.95	1.3175e-05	1.3186e-05	660.45	287.12	180.81	84.758	1.3138e-05	152.08	81.955	260.932	176.809	67.447	262.870	164.392	66.822	71.722	196.861	180.835	70.190	74.053	75.113	79.290	187.013	77.390	-8191	255	
1575.589	1	1	0	0	0.067216	0.080989	0.11978	0.41781	0.15925	0.15511	0.12882	0.051648	0.1683	0.075309	0.10565	0.19382	0.12228	0.26674	0.068314	0.10279	-1.8354	-1.7687	-2.0229	-2.3688	-1.9188	-2.1354	-2.3563	-2.1042	-2.1333	-2.1646	-2.3917	-2.3979	-1.9583	-2.0958	-1.9937	-2.0187	94.343	179.015	60.352	366.560	343.050	153.030	376.305	279.364	328.786	181.035	53.767	384.292	346.162	58.308	336.098	309.598	0.0027643	0.001584	0.00020171	936.74	8.7856e-06	5.6452e-06	1282.3	402.2	8.2972e-06	1.1221e-05	663.44	293.33	174.98	85.38	8.9515e-06	157.4	0.001218	0.0011992	0.0003334	950.18	1.3064e-05	1.3118e-05	1278.6	401.36	1.3273e-05	1.331e-05	659.2	287.21	181.18	84.429	1.3404e-05	152.08	84.853	105.615	189.652	67.394	108.584	238.405	66.922	71.330	86.637	335.775	70.100	73.905	74.714	78.779	215.432	77.240	-8191	255	
1575.708	1	1	0	0	0.19885	0.075802	0.076077	0.22982	0.22701	0.12317	0.076985	0.14129	0.19151	0.066299	0.28798	0.14064	0.10981	0.35063	0.21668	0.024315	-1.9479	-2.05	-1.9354	-2.3812	-1.9083	-2.1292	-2.2354	-1.8708	-2.1667	-1.9354	-2.025	-2.5083	-1.9312	-2.2833	-2.0708	-2.1188	115.832	81.169	406.062	344.349	217.673	177.903	329.150	75.028	204.456	375.408	307.508	300.881	364.063	98.725	76.726	114.901	0.0026778	0.00080784	0.00019802	936.44	1.0027e-05	1.0701e-05	1275.5	399.35	3.896e-06	1.2012e-05	664.7	293.34	173.6	84.864	6.4402e-06	156.87	0.0012491	0.0012172	0.00034366	950.17	1.3236e-05	1.3292e-05	1275.8	399.33	1.321e-05	1.3072e-05	657.7	286.32	179.82	83.84	1.3196e-05	151.6	82.662	125.532	58.612	67.370	134.957	130.798	67.063	71.553	147.804	177.060	70.427	74.091	74.655	79.126	206.300	77.895	-8191	255	
1575.804	1	1	0	0	0.25515	0.047082	0.20292	0.31178	0.44157	0.12589	0.36057	0.029467	0.076824	0.1186	0.13942	0.094702	0.17684	0.26877	0.26432	0.10521	-1.7542	-1.9417	-2.0208	-2.2083	-1.7313	-2.0438	-2.2875	-1.7271	-1.9458	-2.0729	-1.9583	-2.5708	-1.6542	-2.2604	-2.375	-1.825	401.732	311.419	281.884	360.706	106.709	60.023	406.276	87.070	353.523	400.309	87.569	70.134	375.876	116.528	149.547	92.333	0.0019902	0.00096366	0.000173	929.9	1.0933e-05	5.568e-06	1274.8	396.91	1.1269e-05	6.8112e-06	662.84	293	173.19	84.574	1.5793e-05	158.21	0.0012254	0.0012052	0.00033563	947.53	1.3083e-05	1.3139e-05	1276.7	398.29	1.3276e-05	1.3267e-05	658.22	286.78	179.9	83.939	1.324e-05	152.09	80.618	126.251	161.170	67.314	80.028	215.194	66.794	71.364	145.225	203.208	70.302	74.054	74.238	79.130	174.320	77.676	-8191	255	
1575.901	1	1	0	0	0.05295	0.058468	0.32862	0.27847	0.14462	0.17614	0.25281	0.26017	0.041777	0.18642	0.27425	0.11194	0.083967	0.21283	0.056639	0.32894	-1.7354	-2.0708	-1.6396	-2.0958	-1.7521	-1.8937	-2.2125	-1.7833	-2.1354	-2.15	-1.7667	-2.4729	-1.9708	-1.8375	-2.0771	-1.9646	303.747	339.772	291.688	317.388	124.109	376.160	392.274	377.432	293.160	218.073	364.636	315.441	167.109	314.290	141.115	400.907	0.0030638	0.00071609	0.00018105	932.45	8.3459e-06	2.8998e-06	1270.3	394.96	1.0856e-05	8.9421e-06	659.15	289.12	172.35	83.571	1.6239e-05	154.61	0.0012309	0.0012119	0.0003368	947.58	1.3177e-05	1.3173e-05	1271.9	397.01	1.3165e-05	1.3218e-05	654.38	283.83	178.75	82.978	1.3142e-05	149.84	77.318	174.901	131.765	67.337	201.623	170.604	66.936	71.479	200.730	194.586	70.166	73.844	74.580	79.060	217.806	77.838	-8191	255	
1575.997	1	1	0	0	0.10004	0.11737	0.19171	0.20467	0.18675	0.19409	0.10834	0.20582	0.23852	0.046943	0.21434	0.067729	0.2061	0.34675	0.037948	0.26147	-1.5854	-2.1688	-1.7354	-2.3688	-2.0833	-1.9625	-2.4042	-1.9042	-1.9438	-2.1146	-1.7375	-2.3312	-1.9396	-2.1854	-2.2146	-1.8333	197.233	135.706	354.434	367.612	316.242	370.257	187.163	321.888	333.866	190.080	396.425	154.187	380.775	87.442	59.820	350.327	0.0028181	0.0014739	0.00018756	927.98	6.4598e-06	1.3726e-05	1264.6	394.01	2.2797e-05	7.788e-06	654.93	288.25	170.03	82.401	8.8298e-06	152.88	0.0012298	0.001204	0.00033671	943.75	1.3229e-05	1.3281e-05	1265.5	395.21	1.322e-05	1.3356e-05	650.62	282.22	177.09	81.696	1.3194e-05	148.2	89.524	160.762	159.824	67.308	95.631	213.854	66.919	71.471	149.208	224.915	69.795	72.578	73.242	77.230	76.494	75.662	-8191	255	
1576.093	1	1	0	0	0.34896	0.36478	0.17171	0.20763	0.26999	0.33917	0.10407	0.20342	0.038006	0.29242	0.19069	0.085738	0.14657	0.3798	0.24288	0.13503	-1.6958	-2.0042	-1.4875	-2.1042	-2.0979	-1.8479	-2.4479	-2.0187	-1.9042	-2.0542	-1.9167	-2.3625	-2.1625	-2.1625	-2.0792	-2.0708	274.044	147.659	179.159	55.718	220.433	382.527	284.099	74.954	99.557	264.225	391.390	345.763	372.087	64.955	367.253	376.646	0.0033401	0.00080281	0.00015386	922.34	2.3729e-06	1.2587e-05	1258	389.73	5.9885e-06	5.6352e-06	648.06	283.55	167.27	80.783	8.3985e-07	151.68	0.0012271	0.0012047	0.00033481	941.05	1.3255e-05	1.3223e-05	1260.1	390.95	1.3089e-05	1.3202e-05	644.34	278.41	175.03	80.383	1.3134e-05	146.87	84.476	150.423	97.124	64.938	110.692	136.257	64.119	68.769	88.392	365.553	68.009	71.527	72.604	76.829	242.489	75.904	-8191	255	
1576.189	1	1	0	0	0.16264	0.17042	0.041418	0.2293	0.30816	0.037098	0.26367	0.13773	0.030452	0.30302	0.37116	0.16915	0.33407	0.20019	0.21226	0.44558	-1.4396	-2.05	-1.7042	-2.4437	-2.0938	-1.8667	-2.5125	-2.1333	-1.9771	-2.0896	-1.8521	-2.1667	-2.1104	-2.0542	-2.35	-2.2438	86.327	360.593	179.267	68.563	369.416	358.867	375.122	405.331	344.048	55.602	365.050	80.266	93.144	362.798	73.824	337.901	0.00227	0.0017297	0.00025297	926.51	1.4156e-05	4.1111e-06	1261.8	390.68	1.6932e-05	1.0382e-06	652.03	285.82	170.32	82.053	9.7752e-06	153.82	0.0012233	0.0011949	0.00033277	941.33	1.31e-05	1.3037e-05	1261.3	391.54	1.3048e-05	1.3077e-05	647.77	280.42	175.92	81.423	1.2936e-05	149.06	79.072	112.130	132.488	67.326	264.915	210.390	66.817	71.487	197.275	80.687	70.199	74.216	74.793	79.285	166.255	77.852	-8191	255	
1576.310	1	1	0	0	0.22185	0.36603	0.11638	0.095171	0.15643	0.11008	0.2531	0.30142	0.15127	0.24992	0.11456	0.43177	0.1121	0.31702	0.13175	0.24899	-1.5521	-2.4375	-1.9062	-2.0729	-1.9688	-1.4937	-2.3688	-2.3271	-1.8083	-2.2812	-1.9625	-2.2229	-2.2229	-1.9458	-2.175	-2.1979	118.375	184.318	179.552	412.709	87.263	185.532	363.357	383.950	321.741	79.365	364.702	113.804	60.065	352.832	374.309	76.264	0.0024009	0.00073764	0.00038469	929.68	1.6417e-05	6.7694e-06	1268	394.61	5.1188e-07	8.3892e-06	658.4	288.75	170.15	82.319	1.7738e-05	154.51	0.0012055	0.0011822	0.00032861	941.53	1.2859e-05	1.2887e-05	1267.8	394.32	1.2767e-05	1.2751e-05	650.02	282.08	176.05	81.564	1.2819e-05	148.61	88.496	92.600	96.056	67.575	154.626	396.532	66.763	71.417	302.753	191.046	70.122	74.053	74.958	79.275	225.435	77.642	-8191	255	
1576.406	1	1	0	0	0.1799	0.17656	0.18945	0.28046	0.29503	0.097198	0.36384	0.23247	0.023277	0.13974	0.1398	0.086593	0.24218	0.29731	0.17239	0.041931	-1.3833	-2.2854	-1.9896	-2.1104	-2.2021	-1.8771	-2.4375	-2.3688	-1.925	-2.3208	-2.0896	-2.3417	-2.1896	-1.9667	-1.9813	-2.3208	390.381	147.742	346.872	352.595	166.150	114.838	365.066	335.239	343.947	294.399	98.091	359.039	97.028	370.812	356.378	405.110	0.0026387	0.00084617	0.00032038	927.01	8.9448e-06	1.2637e-05	1258.3	389.95	1.0088e-05	5.7674e-06	651.98	285.97	170.3	82.197	4.8263e-06	153.47	0.0011895	0.0011781	0.00032592	940.26	1.2773e-05	1.2856e-05	1262.3	391.58	1.2968e-05	1.296e-05	646.7	280.01	175.91	81.234	1.2983e-05	148.29	83.446	123.904	121.686	66.401	91.182	217.300	65.967	70.299	237.217	272.283	70.257	74.033	74.969	79.218	296.970	77.692	-8191	255	
1576.502	1	1	0	0	0.075562	0.26043	0.18752	0.13279	0.29481	0.32948	0.33227	0.11608	0.16287	0.082088	0.25733	0.22505	0.24106	0.20498	0.1746	0.24371	-1.3375	-2.3521	-1.8771	-2.125	-2.1729	-1.8604	-2.4292	-2.3	-1.8896	-2.1854	-2.1792	-1.9688	-2.2104	-2.0062	-2.1	-2.3104	405.061	281.154	407.731	99.686	68.006	94.658	338.310	304.632	121.624	360.876	369.579	386.523	82.001	398.725	186.937	349.835	0.002554	0.0006457	0.00017471	927.52	1.007e-05	1.1921e-05	1266	391.58	1.1755e-05	1.4893e-05	652.43	287.53	169.6	81.916	1.0253e-05	153.66	0.0012032	0.0011813	0.00032839	940.12	1.2788e-05	1.2785e-05	1262.7	392.13	1.2878e-05	1.2807e-05	646.08	280.78	175.46	81.058	1.2792e-05	148.28	79.745	343.443	147.470	67.416	204.991	215.972	67.023	71.538	142.352	215.935	70.151	74.106	74.716	79.312	196.028	77.716	-8191	255	
1576.598	1	1	0	0	0.23345	0.17916	0.19307	0.12448	0.13402	0.25719	0.077076	0.31767	0.099251	0.29349	0.19258	0.25744	0.044342	0.41516	0.15704	0.11138	-1.3771	-2.2146	-2.1271	-2.175	-2.6104	-1.8875	-2.3271	-2.3042	-1.6854	-2.2062	-2.2271	-1.875	-2.375	-1.975	-1.9583	-2.4062	121.901	133.152	69.988	266.415	410.515	100.608	354.223	353.385	300.718	337.400	365.303	221.054	383.357	352.395	130.756	386.741	0.0027538	0.00091383	0.00045008	927.18	8.8934e-06	2.6278e-06	1274	390.44	2.6965e-05	6.957e-06	653.5	289.24	170.28	81.868	1.5502e-05	154.15	0.0011804	0.0011756	0.00032596	940.67	1.2724e-05	1.2845e-05	1268.4	391.16	1.2835e-05	1.2917e-05	646.99	280.95	175.19	81.031	1.2833e-05	148.87	90.952	71.696	117.859	67.401	238.004	177.729	66.946	71.340	181.733	250.879	70.376	74.130	74.497	79.155	252.478	77.341	-8191	255	
1576.693	1	1	0	0	0.073261	0.32685	0.056423	0.18585	0.15632	0.098279	0.15927	0.10688	0.18389	0.13397	0.5591	0.20102	0.17421	0.098052	0.31513	0.3374	-1.3521	-2.0812	-2.0875	-1.9979	-2.4333	-1.9688	-2.2104	-2.4042	-1.7792	-2.025	-2.4688	-2.1604	-2.4292	-2.2625	-1.8792	-2.4646	216.654	361.739	84.420	346.754	76.117	365.646	375.126	178.888	381.885	334.354	391.618	405.095	271.570	225.764	287.468	396.818	0.0023079	0.00044411	0.00041211	933.38	5.8771e-06	7.3703e-06	1271.6	390.25	1.0937e-05	5.8191e-06	649.15	283.78	165.67	79.584	1.6108e-05	149.73	0.0011963	0.001186	0.00032843	944.59	1.3003e-05	1.2894e-05	1269.6	390.26	1.2949e-05	1.3014e-05	643.25	277.66	172.83	78.9	1.2939e-05	145.08	87.913	114.897	165.867	67.414	194.808	250.406	66.600	71.472	195.500	187.244	70.573	74.083	75.143	79.202	191.143	77.774	-8191	255	
1576.789	1	1	0	0	0.35488	0.20828	0.22322	0.14282	0.18932	0.10153	0.14182	0.032432	0.34776	0.12701	0.30799	0.31758	0.22061	0.2048	0.16333	0.38998	-1.4167	-2.0708	-2.1312	-2	-2.1833	-1.9958	-1.9937	-2.3208	-1.7708	-2.1063	-2.4062	-1.8	-2.2292	-2.1271	-1.7708	-2.4521	174.241	238.067	84.999	410.717	105.335	72.977	366.395	360.796	251.105	366.282	331.052	391.530	58.036	87.124	228.053	361.586	0.0027933	0.00050673	0.00022046	922.32	1.1825e-05	5.6879e-06	1256.4	383.32	1.635e-05	5.7164e-06	637.55	274.81	162.46	77.035	1.3682e-05	146.23	0.0012056	0.001186	0.0003321	939.35	1.3022e-05	1.31e-05	1258.3	384.26	1.2991e-05	1.3134e-05	631.19	270.18	169.93	76.498	1.3091e-05	141.78	82.313	162.385	137.461	67.174	196.580	159.235	66.952	71.491	160.992	182.997	70.287	73.989	74.914	79.266	154.585	77.932	-8191	255	
1576.909	1	1	0	0	0.17597	0.12015	0.16228	0.42	0.2221	0.25095	0.073946	0.21403	0.1812	0.036122	0.14179	0.37608	0.10148	0.016772	0.029161	0.34975	-1.4354	-2.0438	-2.1854	-1.8333	-2.0042	-1.9438	-1.9292	-2.3354	-1.7604	-1.8583	-2.3937	-1.9688	-2.2792	-2.2313	-1.9562	-2.4792	396.837	404.231	98.206	331.115	62.754	85.153	320.889	258.390	223.444	118.504	386.647	397.749	108.102	274.610	161.195	341.474	0.0024776	0.00077742	8.1455e-05	923.66	8.7812e-06	1.1274e-05	1257.7	382.76	2.2971e-05	1.5333e-05	636.61	277.28	161.98	77.785	1.0717e-05	147.71	0.0012062	0.0011896	0.00033132	935.26	1.2888e-05	1.2889e-05	1251.8	383.13	1.29e-05	1.3001e-05	631.71	271.5	169.13	77.233	1.2861e-05	142.92	80.121	157.097	176.861	67.329	168.922	103.275	66.856	71.574	167.197	221.861	70.509	74.171	74.788	79.345	235.631	77.752	-8191	255	
1577.005	1	1	0	0	0.083814	0.071976	0.051355	0.32209	0.053755	0.090432	0.3094	0.071963	0.24304	0.24315	0.35749	0.53497	0.30218	0.24694	0.23592	0.3329	-1.45	-2.0458	-2.2729	-2.0146	-2.1021	-1.9312	-2.0229	-2.3854	-2.1104	-2.0833	-2.4458	-1.9354	-2.0708	-2.2229	-1.6313	-2.2458	232.637	162.538	324.452	372.875	154.511	289.262	336.179	238.764	361.465	400.115	380.345	388.920	394.952	58.843	287.489	367.009	0.0028791	0.00088461	0.0003642	922.75	1.0974e-05	5.5544e-06	1260.2	382.74	7.4428e-06	3.2116e-06	640.51	279.24	163.41	77.676	9.4042e-06	148.91	0.0011824	0.0011686	0.00032288	933.95	1.2672e-05	1.2511e-05	1257.6	382.59	1.242e-05	1.2442e-05	634.15	272.42	168.66	77.058	1.2416e-05	143.44	75.557	130.299	196.588	67.429	172.041	163.949	66.800	71.290	183.997	106.662	70.445	74.199	74.478	79.384	188.029	77.773	-8191	255	
1577.102	1	1	0	0	0.14971	0.079931	0.12304	0.2509	0.13136	0.32176	0.13272	0.15036	0.21914	0.18925	0.14777	0.059545	0.028534	0.1867	0.095212	0.11748	-1.4188	-1.6542	-2.0833	-1.9271	-2.0812	-2.2208	-2.2062	-2.4396	-2.1771	-1.9583	-2.5271	-2.1458	-1.7083	-2.2938	-1.6063	-2.4792	381.284	401.313	255.447	326.553	396.750	60.718	265.083	60.497	359.992	208.002	220.504	405.550	158.458	399.599	169.179	403.768	0.0028247	0.0011504	0.00014146	924.86	1.0252e-05	8.2732e-06	1265.6	382.45	7.6713e-06	1.2971e-05	641.66	277.87	162.02	77.018	1.6537e-05	147.49	0.0011617	0.0011464	0.00031984	936.85	1.2385e-05	1.238e-05	1258.6	381.83	1.2231e-05	1.227e-05	633.13	271.04	167.43	76.261	1.2163e-05	142.21	89.304	118.502	138.574	67.354	136.165	188.047	66.921	71.531	180.538	261.725	70.382	74.138	74.700	79.234	196.146	77.689	-8191	255	
1577.198	1	1	0	0	0.17954	0.18766	0.30186	0.12889	0.097163	0.16303	0.087076	0.27776	0.20125	0.10715	0.08915	0.16699	0.23392	0.24497	0.20866	0.43729	-1.9083	-1.8687	-2.2917	-2.0187	-2.0771	-2.1729	-1.7583	-2.1354	-1.9979	-1.9021	-2.5667	-2.2375	-1.9312	-2.4688	-1.9042	-2.2521	316.468	183.888	278.916	349.351	365.605	111.000	365.113	291.909	290.759	380.029	74.219	297.529	361.485	377.299	330.213	375.246	0.0023071	0.00075792	0.00040192	921.64	5.8429e-06	1.2246e-05	1258.7	379.26	1.2735e-05	7.977e-06	635.23	275.17	160.37	76.573	1.4449e-05	145.99	0.0011344	0.0011203	0.00031539	931.09	1.241e-05	1.2305e-05	1253	380.69	1.2308e-05	1.2441e-05	630.89	270.25	167.54	76.021	1.2411e-05	141.37	80.115	177.017	145.382	67.286	266.028	164.988	67.072	71.396	191.587	247.148	69.084	71.873	73.028	77.764	179.555	74.900	-8191	255	
1577.269	1	1	0	0	0.1022	0.18049	0.17838	0.2588	0.241	0.15197	0.26077	0.18947	0.093443	0.11575	0.27537	0.25435	0.11766	0.37586	0.19588	0.34672	-1.7375	-1.6437	-2.1937	-2.2687	-1.9729	-2.2521	-1.875	-2.0771	-2.0167	-1.7708	-2.1833	-1.7792	-1.8354	-2.1896	-1.5625	-2.0979	265.294	128.233	352.632	315.546	305.042	175.419	323.530	397.839	395.902	337.355	60.982	364.082	214.367	357.781	363.888	332.422	0.0023187	0.000735	0.00012348	915.88	1.8302e-05	7.6674e-06	1241.4	377.6	1.4241e-05	3.1471e-06	630.56	272.79	160.18	75.519	2.0443e-05	144.72	0.0011537	0.0011434	0.00031742	927.32	1.2583e-05	1.2642e-05	1243.6	378.08	1.2759e-05	1.2849e-05	626.42	267.63	167.29	75.225	1.2729e-05	140.68	89.798	108.487	127.328	64.592	183.283	199.898	64.244	68.862	164.653	236.094	68.174	71.770	72.361	77.050	201.502	75.873	-8191	255	
1577.390	1	1	0	0	0.095056	0.25901	0.025432	0.11409	0.058035	0.31208	0.24632	0.16311	0.013013	0.19257	0.2816	0.20627	0.19575	0.29275	0.10762	0.087279	-1.6417	-1.7125	-2.3458	-2.1146	-1.7729	-2.0312	-1.9562	-2.0458	-1.9708	-1.6708	-2.0667	-2.1167	-1.5625	-2.3021	-1.9729	-2.1229	65.615	374.377	61.357	313.226	312.829	56.196	332.742	58.354	330.073	171.933	322.630	405.182	404.594	73.143	397.296	280.078	0.0022096	0.0010285	0.00038945	913.01	8.1258e-06	1.3662e-05	1247.6	375.69	1.1071e-05	8.4168e-06	626.88	271	157.29	74.707	1.4104e-05	143.18	0.0011953	0.0011898	0.00032914	927.91	1.3031e-05	1.305e-05	1247	376.98	1.3191e-05	1.3287e-05	623.6	265.67	166.4	74.299	1.3453e-05	139.26	81.997	134.477	81.971	65.637	119.504	176.050	64.748	69.741	198.442	157.161	70.455	74.458	74.952	79.205	188.355	77.812	-8191	255	
1577.484	1	1	0	0	0.1448	0.1409	0.0988	0.21461	0.078282	0.089301	0.20686	0.12185	0.17004	0.088166	0.48054	0.41593	0.027644	0.32429	0.24689	0.19023	-1.8229	-1.775	-2.2875	-2.2958	-1.8875	-2.3667	-2.1937	-1.9958	-2.3354	-1.7771	-2.2562	-2.3333	-1.8458	-2.5292	-1.7833	-1.8417	205.981	248.324	387.263	346.795	304.519	392.526	362.675	274.394	178.287	406.248	347.792	381.321	95.426	136.037	299.985	380.219	0.0025813	0.00055938	9.2679e-05	906.5	2.5646e-05	1.0395e-05	1238.7	370.98	1.7754e-05	5.514e-06	621.39	268.51	154.19	73.493	7.0507e-06	141.41	0.0012646	0.0012371	0.00034457	926.8	1.3608e-05	1.3762e-05	1241.6	374.26	1.3679e-05	1.3814e-05	620.94	264.04	166.18	73.357	1.4106e-05	138.25	83.862	260.386	259.233	67.604	229.492	138.666	66.842	71.623	144.317	241.061	70.424	74.328	75.018	79.262	237.261	77.886	-8191	255	
1577.582	1	1	0	0	0.058632	0.10874	0.24706	0.29017	0.15524	0.12885	0.15429	0.22929	0.13217	0.16073	0.20486	0.20267	0.19568	0.17963	0.069991	0.28257	-1.7437	-1.7437	-1.8125	-2.2771	-1.6104	-2.3021	-2.2479	-1.85	-2.3563	-1.7188	-1.9646	-2.3479	-1.9792	-2.2354	-2.1667	-1.8375	320.746	230.735	307.689	366.534	114.278	129.390	394.552	67.539	311.678	189.703	139.677	395.974	154.224	305.602	165.973	352.771	0.0023823	0.00058416	0.00043548	903.52	1.7799e-05	4.4522e-06	1231.4	371.17	1.2805e-05	8.5592e-06	620.86	266.87	153.71	72.88	1.4168e-05	139.67	0.001324	0.0013134	0.00036775	926.8	1.4313e-05	1.4338e-05	1239.3	374.57	1.4163e-05	1.4171e-05	618.9	263.41	166.83	73.027	1.4236e-05	137.25	85.861	132.926	142.303	67.291	193.907	335.834	66.881	71.602	233.342	295.756	70.465	74.543	74.996	79.232	148.288	77.929	-8191	255	
1577.701	1	1	0	0	0.15066	0.079829	0.17433	0.13569	0.15207	0.21107	0.075189	0.070437	0.33103	0.10472	0.19774	0.19599	0.20941	0.20118	0.27196	0.057556	-1.8708	-1.8208	-2.0958	-2.1271	-1.7	-1.9604	-2.0875	-1.9521	-2.1813	-1.9667	-2.2458	-2.4042	-1.8917	-2.2333	-2.15	-1.8333	364.847	288.045	362.814	382.382	400.337	406.139	386.460	230.107	239.903	179.298	290.638	408.701	237.710	407.383	329.434	105.768	0.0024021	0.001714	0.00032745	907.32	1.1635e-05	7.9497e-06	1224.2	364.13	5.0495e-06	7.5497e-06	610.74	263.43	153.2	72.349	6.7893e-06	140.62	0.0013447	0.0013342	0.00037438	929.28	1.4717e-05	1.4942e-05	1234.7	370.55	1.5343e-05	1.5366e-05	615	261.39	168.65	72.941	1.5662e-05	138.33	83.790	64.614	204.482	67.430	167.080	143.374	66.722	71.508	140.777	197.588	70.246	74.190	74.962	79.212	237.574	77.724	-8191	255	
1577.797	1	1	0	0	0.42057	0.21308	0.15739	0.1105	0.12047	0.060462	0.25505	0.21317	0.17985	0.23334	0.13686	0.084509	0.10757	0.11777	0.16559	0.29435	-1.7125	-1.8417	-1.95	-2.2583	-1.8229	-2.1229	-2.1979	-1.8583	-2.2333	-1.9104	-2.2208	-2.5375	-1.9896	-2.4062	-2.2646	-1.8354	82.054	270.798	206.957	347.798	300.006	137.188	378.567	279.981	231.768	118.263	264.790	398.508	66.880	351.271	102.595	378.886	0.0027147	0.0014814	0.00022352	901.47	1.2396e-05	1.1524e-05	1228.5	371.04	2.0423e-05	4.4056e-06	620.34	269.4	157.95	74.229	4.5299e-06	143.15	0.0014355	0.0014397	0.00039735	931.61	1.5649e-05	1.5744e-05	1243.7	376.59	1.569e-05	1.5797e-05	624.68	266.96	171.36	74.595	1.5371e-05	140.76	85.413	117.746	83.066	67.531	240.024	162.531	66.876	71.745	170.407	234.045	70.347	74.257	74.928	79.319	106.164	77.805	-8191	255	
1577.869	1	1	0	0	0.13001	0.15062	0.096465	0.05955	0.15305	0.043248	0.19849	0.5795	0.069213	0.34812	0.15442	0.17616	0.065445	0.29713	0.25847	0.22705	-1.9333	-2.125	-1.7708	-2.2708	-1.8375	-1.9083	-2.3458	-1.8188	-2.275	-2.0229	-2.2167	-2.3375	-1.8104	-1.9771	-2.0833	-1.8271	204.286	336.656	152.526	284.919	201.298	191.063	297.776	382.417	354.507	128.972	364.079	337.421	384.306	293.270	101.149	289.587	0.0027417	0.0018332	0.00036112	907.73	1.8931e-05	3.775e-06	1229.8	373.29	9.8897e-06	1.0813e-05	627.25	272.44	159.54	74.879	7.3346e-06	144.13	0.0014109	0.0013985	0.00039089	933.14	1.5186e-05	1.5465e-05	1246.1	378.98	1.58e-05	1.5973e-05	629.14	270.19	173.81	75.551	1.6289e-05	141.93	73.836	146.928	187.548	67.540	123.796	108.244	66.866	71.606	147.421	298.686	70.369	74.006	75.021	79.335	244.995	77.663	-8191	255	
1577.990	1	1	0	0	0.35398	0.27267	0.1235	0.14563	0.1602	0.34942	0.44435	0.29602	0.10937	0.14078	0.14878	0.1039	0.3113	0.14145	0.065232	0.25025	-1.7625	-2.1896	-1.7583	-2.25	-1.9438	-1.7375	-2.3417	-1.7917	-1.9917	-2.2167	-2.1021	-2.4896	-2.2438	-2.0083	-2.1625	-1.9854	246.191	147.523	168.779	395.348	370.892	130.798	359.043	358.271	340.525	85.240	349.039	294.080	386.885	375.449	266.962	263.487	0.0029047	0.0010449	0.00015978	898	3.5701e-06	4.8726e-06	1238.7	371.83	3.9126e-06	1.1459e-05	625.54	272.12	158.98	76.118	1.6147e-05	145.45	0.0014943	0.0014844	0.00041027	933.77	1.5911e-05	1.5896e-05	1247.6	378.53	1.5606e-05	1.5427e-05	628.92	269.84	172.05	76.259	1.5043e-05	142.32	72.957	265.267	229.680	67.446	253.371	136.253	66.788	71.564	139.345	341.590	70.332	74.468	74.836	79.281	218.592	78.040	-8191	255	
1578.086	1	1	0	0	0.039629	0.10561	0.50642	0.11615	0.22859	0.2612	0.33792	0.12703	0.14393	0.13597	0.31907	0.24351	0.10263	0.32794	0.22684	0.16583	-1.625	-2.1	-1.7792	-2.2646	-2.0854	-1.875	-2.6333	-1.9	-2.1896	-2.3792	-1.9062	-2.4938	-1.9917	-1.9521	-2.4979	-2.1583	298.195	152.173	342.852	334.770	81.416	105.304	324.378	331.927	140.962	338.482	330.724	350.239	175.397	343.873	105.331	55.999	0.0025746	0.00080896	0.00016875	908.16	6.0302e-06	6.5833e-06	1240.2	376.33	1.646e-05	1.4096e-05	630.28	275.75	159.4	77.138	1.1058e-05	146.84	0.0013913	0.0013603	0.00038113	932.34	1.5075e-05	1.5093e-05	1248.8	379.72	1.5278e-05	1.5375e-05	632.18	272.29	173.93	77.242	1.5212e-05	144.03	86.874	412.446	77.017	67.507	145.344	175.757	66.753	71.580	101.435	225.827	70.500	74.298	74.841	79.415	200.077	77.775	-8191	255	
1578.182	1	1	0	0	0.24405	0.093654	0.13369	0.18022	0.23332	0.18047	0.1816	0.44122	0.25114	0.21823	0.27657	0.18967	0.17309	0.23125	0.22915	0.091221	-1.7271	-2.1604	-1.7229	-2.1562	-2.0542	-1.8937	-2.3917	-2.1917	-1.9583	-2.1667	-1.9083	-2.3833	-2.1312	-1.9583	-2.3979	-2.0375	68.874	320.162	106.217	319.394	304.263	237.909	55.340	349.681	172.747	119.705	369.985	374.819	87.059	370.999	349.119	365.322	0.0026723	0.00042024	0.00015464	902.11	8.5456e-06	1.2715e-05	1231.7	373.62	1.5921e-05	1.3965e-05	625.63	272.53	158.05	74.726	1.1225e-05	143.62	0.0014123	0.0013941	0.00038706	931.63	1.5338e-05	1.536e-05	1246.9	379.36	1.5205e-05	1.5258e-05	627.24	269.31	171.77	75.121	1.5076e-05	140.66	95.708	68.268	113.073	67.406	140.278	180.572	67.095	71.499	201.300	202.061	70.638	74.322	75.398	79.362	188.391	77.906	-8191	255	
1578.303	1	1	0	0	0.10384	0.47313	0.089582	0.11581	0.18979	0.21394	0.21268	0.23827	0.25279	0.12922	0.2171	0.21532	0.16026	0.32897	0.19642	0.41733	-1.7	-2.3354	-1.8771	-2.2833	-2.0708	-1.7958	-2.2646	-2.0375	-1.6208	-2.1375	-1.9417	-2.0833	-2.0292	-1.7833	-2.0417	-2.1125	196.049	348.776	211.774	395.577	248.433	293.198	330.235	333.386	383.079	76.073	409.442	352.707	293.632	383.898	263.852	395.892	0.0023034	0.0007042	0.0003103	900.44	1.2198e-06	9.3849e-06	1216.3	365.71	1.2609e-05	1.1536e-05	613.55	264.6	153.47	72.004	5.0422e-06	140.42	0.0013923	0.0013735	0.00038231	925.38	1.5002e-05	1.5151e-05	1234.4	371.75	1.5322e-05	1.543e-05	617.02	262.91	168.78	72.579	1.5485e-05	138.32	97.105	85.530	137.710	67.470	408.462	163.273	66.742	71.625	140.822	271.515	70.672	74.488	75.132	79.388	192.063	78.041	-8191	255	
1578.399	1	1	0	0	0.070199	0.10415	0.18536	0.078296	0.1962	0.10256	0.20445	0.2269	0.298	0.14346	0.087839	0.32442	0.12952	0.15445	0.2687	0.44002	-1.4917	-2.0687	-1.5958	-2.1312	-2.2667	-1.9979	-2.2771	-2.3458	-1.7313	-2.5583	-2.1104	-2.3229	-2.2062	-2.0021	-2.0896	-2.225	291.584	300.107	319.077	329.957	359.845	199.922	397.086	339.190	221.901	114.178	306.414	360.380	367.487	61.409	310.322	367.896	0.0022201	0.000929	9.5385e-05	896.47	1.0019e-05	9.4614e-06	1215.2	363.92	2.9243e-06	5.1215e-06	611.74	264.26	151.68	71.88	1.3456e-05	139.64	0.0014307	0.0014065	0.0003928	923.52	1.5265e-05	1.5251e-05	1229.9	370.19	1.5022e-05	1.512e-05	612.79	261.85	165.97	72.162	1.4763e-05	136.78	80.816	383.528	89.720	67.296	295.215	193.210	66.750	71.548	196.009	340.663	70.521	74.519	75.323	79.582	236.553	78.146	-8191	255	
1578.493	1	1	0	0	0.025866	0.20729	0.23301	0.060003	0.30974	0.31675	0.066373	0.19911	0.13229	0.1554	0.339	0.34321	0.11135	0.31902	0.20881	0.051095	-1.3375	-2.3063	-1.9438	-2.1458	-2.2854	-1.9125	-2.3812	-2.3667	-1.7083	-2.1271	-2.05	-1.9208	-2.2167	-1.7229	-1.9104	-2.075	337.024	269.762	345.747	94.749	208.798	213.531	245.559	298.822	224.282	144.240	363.289	331.465	96.705	363.335	187.258	66.768	0.0028431	0.00026177	0.00033672	895.2	1.7155e-05	5.7417e-06	1217.8	363.84	1.2056e-05	2.8035e-06	612.96	264.25	151.82	71.663	1.3826e-05	139.8	0.0013468	0.0013341	0.00037101	918.03	1.4416e-05	1.451e-05	1225.7	368.77	1.4466e-05	1.4516e-05	612.61	261.38	165.9	72.131	1.4712e-05	137.58	89.856	136.922	141.930	67.419	170.970	154.442	66.152	71.563	101.995	258.899	70.352	74.401	75.007	78.522	243.796	74.853	-8191	255	
1578.567	1	1	0	0	0.071142	0.30734	0.15683	0.20887	0.27267	0.28603	0.38562	0.20136	0.13397	0.17319	0.24183	0.36293	0.13004	0.23091	0.2442	0.16931	-1.2583	-2.0479	-2.0167	-1.9583	-2.45	-1.9438	-1.9792	-2.2708	-1.9542	-2.25	-1.9604	-1.95	-2.2708	-1.9188	-1.7396	-2.35	91.199	293.446	311.663	362.376	275.869	354.940	60.785	339.920	409.589	147.488	406.691	377.359	175.920	68.251	309.333	340.911	0.001801	0.00091128	0.00028773	892.09	6.0782e-06	8.9264e-06	1221.3	365.54	1.6286e-05	4.9683e-06	612.77	263.99	152.97	71.617	2.0652e-05	140.21	0.0013527	0.0013343	0.00037075	919.09	1.4626e-05	1.4689e-05	1231.1	369.89	1.4551e-05	1.4636e-05	615.31	262.02	166.03	72.251	1.4908e-05	137.92	79.966	190.753	79.677	64.411	148.275	249.283	63.787	68.581	173.315	188.023	67.600	71.392	72.220	76.625	204.554	75.224	-8191	255	
1578.685	1	1	0	0	0.076275	0.14975	0.14935	0.14847	0.14635	0.13084	0.34321	0.31781	0.091685	0.070566	0.31753	0.13854	0.29066	0.26472	0.053012	0.24718	-1.1313	-2.0542	-2.1521	-2.1083	-2.35	-1.9792	-2.1354	-2.35	-1.5312	-2.0833	-2.2062	-1.8729	-2.1958	-2.0375	-1.875	-2.2292	243.504	362.377	251.055	385.935	89.760	406.639	332.937	324.866	243.206	135.697	210.717	376.395	182.399	231.707	52.027	72.771	0.0025392	0.00069915	6.1988e-05	891.16	2.3043e-05	4.9397e-06	1221.4	365.86	1.6136e-05	1.323e-05	616.84	266.52	153.29	72.412	1.6421e-05	141.56	0.0013802	0.0013738	0.00038474	919.62	1.5249e-05	1.5319e-05	1236.1	372.48	1.5594e-05	1.5789e-05	621.84	265.47	169.78	73.353	1.6061e-05	139.39	81.042	156.442	126.220	64.729	201.987	352.492	64.511	69.158	163.371	210.105	68.106	72.038	72.793	77.165	182.751	75.726	-8191	255	
1578.782	1	1	0	0	0.071176	0.090651	0.23495	0.35158	0.14919	0.097152	0.096506	0.12583	0.12665	0.1228	0.41898	0.24744	0.29386	0.18365	0.12895	0.35585	-1.2229	-2.0125	-2.2146	-1.6604	-1.9813	-1.925	-2.0833	-2.3667	-1.8062	-2.2375	-2.1208	-1.9188	-1.9958	-1.9188	-1.5271	-2.2146	116.324	161.684	100.855	399.473	330.415	74.249	62.049	311.890	115.318	289.139	332.573	105.422	159.466	340.121	149.775	314.846	0.0023661	0.00028862	0.00017255	891.18	1.5207e-05	1.8883e-05	1211	360.28	2.4789e-05	8.2476e-06	608.97	261.67	151.23	70.372	8.0756e-06	138.36	0.0014669	0.001484	0.00041223	922.01	1.5987e-05	1.5845e-05	1231.2	368.66	1.5601e-05	1.5675e-05	614.2	260.66	167.04	71.297	1.5739e-05	136.48	79.770	151.603	194.371	65.503	235.082	100.705	64.662	69.292	158.720	214.435	68.275	72.379	72.825	77.343	125.496	75.444	-8191	255	
1578.878	1	1	0	0	0.18855	0.23098	0.30821	0.23247	0.10823	0.15057	0.069164	0.28464	0.050991	0.092099	0.25201	0.054368	0.20968	0.44948	0.17568	0.2769	-1.2208	-1.9813	-2.0833	-1.8188	-2.1437	-2.0104	-1.7771	-2.1292	-1.7	-1.8875	-2.3208	-1.8667	-2.0771	-2.2896	-1.7313	-2.3937	216.588	323.774	304.891	345.959	55.393	141.180	347.991	376.637	335.413	198.252	410.976	169.176	363.081	107.780	213.154	110.423	0.002303	0.0012184	7.7453e-05	886.1	6.831e-06	4.5913e-06	1209.8	358.84	2.1681e-05	8.8513e-06	604.55	261.68	150.91	70.171	1.546e-05	138.64	0.0014534	0.0014536	0.00040369	917.56	1.5785e-05	1.5799e-05	1227.4	366.32	1.5466e-05	1.5589e-05	610.6	260.21	165.49	70.861	1.5139e-05	136.3	86.886	105.420	320.055	65.692	180.821	352.131	64.770	69.203	188.124	201.727	67.984	71.945	73.121	77.090	127.496	75.744	-8191	255	
1578.974	1	1	0	0	0.083295	0.11526	0.13578	0.21493	0.12264	0.078018	0.32873	0.054811	0.17014	0.26762	0.15882	0.070365	0.18103	0.34363	0.20691	0.21014	-1.3563	-2.0167	-2.2417	-1.65	-1.9667	-1.9042	-1.8333	-2.2667	-1.9854	-2.0917	-2.4437	-1.9833	-2.1521	-2.2938	-1.6688	-2.2729	396.682	165.486	382.139	347.696	296.372	107.016	329.370	227.527	366.157	380.289	353.059	249.970	334.897	381.843	132.769	138.341	0.0020482	0.00030332	0.0005005	885.93	1.0229e-05	3.4077e-06	1212.8	360.91	2.0025e-05	4.4335e-06	612.26	265.6	153.55	72.458	9.8527e-06	141.97	0.0013919	0.0013757	0.00038267	914.17	1.4934e-05	1.4903e-05	1227.7	367.63	1.4813e-05	1.4772e-05	614.52	263.16	166.61	72.86	1.4715e-05	139.74	79.390	141.573	156.096	64.057	170.043	186.319	63.902	68.614	192.437	248.849	67.386	71.225	71.997	77.021	250.251	75.288	-8191	255	
1579.095	1	1	0	0	0.09487	0.025235	0.39553	0.26976	0.47156	0.0089023	0.35924	0.057101	0.09575	0.17269	0.099467	0.28911	0.10513	0.28955	0.026317	0.12418	-1.6146	-1.8312	-2.2396	-1.9062	-1.8604	-1.9167	-1.7292	-2.2229	-1.9208	-1.7604	-1.9792	-1.9583	-1.7083	-2.0604	-1.8438	-2.1625	170.686	115.027	202.411	317.176	180.728	244.930	348.335	64.373	235.188	148.325	172.462	321.771	406.125	328.440	406.777	388.725	0.0025751	0.00069797	0.00049756	896.36	1.8608e-05	5.1318e-06	1222.2	366.48	5.5261e-06	1.164e-05	621.58	268.17	154.72	72.839	1.1321e-05	142	0.0013629	0.0013504	0.00037657	921.46	1.4817e-05	1.4866e-05	1236.8	372.19	1.4886e-05	1.4941e-05	621.56	266.27	168.1	73.272	1.476e-05	139.61	87.423	122.534	97.698	64.141	185.935	126.425	63.931	68.458	251.797	372.497	67.824	71.662	71.737	76.247	177.906	75.554	-8191	255	
1579.166	1	1	0	0	0.10193	0.26839	0.43509	0.044571	0.053181	0.20272	0.21461	0.19381	0.15676	0.13049	0.1599	0.14932	0.27395	0.27091	0.2132	0.086021	-1.6146	-1.8729	-2.2333	-1.9833	-2.0812	-2.0917	-1.95	-2.3229	-2.0604	-1.8	-2.1729	-2.1583	-1.8083	-2.1562	-1.675	-2.0438	59.433	252.770	365.999	92.651	297.103	207.763	338.122	382.665	63.707	66.575	283.844	103.277	391.824	391.012	370.301	316.015	0.0025542	0.0011717	0.00015998	896.44	1.0912e-05	1.0999e-05	1223	363.34	1.1511e-05	5.5889e-06	610.65	263.1	150.76	70.173	1.4426e-05	137.97	0.0013679	0.001355	0.00037824	925.63	1.5034e-05	1.5067e-05	1236	369.55	1.5326e-05	1.5594e-05	615.22	261.28	166.52	70.904	1.5487e-05	136.2	79.364	287.559	154.476	64.492	176.926	164.128	64.291	68.943	165.965	312.214	67.721	71.591	72.140	76.617	185.158	75.263	-8191	255	
1579.262	1	1	0	0	0.36189	0.13909	0.092432	0.28075	0.092675	0.25293	0.30757	0.35094	0.15235	0.15029	0.15217	0.18934	0.25044	0.080345	0.11197	0.24362	-1.6542	-1.725	-2.1583	-2.0542	-1.8479	-2.2687	-2.0958	-2.3375	-2.45	-2.0062	-2.2417	-2.0646	-1.8458	-2.3625	-1.8937	-2.1813	77.750	320.470	103.156	325.712	285.722	105.990	315.725	358.862	92.673	223.439	390.884	77.348	382.336	359.878	145.647	372.913	0.0024519	0.00055157	0.00022027	888.39	1.0052e-05	7.6539e-06	1214.6	355.63	1.0857e-05	7.5473e-06	602.21	260.43	147.91	69.807	7.5416e-06	137.91	0.0014349	0.0014217	0.00039698	919.16	1.5634e-05	1.5668e-05	1227.6	364.29	1.5782e-05	1.577e-05	609.25	259.1	164.83	70.537	1.5152e-05	136.35	87.471	184.389	143.986	65.170	157.539	216.978	64.758	69.571	183.560	311.371	68.422	71.929	72.583	76.532	105.667	75.523	-8191	255	
1579.383	1	1	0	0	0.29665	0.1077	0.24441	0.26063	0.27131	0.39874	0.48082	0.20166	0.3984	0.085816	0.13545	0.3369	0.071229	0.15984	0.2708	0.23063	-1.5771	-1.6708	-2.1063	-1.9104	-1.675	-2.1542	-2.1771	-2.1042	-2.1437	-1.6562	-2.2562	-2.0583	-1.6708	-2.1813	-2.0104	-1.9396	231.223	375.768	298.393	391.110	291.978	106.103	303.233	75.045	238.063	172.010	63.288	360.607	110.509	340.354	94.080	397.891	0.0025119	0.0014352	0.00011433	885.88	1.3727e-05	2.1013e-05	1212.8	357.93	4.277e-06	2.5316e-06	609.37	263.6	150.98	70.837	1.6217e-05	141.28	0.0013626	0.0013434	0.00037413	909.37	1.4447e-05	1.4428e-05	1221.4	364.54	1.404e-05	1.4022e-05	610.41	260.84	162.37	71.124	1.3717e-05	137.61	86.612	108.749	190.544	65.113	157.272	219.317	64.611	69.202	180.062	193.269	68.582	72.722	73.745	77.816	195.596	75.742	-8191	255	
1579.477	1	1	0	0	0.11943	0.20935	0.35061	0.18022	0.17473	0.17771	0.25208	0.24954	0.039646	0.18848	0.13253	0.30372	0.094275	0.41289	0.058869	0.21273	-1.8604	-1.5562	-1.9208	-2.2292	-1.7	-2.1417	-1.9708	-1.925	-2.2208	-1.8062	-2.1854	-2.2646	-1.8042	-2.4104	-2.0687	-1.9708	109.501	184.024	196.969	397.930	196.065	215.416	346.667	52.719	335.713	353.653	382.538	401.666	309.350	398.416	314.561	314.570	0.0019242	0.00047553	0.00024168	893.72	1.2315e-05	4.8075e-06	1223.6	364.34	1.002e-05	6.2264e-06	623.22	269.92	153.93	72.82	1.3004e-05	144.01	0.0012654	0.001245	0.00035012	910.98	1.3483e-05	1.3502e-05	1230.2	367.22	1.3597e-05	1.3643e-05	618.63	265.36	164.73	72.905	1.3965e-05	140.55	77.791	410.336	125.892	65.261	170.720	130.174	65.667	69.761	168.041	122.784	70.309	74.501	74.820	79.229	144.583	77.923	-8191	255	
1579.574	1	1	0	0	0.19633	0.07274	0.13264	0.090513	0.056895	0.015461	0.26567	0.24155	0.15537	0.12529	0.38765	0.21382	0.079937	0.31475	0.12569	0.042961	-1.7875	-1.6771	-2.0208	-1.9792	-1.6688	-2.1688	-2.1896	-2.0187	-2.2833	-1.9479	-2.3271	-2.2833	-1.7375	-2.1937	-1.8563	-1.9604	220.130	248.847	265.274	196.576	363.514	215.590	323.489	364.881	82.564	164.015	122.289	356.923	184.997	393.050	116.633	276.376	0.0025623	0.00050458	0.00034417	895.07	1.2487e-05	1.1377e-05	1240.6	369.26	2.3035e-05	1.1377e-05	620.03	270.37	154.35	72.215	7.8383e-06	142.67	0.0012926	0.001281	0.00035725	916.92	1.3865e-05	1.3933e-05	1239.1	371.54	1.3726e-05	1.3839e-05	620.31	265.16	164.3	72.372	1.3981e-05	138.97	85.270	338.417	134.283	67.640	199.102	110.664	66.961	71.583	83.841	100.326	70.530	74.265	74.724	79.371	130.453	77.885	-8191	255	
1579.671	1	1	0	0	0.078396	0.04311	0.25388	0.1593	0.235	0.14916	0.44218	0.05645	0.34814	0.17005	0.23439	0.16157	0.13231	0.45518	0.026968	0.11463	-1.6688	-1.9229	-1.8312	-2.1146	-1.7604	-2.1104	-2.2188	-2.0229	-2.3187	-1.8604	-1.975	-2.4104	-1.7833	-2.3979	-2.1167	-1.8042	111.362	227.236	215.496	364.853	111.119	319.296	308.045	385.577	72.142	158.076	380.284	354.268	116.508	58.024	84.370	339.141	0.0024032	0.00079049	0.00038233	893.37	9.4809e-06	6.6296e-06	1222.8	365.26	9.9711e-06	2.6272e-06	618.19	268.82	154.12	73.217	1.5759e-05	144.48	0.0013096	0.0013061	0.00036592	915.43	1.4535e-05	1.4597e-05	1236.3	370.13	1.4766e-05	1.5018e-05	620.38	266.11	167.21	73.281	1.4648e-05	141.1	68.297	209.001	109.016	67.558	77.510	193.073	67.106	71.782	144.284	88.079	70.508	74.420	74.900	79.260	228.944	77.932	-8191	255	
1579.766	1	1	0	0	0.38984	0.11999	0.095517	0.040167	0.095865	0.10622	0.15459	0.19663	0.057539	0.16509	0.16659	0.14133	0.12031	0.25245	0.1538	0.27196	-1.7146	-1.7229	-1.9562	-2.3271	-1.7563	-2.2438	-2.3563	-1.8479	-2.1375	-2.0333	-1.9688	-2.4688	-1.8854	-1.9833	-1.8563	-1.75	294.992	261.745	284.330	149.165	129.155	67.042	297.164	352.009	196.605	261.854	409.660	408.024	409.718	331.102	116.202	370.508	0.0023513	0.00091614	0.00028084	892.01	6.1589e-06	1.0926e-05	1226.6	366.55	8.1464e-06	5.0755e-06	627.02	273.7	156.38	74.49	1.2195e-05	146.45	0.0013394	0.0013184	0.00036669	914.01	1.4236e-05	1.4334e-05	1234.8	371.52	1.4167e-05	1.4258e-05	625.07	269.53	167.22	74.377	1.3873e-05	142.63	75.008	113.077	155.141	67.344	234.979	216.653	67.018	71.431	244.722	204.214	70.357	74.238	75.228	79.471	236.531	77.831	-8191	255	
1579.862	1	1	0	0	0.1395	0.097065	0.13684	0.32477	0.056541	0.2919	0.21889	0.14769	0.10732	0.24178	0.23131	0.11292	0.10275	0.32484	0.05254	0.14724	-1.8333	-2.15	-2.0187	-2.3958	-1.8708	-2.1125	-2.4646	-1.9125	-2.0958	-1.7458	-1.8333	-2.2792	-1.9729	-2.2083	-2.2271	-1.9792	332.506	141.412	355.283	64.410	220.958	173.094	401.810	72.433	311.263	69.690	340.002	273.205	173.322	345.226	125.496	318.929	0.0024486	0.0011769	0.00040286	899.02	1.0015e-05	4.0383e-06	1238.4	368.46	6.7799e-06	4.2676e-06	622.66	273.04	154.3	73.695	9.0361e-06	144.91	0.0012691	0.0012569	0.00034634	916.97	1.357e-05	1.3686e-05	1242.6	371.54	1.3631e-05	1.3797e-05	624.23	268.77	166.01	73.581	1.3788e-05	141.08	77.458	411.855	127.318	67.446	152.684	243.946	67.072	71.286	199.785	291.175	68.659	72.334	73.551	77.715	268.686	76.392	-8191	255	
1579.983	1	1	0	0	0.21264	0.28437	0.090295	0.15659	0.25962	0.17578	0.089209	0.27188	0.28411	0.19447	0.20201	0.18519	0.26193	0.31243	0.1346	0.24899	-1.5479	-2.0042	-1.7	-2.5896	-1.8687	-1.7333	-2.1167	-1.725	-2.1333	-2.1979	-2.0021	-2.35	-1.9667	-1.8917	-2.2479	-1.8687	320.147	303.785	257.723	393.482	80.961	100.983	315.885	341.128	277.655	153.898	392.635	397.175	68.709	399.174	238.563	355.641	0.0023379	0.00061009	0.00015987	902.78	9.3289e-06	8.2484e-06	1239.5	362.89	4.3938e-06	4.8295e-06	614.58	267.86	151.07	70.741	9.6482e-06	141.13	0.0012797	0.0012621	0.0003468	920.61	1.3748e-05	1.3825e-05	1242.3	366.52	1.3663e-05	1.3691e-05	616.63	263.59	161.58	71.004	1.355e-05	137.51	82.882	65.912	138.329	64.261	157.112	224.100	63.814	68.678	174.343	321.362	67.978	71.404	72.190	76.991	142.155	75.819	-8191	255	
1580.079	1	1	0	0	0.11191	0.10701	0.047471	0.04611	0.10592	0.12232	0.012108	0.20367	0.26174	0.18003	0.16465	0.046374	0.18141	0.29014	0.1896	0.13165	-1.6667	-2.2021	-1.5333	-1.9667	-1.6958	-2.0208	-2.4146	-1.8375	-2.0729	-2.2958	-1.8854	-2.3292	-1.9854	-1.8083	-2.075	-1.7479	365.460	208.122	388.559	143.088	184.996	235.094	352.705	261.797	407.692	53.424	329.357	347.565	374.049	381.676	369.455	279.195	0.0024741	0.00028349	9.726e-05	896.7	1.093e-05	1.0028e-05	1222	356.84	1.2866e-05	6.042e-06	604.94	259.52	149.72	69.64	1.5766e-05	138.58	0.0012477	0.0012338	0.00034388	914.18	1.3509e-05	1.3525e-05	1229.9	360.28	1.3714e-05	1.3811e-05	607.14	257.91	160.64	69.537	1.4064e-05	135.81	81.293	153.998	183.629	65.354	165.941	177.414	64.971	70.493	144.510	182.467	70.637	74.404	75.266	79.466	133.067	78.033	-8191	255	
1580.175	1	1	0	0	0.20865	0.37121	0.22142	0.16398	0.1727	0.23976	0.2561	0.049328	0.097312	0.1687	0.18069	0.38754	0.19042	0.16213	0.18663	0.20645	-1.2375	-2.3063	-2.0604	-2.4208	-1.9792	-1.7313	-2.3917	-2.2104	-2.1271	-2.1708	-1.6313	-2.2979	-2.1333	-1.8792	-2.225	-2.4042	388.486	283.835	256.739	386.063	67.794	322.815	341.130	344.022	271.227	349.002	61.891	396.239	376.288	56.240	115.611	347.286	0.0027073	0.00035728	0.00035085	888.15	4.8778e-06	2.0763e-06	1225.3	353.96	6.5798e-06	9.3782e-06	598.33	258.08	144.77	67.64	9.0198e-06	137.08	0.0013064	0.0012849	0.00035486	909.91	1.4047e-05	1.4052e-05	1228.8	358.4	1.3961e-05	1.407e-05	601.03	254.89	157.51	67.929	1.3798e-05	133.6	79.859	63.336	135.000	67.361	108.885	133.600	67.108	71.501	209.675	238.248	70.381	74.476	75.311	79.398	168.799	78.565	-8191	255	
1580.271	1	1	0	0	0.11714	0.26208	0.020946	0.26817	0.25195	0.18655	0.23965	0.19584	0.14838	0.18479	0.13516	0.052512	0.21256	0.092438	0.14212	0.20254	-1.4354	-2.0125	-1.6437	-1.9875	-2.1021	-1.6583	-2.0583	-1.9896	-1.6875	-2.15	-1.7979	-1.9833	-2.0604	-1.8708	-2	-2.1854	185.779	110.225	381.880	68.772	137.867	304.350	335.612	253.363	178.354	292.566	361.352	115.473	399.450	85.305	155.495	285.217	0.0022762	0.0010112	0.00022362	880.42	9.5616e-06	1.2813e-05	1215	351.84	9.4568e-06	1.7406e-06	599.38	257.54	146.53	66.859	1.6751e-05	135.8	0.0012784	0.0012642	0.00035109	905.26	1.3851e-05	1.3843e-05	1224.2	356.31	1.3846e-05	1.3965e-05	600.72	255.03	158.07	67.499	1.4057e-05	132.8	82.996	126.045	126.649	67.452	106.159	175.845	66.969	71.427	225.745	124.468	70.512	74.718	75.234	79.284	209.078	78.255	-8191	255	
1580.392	1	1	0	0	0.33869	0.28669	0.25382	0.16178	0.13462	0.56277	0.096638	0.16108	0.16576	0.28655	0.065044	0.065801	0.22437	0.10485	0.1579	0.28826	-1.3312	-2.2812	-1.8958	-2.1396	-2.2083	-1.9104	-2.2708	-2.1583	-1.925	-2.325	-1.9625	-2.0458	-2.1208	-1.7792	-2.1688	-2.1312	142.568	55.777	358.725	345.273	207.500	101.488	61.697	347.841	278.643	110.575	372.046	392.875	355.947	324.345	361.079	362.712	0.0024017	0.0011873	0.00013958	884.67	5.882e-06	4.6879e-06	1217.1	350.24	1.2233e-05	1.1687e-05	597.44	256.76	142.69	66.728	1.0805e-05	135.38	0.0012897	0.0012825	0.00035845	905.37	1.3908e-05	1.3786e-05	1224.3	353.67	1.3705e-05	1.3747e-05	597.38	253.21	154.95	66.814	1.3424e-05	132.5	67.931	106.415	119.863	67.598	92.182	176.377	67.015	71.445	199.653	318.000	70.509	74.351	75.601	79.418	233.353	78.111	-8191	255	
1580.462	1	1	0	0	0.089695	0.10698	0.074303	0.18306	0.17745	0.26598	0.57683	0.13825	0.077096	0.4036	0.29134	0.31847	0.19654	0.24225	0.18287	0.1784	-1.5375	-2.2521	-1.9125	-1.8188	-1.9312	-1.5104	-2.0167	-2.0271	-1.7437	-2.2229	-2.1375	-2.0271	-1.9813	-1.7354	-1.8979	-2.1188	105.183	289.224	321.960	369.014	54.931	331.450	356.102	391.242	407.530	278.180	407.057	367.947	404.580	399.056	235.523	65.772	0.0020398	0.00084755	0.00026369	881.8	1.789e-05	1.1534e-05	1215.7	347.7	1.0424e-05	1.1138e-05	592.35	251.92	140.56	64.633	1.1668e-05	130.84	0.0012314	0.001225	0.0003386	902.66	1.3422e-05	1.3403e-05	1217.4	351.53	1.373e-05	1.4104e-05	592.11	249.85	155.25	65.149	1.4664e-05	129.44	81.918	124.973	188.324	67.353	144.185	141.365	67.199	71.525	211.308	201.798	70.398	74.463	75.182	79.423	179.654	78.173	-8191	255	
1580.558	1	1	0	0	0.22488	0.048268	0.29556	0.07784	0.059635	0.20046	0.24571	0.039863	0.1909	0.19541	0.34062	0.13218	0.24451	0.086158	0.23661	0.12451	-1.1313	-1.9813	-1.9562	-1.9438	-2.3187	-1.65	-2.1792	-2.4333	-1.6854	-2.2562	-1.9604	-1.9292	-2.3875	-2.1375	-1.9896	-2.1854	340.141	240.702	335.121	315.736	148.294	136.959	224.870	265.968	139.320	174.306	327.522	137.412	122.810	246.600	313.321	405.913	0.0025027	0.0016451	6.9098e-05	875.15	1.1751e-06	8.9075e-06	1200.6	341.03	1.2978e-05	1.3397e-05	580.38	246.19	138.25	62.731	4.86e-06	128.52	0.0013577	0.0013587	0.00037789	900.64	1.4778e-05	1.4912e-05	1212.7	347.65	1.4951e-05	1.5364e-05	584.98	244.97	153.97	63.375	1.5112e-05	126.99	79.292	184.191	72.470	67.514	125.213	130.494	66.992	71.625	172.607	319.216	70.583	74.762	75.850	79.249	112.730	78.075	-8191	255	
1580.654	1	1	0	0	0.10701	0.13026	0.17008	0.044925	0.31789	0.14029	0.093473	0.26494	0.10089	0.19521	0.17789	0.45448	0.089167	0.067874	0.18375	0.084279	-1.4479	-1.9667	-2.0708	-1.9042	-2.3438	-1.9667	-2.1625	-2.2646	-1.8021	-2.0771	-1.9562	-1.9167	-2.2375	-2.1542	-2.0062	-2.2625	169.399	371.209	60.901	82.591	312.197	300.511	133.174	398.667	228.251	301.026	253.218	362.061	125.549	70.607	68.341	284.287	0.0023562	0.0011636	0.00027936	867.96	4.0493e-06	1.0727e-05	1189.8	339.53	7.9144e-06	9.4584e-06	575.23	245.15	137.63	61.995	1.5035e-05	127.43	0.0013648	0.0013577	0.00037131	893.04	1.4338e-05	1.4161e-05	1199.2	343.3	1.3729e-05	1.3825e-05	578.17	243.03	149.66	62.25	1.3575e-05	125.21	82.080	230.409	267.196	67.053	132.400	198.405	66.775	71.604	114.536	308.788	70.689	74.595	75.410	79.474	213.218	78.534	-8191	255	
1580.775	1	1	0	0	0.10562	0.21081	0.1922	0.17732	0.12661	0.27809	0.17237	0.060733	0.26474	0.15913	0.23341	0.20498	0.33425	0.1496	0.051848	0.023871	-1.3646	-1.9562	-2.15	-1.6313	-2.2188	-2.1	-2.1771	-2.5708	-1.8875	-2.3063	-2.2833	-1.7938	-2.2917	-2.075	-1.8458	-2.4021	103.540	265.116	396.104	122.225	256.237	345.931	252.131	390.394	272.200	265.513	339.143	377.979	332.968	384.349	239.082	396.017	0.0022141	0.00084889	0.00011646	861.4	8.9095e-06	5.188e-06	1183.5	334.25	8.3028e-06	3.4918e-06	569.76	242.15	134.52	60.586	1.198e-05	126.19	0.0012532	0.0012459	0.0003447	882.13	1.347e-05	1.3661e-05	1189.7	338.53	1.3585e-05	1.3633e-05	571.89	239.05	147.65	61.02	1.3588e-05	124.1	76.788	84.093	225.486	67.448	146.178	253.894	66.745	71.678	189.387	202.508	70.725	74.471	74.788	79.671	174.898	78.209	-8191	255	
1580.871	1	1	0	0	0.24244	0.18311	0.2518	0.19145	0.30468	0.12654	0.21455	0.10339	0.10679	0.33821	0.15507	0.062987	0.069398	0.4144	0.26185	0.19852	-1.2729	-1.9229	-2.2604	-1.9125	-2.0875	-2.2292	-2.0563	-2.2646	-1.8146	-2.1375	-2.2896	-1.6854	-2.0625	-2.0375	-1.6437	-2.3812	271.020	283.059	250.506	403.095	117.262	347.235	352.566	202.559	242.980	324.307	190.129	289.879	277.525	363.339	364.035	384.446	0.0018575	0.00097168	0.00026988	861.09	7.5782e-06	7.4811e-06	1185.5	335.93	7.0224e-06	1.0259e-05	575.83	243.83	136.7	61.536	4.1869e-06	128.12	0.0012414	0.0012354	0.00034281	884.69	1.3368e-05	1.3327e-05	1192.3	339.96	1.3152e-05	1.3114e-05	575.03	240.86	147.16	61.93	1.2735e-05	125.44	93.054	114.401	146.510	65.789	108.855	167.426	65.134	69.586	302.306	223.826	67.210	71.287	71.540	76.088	246.315	74.931	-8191	255	
1580.967	1	1	0	0	0.098882	0.11491	0.18671	0.15319	0.17868	0.042036	0.12389	0.43486	0.13563	0.28335	0.23683	0.15685	0.18455	0.22824	0.12162	0.062056	-1.5167	-1.8979	-2.2083	-1.8333	-2.0458	-1.8958	-1.6708	-2.0312	-1.8312	-1.8687	-2.2708	-1.7333	-2.0042	-2.2562	-1.7271	-2.2687	381.164	306.663	297.376	150.625	397.265	334.858	135.960	408.633	165.483	374.559	359.554	364.412	165.704	69.789	403.509	341.404	0.0023703	0.00084072	0.00020059	860.72	5.7242e-06	7.2419e-06	1190.6	338.9	6.2843e-06	6.6862e-06	578	244.92	135.28	61.658	9.3611e-06	126.91	0.0011797	0.0011619	0.00032406	881.86	1.2734e-05	1.2832e-05	1197.3	342.33	1.2992e-05	1.3246e-05	577.79	242.85	148.81	62.261	1.3282e-05	125.27	89.507	158.407	282.337	64.106	382.123	115.703	63.632	68.462	268.453	277.824	67.580	71.326	72.196	76.264	96.685	75.309	-8191	255	
1581.063	1	1	0	0	0.092789	0.10806	0.14025	0.076839	0.055408	0.2957	0.17854	0.17884	0.2656	0.074205	0.086954	0.094538	0.075791	0.32981	0.27561	0.17896	-1.5646	-1.9188	-2.2708	-1.5979	-2.1	-1.9667	-1.7417	-2.0438	-1.9104	-1.9479	-2.3229	-2.15	-1.9688	-1.9146	-1.4188	-2.0687	259.746	136.608	219.386	297.705	309.375	140.880	325.322	312.963	128.429	175.220	233.856	100.231	178.776	336.135	66.591	90.734	0.0017708	0.00052453	0.00051087	863.97	1.3945e-05	1.115e-05	1186.8	335.53	1.4062e-05	7.7946e-06	572.71	243.72	133.97	61.118	1.2924e-05	128.1	0.0012305	0.0012199	0.00034027	886.1	1.3262e-05	1.328e-05	1193.8	339.79	1.3095e-05	1.3137e-05	574.89	241.26	146.93	61.696	1.3048e-05	125.59	71.793	216.088	149.413	64.332	191.378	167.153	63.805	68.259	238.119	330.209	67.270	71.736	71.687	76.201	207.161	75.399	-8191	255	
1581.159	1	1	0	0	0.17024	0.15065	0.067558	0.33084	0.13107	0.20393	0.27541	0.1039	0.13239	0.24212	0.026643	0.22152	0.12166	0.14966	0.098597	0.25211	-1.4062	-1.475	-2.0729	-1.8604	-1.9479	-2.1667	-1.9521	-2.3625	-2.0604	-1.7042	-2.2833	-2.0396	-1.9375	-2.2854	-1.6437	-2.1854	147.471	107.440	171.791	359.769	159.552	224.328	341.242	347.873	89.853	83.860	237.108	115.185	52.933	337.797	71.919	107.463	0.0023736	0.00091995	0.00026043	867.84	5.8908e-06	3.1717e-06	1191.8	333.84	7.4522e-06	8.4838e-06	579.64	245.6	135.73	61.485	5.1241e-06	128.99	0.0012061	0.0011979	0.00033719	885.94	1.3269e-05	1.3234e-05	1198.5	340.14	1.3394e-05	1.3419e-05	578.68	242.74	148.39	61.982	1.3314e-05	126.44	76.020	88.932	146.868	64.531	116.329	195.715	63.842	68.710	399.531	203.414	67.208	71.635	72.293	76.395	160.513	75.191	-8191	255	
1581.255	1	1	0	0	0.24361	0.18892	0.12101	0.21712	0.19706	0.14634	0.22111	0.25074	0.17853	0.18238	0.16866	0.12423	0.31188	0.34749	0.33594	0.17743	-1.6042	-1.7375	-2.0125	-1.8771	-1.8	-2.3	-2.0021	-2.1167	-2.15	-1.6396	-2.2521	-2.1042	-1.9208	-2.4875	-1.6437	-2.2083	374.209	78.610	152.425	90.313	106.616	272.201	272.263	337.351	324.527	312.688	338.388	344.532	313.329	382.498	409.022	400.986	0.0021096	0.0011401	0.0001659	872.74	1.4934e-05	6.5671e-06	1191.5	335.68	1.3852e-05	9.2941e-06	575.36	244.38	134.17	60.692	1.0848e-05	126.81	0.0012197	0.0011937	0.00033524	889.09	1.2932e-05	1.2885e-05	1198.7	339.91	1.3008e-05	1.3133e-05	575.62	240.93	146.9	61.206	1.3039e-05	124.36	85.820	92.123	178.464	64.316	237.143	93.058	63.885	68.797	211.371	230.331	67.792	71.865	71.990	76.809	162.348	75.468	-8191	255	
1581.351	1	1	0	0	0.13718	0.24206	0.30138	0.18555	0.26986	0.081964	0.20462	0.11134	0.08391	0.099229	0.16713	0.10505	0.26039	0.23814	0.085593	0.23495	-1.8208	-1.6313	-2.1	-2.075	-1.7979	-2.3083	-1.9896	-2.1937	-2.1854	-1.7	-2.2958	-2.1854	-1.7188	-2.3792	-1.9542	-2.0896	138.911	362.733	330.698	383.165	107.078	332.249	409.763	249.768	318.379	270.373	129.790	61.160	380.237	393.118	205.376	126.241	0.0018389	0.00018797	0.00016185	864.27	9.2756e-06	6.9684e-06	1185.1	333.31	9.0546e-06	7.3526e-06	572.97	242.44	135.6	60.738	7.4526e-06	127.63	0.0012055	0.0011941	0.00033198	884.03	1.3021e-05	1.311e-05	1190.8	337.98	1.296e-05	1.3055e-05	573.71	239.94	146.67	61.211	1.2946e-05	125	89.218	408.442	291.684	64.776	168.106	247.127	64.162	68.553	167.263	186.158	67.618	71.834	72.325	76.873	125.123	75.432	-8191	255	
1581.472	1	1	0	0	0.032504	0.11069	0.10913	0.26275	0.30904	0.15839	0.16492	0.11196	0.41946	0.24355	0.032811	0.1494	0.25625	0.16176	0.14853	0.34633	-1.8687	-1.6104	-2.0312	-2.0458	-1.8312	-2.2625	-2.1	-2.0083	-2.1354	-1.5708	-2.1479	-2.1271	-1.6562	-2.0438	-1.6396	-1.8646	143.958	286.202	367.882	68.063	107.196	395.463	81.137	348.881	332.802	403.560	54.040	60.877	214.104	70.520	176.393	370.175	0.0016151	0.00065023	0.00036094	860.27	7.4441e-06	1.284e-05	1187.1	335.36	1.1888e-05	6.92e-06	576.48	243.62	135.33	61.137	7.487e-06	128.38	0.0012106	0.0012046	0.00033563	880.38	1.3037e-05	1.3017e-05	1190.7	338.98	1.2884e-05	1.301e-05	575.53	240.85	146.6	61.652	1.305e-05	125.61	72.598	220.627	178.319	64.416	147.427	236.955	64.048	68.674	217.864	163.694	68.317	72.575	73.088	77.217	160.779	76.038	-8191	255	
1581.566	1	1	0	0	0.16388	0.34238	0.14779	0.072612	0.19653	0.22872	0.1762	0.15214	0.15999	0.35905	0.25545	0.060616	0.21345	0.29617	0.2442	0.16691	-1.6333	-1.6354	-1.8917	-2.1896	-1.8167	-2.2917	-2.1021	-1.8604	-1.9896	-1.75	-1.9208	-2.0729	-1.4771	-1.975	-1.7625	-1.6729	352.979	260.087	163.545	68.262	274.507	170.251	292.660	62.416	159.605	219.600	410.105	408.343	398.042	79.560	384.920	365.176	0.0024769	0.00074206	0.00021322	862.47	3.1734e-06	1.0825e-05	1191.5	336.13	8.3057e-06	1.1129e-05	579.42	245.28	136.71	61.048	1.0148e-05	128.68	0.0012054	0.0011991	0.00033581	882.21	1.2992e-05	1.3001e-05	1194.1	340.07	1.2765e-05	1.2854e-05	576.68	241.7	146.42	61.467	1.2556e-05	125.66	79.953	85.514	67.602	64.466	150.992	205.049	64.186	68.722	172.882	263.277	67.785	71.764	72.687	76.653	70.351	75.560	-8191	255	
#DATA ENDS
