BOXY.EXE: ISS Imagent and Oximeter Data Acquisition Program Version 0.80
Ascii Record File

#ACQ INFORMATION
2  Detector Channels 
16  External MUX Channels 
1  Auxiliary Channels 
5000  Waveform (CCF) Frequency (Hz)
1  Waveforms Skipped 
30  Waveforms Averaged 
1  Cycles Averaged 
16  Acquisitions per Waveform 
10.0806  Updata Rate (Hz) 

#FILE INFORMATION
TRUE -- External MUX Channel results are PARSED.
FALSE -- AC DC and Phase are NOT grouped.
TRUE -- Companion Program Settings File CREATED.
FALSE -- AC data not excluded
FALSE -- DC data not excluded
FALSE -- Phase data not excluded
FALSE -- Auxillary Chn. data not excluded
Tab delimiters

#CALIBRATION STATE
TRUE -- Waveform Calibration Values APPLIED.


#AUX CALIBRATION VALUES
Val Type	aux-1	

Term	1.0000e+00	
Factor	0.0000e+00	


#WF CALIBRATION VALUES
A = Detector Channel
Val Type	A-AC1	A-AC2	A-AC3	A-AC4	A-AC5	A-AC6	A-AC7	A-AC8	A-AC9	A-AC10	A-AC11	A-AC12	A-AC13	A-AC14	A-AC15	A-AC16	A-DC1	A-DC2	A-DC3	A-DC4	A-DC5	A-DC6	A-DC7	A-DC8	A-DC9	A-DC10	A-DC11	A-DC12	A-DC13	A-DC14	A-DC15	A-DC16	A-Ph1	A-Ph2	A-Ph3	A-Ph4	A-Ph5	A-Ph6	A-Ph7	A-Ph8	A-Ph9	A-Ph10	A-Ph11	A-Ph12	A-Ph13	A-Ph14	A-Ph15	A-Ph16	

Term	0.00000e+00	0.00000e+00	0.00000e+00	0.00000e+00	0.00000e+00	0.00000e+00	0.00000e+00	0.00000e+00	0.00000e+00	0.00000e+00	0.00000e+00	0.00000e+00	0.00000e+00	0.00000e+00	0.00000e+00	0.00000e+00	0.00000e+00	0.00000e+00	0.00000e+00	0.00000e+00	0.00000e+00	0.00000e+00	0.00000e+00	0.00000e+00	0.00000e+00	0.00000e+00	0.00000e+00	0.00000e+00	0.00000e+00	0.00000e+00	0.00000e+00	0.00000e+00	0.00000e+00	0.00000e+00	0.00000e+00	0.00000e+00	0.00000e+00	0.00000e+00	0.00000e+00	0.00000e+00	0.00000e+00	0.00000e+00	0.00000e+00	0.00000e+00	0.00000e+00	0.00000e+00	0.00000e+00	0.00000e+00	
Factor	1.00000e+00	1.00000e+00	1.00000e+00	1.00000e+00	1.00000e+00	1.00000e+00	1.00000e+00	1.00000e+00	1.00000e+00	1.00000e+00	1.00000e+00	1.00000e+00	1.00000e+00	1.00000e+00	1.00000e+00	1.00000e+00	1.00000e+00	1.00000e+00	1.00000e+00	1.00000e+00	1.00000e+00	1.00000e+00	1.00000e+00	1.00000e+00	1.00000e+00	1.00000e+00	1.00000e+00	1.00000e+00	1.00000e+00	1.00000e+00	1.00000e+00	1.00000e+00	X	X	X	X	X	X	X	X	X	X	X	X	X	X	X	X	

B = Detector Channel
Val Type	B-AC1	B-AC2	B-AC3	B-AC4	B-AC5	B-AC6	B-AC7	B-AC8	B-AC9	B-AC10	B-AC11	B-AC12	B-AC13	B-AC14	B-AC15	B-AC16	B-DC1	B-DC2	B-DC3	B-DC4	B-DC5	B-DC6	B-DC7	B-DC8	B-DC9	B-DC10	B-DC11	B-DC12	B-DC13	B-DC14	B-DC15	B-DC16	B-Ph1	B-Ph2	B-Ph3	B-Ph4	B-Ph5	B-Ph6	B-Ph7	B-Ph8	B-Ph9	B-Ph10	B-Ph11	B-Ph12	B-Ph13	B-Ph14	B-Ph15	B-Ph16	

Term	0.00000e+00	0.00000e+00	0.00000e+00	0.00000e+00	0.00000e+00	0.00000e+00	0.00000e+00	0.00000e+00	0.00000e+00	0.00000e+00	0.00000e+00	0.00000e+00	0.00000e+00	0.00000e+00	0.00000e+00	0.00000e+00	0.00000e+00	0.00000e+00	0.00000e+00	0.00000e+00	0.00000e+00	0.00000e+00	0.00000e+00	0.00000e+00	0.00000e+00	0.00000e+00	0.00000e+00	0.00000e+00	0.00000e+00	0.00000e+00	0.00000e+00	0.00000e+00	1.75774e+01	-1.46235e+02	-1.17124e+02	-1.81868e+02	-8.91195e+01	-6.48731e+01	-1.55593e+02	-1.62015e+02	-9.75022e+01	-8.17833e+01	-1.72047e+02	-1.70197e+02	-1.80263e+02	-1.76670e+02	-7.13823e+01	-1.48961e+02	
Factor	4.51161e-05	1.29920e-04	3.80509e-05	1.84395e-01	1.28156e-06	1.39230e-06	1.71929e-01	6.00013e-02	1.74208e-06	1.47441e-06	9.93773e-02	3.72057e-02	2.45678e-02	1.02851e-02	1.73701e-06	1.47878e-02	1.01581e-06	1.03816e-06	2.88466e-07	9.16057e-02	1.13405e-08	1.13887e-08	8.04221e-02	2.97712e-02	1.13638e-08	1.13723e-08	4.69853e-02	1.74268e-02	1.22168e-02	5.05173e-03	1.13582e-08	6.97409e-03	X	X	X	X	X	X	X	X	X	X	X	X	X	X	X	X	



#DISTANCE SETTINGS
A = Detector Channel
A-1	A-2	A-3	A-4	A-5	A-6	A-7	A-8	A-9	A-10	A-11	A-12	A-13	A-14	A-15	A-16	

2.5000e+00	3.0000e+00	2.5000e+00	3.0000e+00	2.0000e+00	3.0000e+00	1.5000e+00	3.0000e+00	3.0000e+00	3.0000e+00	3.0000e+00	3.0000e+00	3.0000e+00	3.0000e+00	1.5000e+00	3.0000e+00	

B = Detector Channel
B-1	B-2	B-3	B-4	B-5	B-6	B-7	B-8	B-9	B-10	B-11	B-12	B-13	B-14	B-15	B-16	

1.0000e+01	1.0000e+01	1.0000e+01	1.4400e+00	1.0000e+01	1.0000e+01	1.5100e+00	1.9400e+00	1.0000e+01	1.0000e+01	1.9900e+00	2.4900e+00	2.4100e+00	2.9000e+00	1.0000e+01	2.9800e+00	




#DATA BEGINS
time	group	step	mark	flag	A-AC1	A-AC2	A-AC3	A-AC4	A-AC5	A-AC6	A-AC7	A-AC8	A-AC9	A-AC10	A-AC11	A-AC12	A-AC13	A-AC14	A-AC15	A-AC16	A-DC1	A-DC2	A-DC3	A-DC4	A-DC5	A-DC6	A-DC7	A-DC8	A-DC9	A-DC10	A-DC11	A-DC12	A-DC13	A-DC14	A-DC15	A-DC16	A-Ph1	A-Ph2	A-Ph3	A-Ph4	A-Ph5	A-Ph6	A-Ph7	A-Ph8	A-Ph9	A-Ph10	A-Ph11	A-Ph12	A-Ph13	A-Ph14	A-Ph15	A-Ph16	B-AC1	B-AC2	B-AC3	B-AC4	B-AC5	B-AC6	B-AC7	B-AC8	B-AC9	B-AC10	B-AC11	B-AC12	B-AC13	B-AC14	B-AC15	B-AC16	B-DC1	B-DC2	B-DC3	B-DC4	B-DC5	B-DC6	B-DC7	B-DC8	B-DC9	B-DC10	B-DC11	B-DC12	B-DC13	B-DC14	B-DC15	B-DC16	B-Ph1	B-Ph2	B-Ph3	B-Ph4	B-Ph5	B-Ph6	B-Ph7	B-Ph8	B-Ph9	B-Ph10	B-Ph11	B-Ph12	B-Ph13	B-Ph14	B-Ph15	B-Ph16	aux-1	digaux	

1075.446	1	1	0	256	0.10322	0.12753	0.067144	0.16107	0.27443	0.15481	0.15331	0.045636	0.22723	0.15941	0.18976	0.28788	0.22498	0.3756	0.1476	0.036528	0.20625	0.63333	0.29583	-0.095833	0.74167	-0.10625	0.03125	0.59792	-0.14375	0.45	-0.0020833	0.04375	0.61458	-0.23333	0.3125	0.70208	62.389	344.350	80.714	131.165	286.405	111.214	113.585	239.776	251.353	246.448	162.270	358.268	80.960	356.161	214.709	193.225	0.00073594	0.00033161	7.2856e-05	753.58	6.7537e-06	3.0058e-06	635.61	284.69	7.6994e-06	4.9672e-06	238.54	94.936	118.24	53.347	1.7143e-06	41.058	0.00063161	0.00063307	0.00017593	771.96	6.9079e-06	6.9483e-06	649.86	286.96	6.9849e-06	6.9646e-06	250.38	98.706	118.8	53.34	6.9616e-06	42.229	301.664	381.004	102.827	47.793	204.583	170.390	46.276	53.389	141.204	177.252	50.124	54.792	57.944	61.576	128.560	57.110	-8191	255	
1075.566	1	1	0	0	0.29227	0.21451	0.27052	0.28841	0.1648	0.09535	0.35904	0.16569	0.23293	0.17317	0.22063	0.10293	0.048657	0.15012	0.089493	0.32364	0.0125	0.65	0.30833	-0.0875	0.63125	0.17083	0.19375	0.57708	-0.0625	0.41875	0.39167	-0.25	0.46875	0.033333	0.041667	0.72083	322.071	58.317	187.982	363.527	163.063	324.447	309.179	244.763	108.354	156.006	60.241	367.424	88.255	384.276	189.853	362.302	0.00084532	9.0829e-05	0.0003325	758.46	1.5433e-05	2.2559e-06	635.26	284.08	7.2749e-06	1.0457e-05	240.76	95.51	118.7	53.701	1.1844e-05	41.153	0.00063286	0.00064123	0.00017775	775.24	7.008e-06	7.0139e-06	652.46	287.56	7.0124e-06	6.9795e-06	251.83	99.36	119.33	53.499	6.954e-06	42.315	292.706	374.906	94.070	47.799	203.274	169.714	46.524	53.719	214.985	223.150	50.292	54.884	58.170	61.384	193.245	56.979	-8191	255	
1075.638	1	1	0	0	0.30877	0.10613	0.20724	0.13945	0.16691	0.1035	0.032267	0.22564	0.27091	0.14395	0.16177	0.12697	0.38581	0.058487	0.1067	0.20789	0.24583	0.48542	0.61042	-0.21042	0.71875	0.072917	0.014583	0.69375	-0.15625	0.37083	0.49167	-0.18542	0.50833	0.21042	0.0125	0.47083	279.236	199.909	256.105	74.529	327.528	212.739	313.261	380.443	381.855	228.654	386.946	160.113	387.032	298.116	243.103	305.932	0.00076355	0.00014604	0.00010222	753.53	5.0169e-06	4.7284e-06	632.6	284.3	8.3137e-06	5.7365e-06	241.38	95.144	118.18	53.683	9.7089e-06	40.741	0.00062953	0.00063339	0.00017586	771.52	6.8708e-06	6.8886e-06	650.47	287.14	6.8548e-06	6.8622e-06	250.85	98.44	118.86	53.249	6.8808e-06	41.903	290.744	98.214	157.866	48.321	204.893	127.706	46.551	53.620	128.594	342.684	50.650	54.980	57.798	61.462	231.046	57.244	-8191	255	
1075.734	1	1	0	0	0.19294	0.34032	0.052447	0.098271	0.073115	0.014742	0.1241	0.091259	0.019821	0.064355	0.14342	0.088588	0.19459	0.14749	0.16481	0.22844	0.23958	0.18333	0.55	-0.16875	0.48958	0.20208	0.025	0.7125	0.16042	0.37292	0.65625	-0.25625	0.39792	0.32917	-0.12708	0.48542	308.731	378.158	83.453	394.332	169.160	65.848	319.902	355.287	283.510	92.732	322.227	105.809	380.731	368.204	197.862	357.992	0.00095993	0.0002788	0.00013015	755.22	6.3872e-06	1.1406e-06	634.02	283.05	4.663e-06	3.3359e-06	238.4	95.492	118.08	52.986	8.3953e-06	40.634	0.00062448	0.00062556	0.00017493	772.01	6.8704e-06	6.8746e-06	648.93	286.56	6.8297e-06	6.7763e-06	250.21	98.455	118.6	52.893	6.8253e-06	41.649	294.428	154.264	270.318	47.695	207.663	286.033	46.200	53.459	385.382	213.515	50.378	55.053	58.024	61.582	257.763	56.919	-8191	255	
1075.855	1	1	0	0	0.12152	0.21115	0.32841	0.089645	0.13085	0.16296	0.32335	0.01262	0.11108	0.11226	0.13195	0.14044	0.33584	0.30471	0.28804	0.09867	0.4625	0.058333	0.65	-0.18542	0.68958	0.48542	-0.33125	0.52083	0.27708	0.045833	0.5875	-0.26458	0.31667	0.6125	-0.054167	0.56042	259.649	258.914	45.039	353.795	348.095	357.839	280.743	301.278	208.816	180.421	318.677	318.335	229.182	384.607	204.154	191.277	0.00054104	0.00098198	6.1648e-05	759.79	1.4366e-05	4.465e-06	632.58	282.62	8.5538e-06	1.5865e-06	240.78	95.047	118.18	52.852	9.245e-06	40.708	0.00061884	0.00062725	0.00017241	773.47	6.8075e-06	6.8126e-06	650.22	286.71	6.7586e-06	6.7699e-06	250.88	98.589	118.39	52.734	6.7512e-06	41.741	293.299	108.439	249.592	47.919	156.514	192.341	46.476	53.587	162.024	275.508	50.178	55.026	57.772	61.562	237.821	56.825	-8191	255	
1075.949	1	1	0	0	0.063641	0.32315	0.25467	0.22139	0.14257	0.36991	0.32527	0.35238	0.20308	0.11088	0.30017	0.22635	0.166	0.2297	0.20594	0.23191	0.51875	0.0375	0.89792	-0.2375	0.14583	0.57083	-0.14792	0.51042	0.39375	-0.0375	0.64375	-0.097917	0.13958	0.69167	-0.05625	0.43125	307.442	347.175	41.071	362.932	45.261	320.434	36.968	352.829	351.594	372.550	353.553	385.322	243.417	387.112	340.657	369.379	0.00046917	0.00077666	0.00016962	761.02	5.1623e-06	6.5851e-06	641.59	285.53	8.2532e-06	4.3736e-06	242.44	95.947	117.85	52.752	3.1394e-06	40.507	0.00060823	0.000613	0.00017055	775.32	6.7136e-06	6.7067e-06	655	288.03	6.6948e-06	6.704e-06	252.45	98.909	118.44	52.637	6.6699e-06	41.78	310.372	134.078	174.343	48.040	201.364	172.074	46.055	53.561	164.915	394.097	50.088	54.690	57.626	61.644	382.487	56.989	-8191	255	
1076.045	1	1	0	0	0.23959	0.048159	0.36524	0.069333	0.27541	0.12604	0.17483	0.01306	0.20642	0.027008	0.045431	0.13742	0.25522	0.0848	0.064769	0.23766	0.70417	0.0625	0.76667	-0.125	0.20417	0.63125	-0.27292	0.54167	0.2125	-0.15208	0.525	-0.022917	0.077083	0.77917	-0.11667	0.41667	378.707	128.189	70.163	116.185	259.048	116.132	135.575	378.759	130.165	389.273	73.514	336.544	352.943	61.575	240.015	311.724	0.00074629	0.00051712	0.00015021	762.15	7.2115e-06	4.1663e-06	642.35	286.18	6.3731e-06	5.0081e-06	242.83	96.223	118.49	53.347	1.0198e-05	41.205	0.00060865	0.00061822	0.00016967	778.81	6.6946e-06	6.6917e-06	657.11	288.87	6.6741e-06	6.6494e-06	252.43	99.116	118.81	52.953	6.6224e-06	41.971	283.106	148.171	125.672	48.295	167.643	100.213	46.251	53.593	193.241	180.306	50.324	55.430	57.712	61.204	196.606	56.779	-8191	255	
1076.143	1	1	0	0	0.012221	0.19705	0.10372	0.18933	0.049079	0.034637	0.19502	0.25693	0.24828	0.2612	0.22524	0.10796	0.14707	0.34029	0.14303	0.32194	0.71042	-0.020833	0.61667	0.022917	0.15833	0.71042	-0.20833	0.125	0.54583	-0.19375	0.51458	0.19167	-0.072917	0.75	-0.1375	0.2625	199.596	180.801	101.196	374.385	76.271	276.758	352.289	35.905	321.659	47.681	371.410	357.901	284.170	55.807	375.365	63.064	0.00069834	0.00031816	0.00031231	765.42	5.3685e-06	5.502e-06	642.38	287.67	8.362e-06	3.7429e-06	244.44	96.258	119.87	53.717	9.4461e-06	41.151	0.00060111	0.00060287	0.00016751	778.33	6.5699e-06	6.5599e-06	656.13	289.6	6.5654e-06	6.5494e-06	252.63	98.952	119.45	53.263	6.5646e-06	42.121	286.559	58.448	148.453	48.036	74.430	103.351	46.527	53.492	240.310	130.745	49.958	55.027	57.836	61.359	158.638	56.396	-8191	255	
1076.238	1	1	0	0	0.174	0.19567	0.16897	0.097173	0.21455	0.055831	0.21399	0.14422	0.1529	0.28344	0.1807	0.076288	0.30035	0.124	0.099339	0.16651	0.99792	-0.12917	0.61458	0.15833	-0.05625	0.75	-0.10417	0.34167	0.675	-0.04375	0.29167	0.45	-0.20417	0.62708	0.010417	-0.010417	151.149	139.244	386.671	52.654	96.513	134.770	354.173	38.439	131.394	181.002	235.492	58.216	51.514	126.362	288.133	69.203	0.00076331	0.00044971	9.0159e-05	766.26	7.3242e-07	8.3597e-06	640.23	288.17	8.5343e-06	8.9044e-06	242.77	96.548	119.83	53.548	1.1306e-05	41.278	0.00059471	0.00059942	0.0001662	776.57	6.5351e-06	6.5802e-06	655.77	289.97	6.5774e-06	6.6005e-06	253.34	99.393	119.54	53.257	6.5635e-06	42.174	290.004	133.397	243.246	47.741	258.368	133.208	46.423	53.333	171.475	382.672	50.491	55.256	57.833	61.003	186.545	56.708	-8191	255	
1076.334	1	1	0	0	0.15302	0.069384	0.21025	0.1503	0.047664	0.18102	0.075983	0.25298	0.038874	0.095546	0.31279	0.10393	0.066694	0.31353	0.12428	0.07265	1.0833	-0.36458	0.63542	0.20417	-0.03125	0.525	-0.13333	0.095833	0.8625	-0.17083	0.30833	0.175	-0.17917	0.44583	0.15625	-0.097917	90.865	172.945	159.862	395.089	291.111	337.310	241.278	281.006	43.540	392.857	293.390	315.504	344.289	374.249	350.653	56.154	0.00073128	0.00034266	0.00022755	758.9	7.761e-06	4.5723e-06	644.07	289.13	1.6086e-06	5.5602e-06	244.24	97.13	119.59	53.477	8.073e-06	41.504	0.00059663	0.00060193	0.00016585	776.46	6.5263e-06	6.6235e-06	656.78	290.68	6.6189e-06	6.5461e-06	254.13	99.738	119.68	53.133	6.5638e-06	42.268	299.462	64.689	129.924	47.974	127.774	229.646	46.627	53.241	177.299	129.551	49.905	54.924	57.860	61.110	50.926	56.829	-8191	255	
1076.454	1	1	0	0	0.21827	0.26428	0.23758	0.081793	0.097973	0.15907	0.32246	0.34731	0.12221	0.26798	0.34265	0.19832	0.34513	0.10668	0.12268	0.229	1.0167	-0.12292	0.25417	0.44792	-0.19792	0.50833	0.14375	-0.19583	0.75417	-0.0625	0.32708	0.48958	-0.20417	0.60625	0.25833	-0.13542	113.993	59.822	185.412	235.618	150.346	322.220	339.825	372.086	307.246	231.738	48.730	185.631	385.589	106.273	250.858	311.806	0.00082247	0.00017903	9.7275e-05	763.58	4.2879e-06	8.4702e-06	639.04	287.86	5.321e-06	5.1929e-06	245.35	96.857	119.19	53.232	1.2934e-05	41.068	0.00059745	0.00060304	0.00016828	777.75	6.5765e-06	6.5729e-06	654.94	289.53	6.6212e-06	6.561e-06	253.9	99.433	119.28	52.982	6.5383e-06	41.98	301.459	137.154	114.601	47.964	204.168	331.043	46.415	53.384	114.144	47.030	50.240	54.267	57.736	61.099	166.528	56.779	-8191	255	
1076.550	1	1	0	0	0.1468	0.17231	0.027914	0.10848	0.14244	0.29706	0.30333	0.4393	0.20342	0.17974	0.18774	0.24885	0.28245	0.29101	0.2722	0.20999	1.1479	0.058333	0.27917	0.66042	-0.44375	0.48333	0.1875	-0.18125	0.97708	0.035417	0.15625	0.75	-0.28333	0.30625	0.35833	-0.24375	113.647	309.292	206.503	327.263	82.834	107.436	386.935	391.859	228.652	56.583	139.151	265.647	340.766	71.184	351.252	277.156	0.00069856	0.00081841	0.0002333	762.64	5.5332e-06	7.9254e-06	643.33	288.47	2.1541e-06	1.1315e-05	242.6	96.412	120.09	53.476	6.2915e-06	41.202	0.0005916	0.00059683	0.00016563	775.3	6.5431e-06	6.5395e-06	653.79	289.42	6.5251e-06	6.5213e-06	252.95	99.197	119.64	53.187	6.5282e-06	42.014	276.085	101.723	162.147	47.910	162.612	152.843	46.206	53.175	344.075	274.333	49.963	54.750	57.411	61.283	229.093	56.865	-8191	255	
1076.647	1	1	0	0	0.075071	0.16758	0.1621	0.232	0.041801	0.20691	0.29532	0.18287	0.11701	0.10238	0.20033	0.063976	0.22273	0.15527	0.18642	0.12915	0.93333	0.10208	0.052083	0.66042	-0.16458	0.35625	0.35625	-0.28958	0.71458	0.16667	-0.033333	0.56875	-0.25625	0.39792	0.37083	-0.26875	122.719	135.105	178.263	115.501	95.566	209.087	316.892	282.673	364.006	308.587	98.567	70.575	350.348	361.947	210.918	174.477	0.00062691	0.00032706	0.00016358	757.9	2.0761e-06	5.2308e-06	638.34	288.29	3.7795e-06	3.5618e-06	244.1	96.597	119.53	53.671	7.0938e-06	41.492	0.00059013	0.00059242	0.00016511	772.16	6.4886e-06	6.5569e-06	650.51	289.62	6.5225e-06	6.5026e-06	252.74	99.348	119.71	53.23	6.4725e-06	42.253	307.790	169.069	140.182	47.875	83.958	181.516	46.233	53.124	213.542	369.492	49.839	54.279	57.669	61.153	184.687	56.768	-8191	255	
1076.743	1	1	0	0	0.21936	0.046259	0.30245	0.31845	0.17387	0.050838	0.11517	0.13426	0.046651	0.12705	0.10253	0.23626	0.27915	0.088771	0.04238	0.094606	0.82917	0.26458	-0.054167	0.75	-0.047917	0.26667	0.55208	-0.39167	0.65208	0.34583	-0.18958	0.75417	-0.15417	0.15	0.59167	-0.091667	58.564	187.468	161.151	262.316	338.766	224.962	383.167	108.781	89.462	103.109	338.653	356.721	58.968	312.760	358.829	72.598	0.00092495	0.00042997	8.6243e-05	751.96	7.2235e-06	1.0941e-05	638.27	288.05	9.1462e-06	6.1683e-07	243.34	97.148	120.03	54.032	6.0945e-06	41.804	0.00059019	0.00059259	0.00016482	769.94	6.4634e-06	6.4842e-06	651	289.8	6.4764e-06	6.4703e-06	252.58	99.535	119.87	53.56	6.432e-06	42.565	288.467	163.290	193.214	47.951	188.425	178.165	46.613	53.228	179.537	342.563	50.300	55.002	57.762	61.347	130.498	56.691	-8191	255	
1076.863	1	1	0	0	0.20625	0.085437	0.17396	0.082227	0.035622	0.24164	0.14918	0.21086	0.20793	0.099149	0.357	0.091298	0.30118	0.28981	0.094189	0.37368	0.77292	0.3125	-0.014583	0.64792	0.17292	0.1	0.61458	-0.10208	0.58125	0.36458	-0.15208	0.64583	0.13958	-0.225	0.64583	-0.17917	215.032	324.451	99.900	97.661	229.599	132.705	362.251	360.584	275.643	101.174	364.668	301.707	336.513	324.002	215.106	56.883	0.0005392	0.00073627	0.00025416	759.28	5.5853e-06	5.0588e-06	640.83	288.39	3.3056e-06	2.4173e-06	243.77	97.366	119.39	53.808	8.9423e-07	41.515	0.00059312	0.00058974	0.00016452	772.09	6.444e-06	6.4757e-06	653.5	290.32	6.4679e-06	6.4574e-06	253.55	99.836	119.79	53.345	6.4319e-06	42.217	281.362	389.434	120.011	48.148	169.001	208.595	46.760	53.238	165.548	203.474	50.326	55.250	58.013	61.214	177.879	56.900	-8191	255	
1076.935	1	1	0	0	0.12587	0.23336	0.16942	0.075617	0.17827	0.11282	0.22262	0.049306	0.1641	0.21717	0.24497	0.25592	0.20682	0.070906	0.25333	0.070452	0.85833	0.6625	-0.064583	0.4875	0.26667	0.20208	0.75	-0.15625	0.2875	0.61042	-0.16667	0.475	0.079167	-0.37917	0.82292	-0.17708	95.096	160.578	296.499	101.011	258.627	344.303	106.791	296.797	392.985	200.402	243.127	48.791	44.920	278.502	212.799	316.100	0.00059075	0.00025684	3.0649e-05	752.95	3.6791e-06	2.3995e-06	638.93	289.2	3.6716e-06	5.0007e-06	243.52	96.397	119.49	53.28	5.3993e-06	41.032	0.00058445	0.00058694	0.00016205	770.55	6.4185e-06	6.4091e-06	651.43	290.08	6.4062e-06	6.381e-06	252.3	99.149	119.43	52.961	6.3716e-06	41.938	292.316	264.268	290.317	48.105	163.575	203.513	46.596	53.616	66.267	262.616	50.021	54.847	57.991	61.534	134.155	56.689	-8191	255	
1077.031	1	1	0	0	0.092787	0.24027	0.21608	0.074557	0.1018	0.23629	0.13076	0.21305	0.11081	0.096257	0.12249	0.05949	0.1804	0.17351	0.17836	0.21717	0.56458	0.57917	-0.26667	0.53333	0.41042	-0.20833	0.69167	-0.1125	0.052083	0.55833	-0.32708	0.40208	0.4125	-0.3125	0.58333	0.00625	388.792	363.379	150.647	90.566	271.963	355.284	128.733	41.515	261.022	332.548	358.722	71.319	39.429	73.647	252.684	269.100	0.00098592	0.00079373	0.00015197	756.81	6.2367e-06	8.9042e-06	637.39	287.62	4.5262e-06	2.3726e-06	240.96	96.756	120.14	53.32	8.6486e-06	41.3	0.00058007	0.00058572	0.00016191	770.56	6.3439e-06	6.3367e-06	649.94	289.15	6.3545e-06	6.3492e-06	251.82	99.259	119.7	52.975	6.3268e-06	41.99	298.272	104.137	159.008	48.037	127.731	172.488	46.884	53.545	123.129	162.521	50.612	55.048	57.935	61.361	185.777	56.860	-8191	255	
1077.126	1	1	0	0	0.12493	0.24838	0.23594	0.2698	0.10702	0.23555	0.15565	0.24985	0.13112	0.29794	0.11062	0.35669	0.26875	0.13934	0.23503	0.22179	0.5375	0.85208	-0.19375	0.425	0.47292	-0.091667	0.57292	0.125	0.06875	0.74583	0	0.475	0.44792	-0.052083	0.8625	0.22292	359.363	78.080	363.883	79.147	206.186	348.453	196.948	362.952	292.172	330.455	311.868	42.352	382.991	327.294	328.663	122.437	0.00084324	0.0006169	0.00011986	759.61	9.2616e-06	5.6618e-06	644.31	288.2	3.9992e-06	7.175e-06	244.17	96.762	120.19	53.413	6.3841e-06	41.325	0.00057846	0.00058228	0.00016057	771.54	6.3544e-06	6.2971e-06	653.39	289.7	6.3182e-06	6.3449e-06	253.07	99.501	119.56	53.082	6.3702e-06	42.106	300.010	387.092	85.762	48.030	221.368	224.619	46.568	53.466	168.871	131.331	49.930	54.787	57.886	61.319	301.910	56.961	-8191	255	
1077.246	1	1	0	0	0.083514	0.26049	0.061001	0.14522	0.18507	0.22643	0.18015	0.41019	0.14097	0.14334	0.061671	0.27224	0.37578	0.35443	0.1264	0.12308	0.31875	0.775	-0.17292	0.45208	0.50208	-0.19167	0.49375	0.21875	0.060417	0.55625	-0.13958	0.045833	0.39583	-0.21042	0.54167	0.3375	302.354	133.410	111.975	331.296	95.339	317.367	270.205	307.242	126.255	61.407	269.211	110.798	352.287	318.842	328.059	119.771	0.00098082	0.00023542	0.00026321	763.39	4.3395e-06	3.6435e-06	644.62	289.11	1.2514e-05	5.3231e-06	244.16	97.58	119.92	53.427	1.7408e-06	41.351	0.0005774	0.00057873	0.00016226	774.05	6.3787e-06	6.317e-06	654.41	290.06	6.3514e-06	6.3126e-06	253.11	99.806	119.58	53.094	6.3221e-06	42.151	285.319	46.112	149.987	47.761	171.509	227.802	46.304	53.575	137.708	204.273	50.302	54.840	57.864	61.564	86.489	56.940	-8191	255	
1077.342	1	1	0	0	0.21519	0.2303	0.20822	0.060183	0.14742	0.18468	0.39892	0.2263	0.065438	0.092673	0.057746	0.21249	0.17957	0.44214	0.035199	0.039811	0.29792	0.43542	-0.010417	0.10625	0.64375	0.08125	0.30208	0.31667	-0.15417	0.80417	0.13958	0.14583	0.71042	-0.175	0.46458	0.52083	251.657	95.455	58.835	305.813	250.500	174.199	390.701	345.969	68.499	51.027	389.960	326.193	351.240	333.270	181.304	388.497	0.00072613	0.00072773	0.00019214	759.99	7.2788e-06	6.8442e-06	641.72	287.48	2.9411e-06	6.5598e-06	243.87	97.27	119.15	53.518	1.009e-05	41.658	0.00057372	0.00057686	0.00016122	772.55	6.3416e-06	6.3058e-06	652.41	289.25	6.3296e-06	6.3253e-06	253.01	99.368	119.45	53.067	6.3772e-06	42.062	287.964	194.116	92.080	47.895	202.695	168.194	46.336	53.550	344.700	158.653	50.131	54.805	57.893	61.332	118.501	57.191	-8191	255	
1077.439	1	1	0	0	0.15668	0.085439	0.10326	0.24146	0.09944	0.30298	0.15783	0.1748	0.043463	0.27433	0.10651	0.37974	0.045909	0.12285	0.33197	0.19241	0.16042	0.82292	0.28333	-0.12083	0.77083	0.05625	0.30417	0.37292	0.0875	0.63333	0.20417	-0.010417	0.7375	-0.047917	0.43125	0.5625	72.270	135.519	298.845	86.326	298.972	133.992	319.592	259.079	175.342	70.076	149.526	380.631	285.265	305.990	85.361	331.193	0.00070319	0.00058518	0.00020565	759.46	4.4086e-06	8.5267e-06	640.35	288.26	7.6556e-06	1.1905e-06	244.33	97.424	119.51	53.709	2.1792e-06	41.461	0.00057628	0.00057917	0.00016134	770.69	6.369e-06	6.3726e-06	651.55	289.43	6.3391e-06	6.3433e-06	253.3	99.582	119.54	53.043	6.3629e-06	42.103	310.013	150.231	135.527	47.859	116.027	164.847	46.459	53.454	155.927	157.005	50.686	54.809	57.793	61.641	362.329	57.143	-8191	255	
1077.535	1	1	0	0	0.10391	0.25968	0.102	0.33945	0.062974	0.34964	0.045318	0.28571	0.18237	0.23357	0.14722	0.43125	0.03376	0.3594	0.20706	0.063991	0.33958	0.64792	0.36667	-0.18125	0.59167	0.16458	0.11875	0.64167	0.0875	0.56458	0.20625	-0.19792	0.54583	-0.060417	0.12917	0.55625	212.339	315.796	204.296	340.562	271.190	282.379	51.316	379.395	169.176	219.581	64.624	91.784	143.034	103.847	211.277	43.504	0.00052059	0.00037972	6.7726e-05	757.41	5.2227e-06	3.2683e-06	636.14	289.46	2.5723e-06	2.5629e-06	245.23	97.454	119.64	53.339	9.6446e-06	41.536	0.00057367	0.00057752	0.00016151	771.54	6.424e-06	6.4115e-06	651.78	289.91	6.3563e-06	6.3642e-06	253.9	99.864	119.47	53.036	6.3469e-06	42.337	295.412	285.055	73.307	48.116	287.383	184.170	46.546	53.691	168.943	179.744	50.537	54.767	58.088	61.538	182.326	57.118	-8191	255	
1077.631	1	1	0	0	0.12437	0.12705	0.21149	0.26315	0.18402	0.12633	0.10356	0.11574	0.25589	0.25293	0.22521	0.3063	0.19439	0.34411	0.29298	0.078605	0.34583	0.60833	0.3125	-0.27083	0.79167	0.22292	0.27292	0.64167	0.083333	0.44375	0.60625	-0.38542	0.625	0.17083	-0.060417	0.76458	309.559	150.116	84.455	318.210	92.589	216.066	100.606	300.888	352.540	384.145	289.676	341.661	329.922	382.386	318.393	380.771	0.00059003	0.00048146	0.00014635	757.19	3.0797e-06	4.3111e-06	637.75	288.24	3.5744e-06	1.2872e-05	244.67	97.729	119.43	53.536	2.9662e-06	41.47	0.00058249	0.0005822	0.00016171	771.36	6.3508e-06	6.4043e-06	653.27	289.87	6.3597e-06	6.3984e-06	254.39	100.03	119.37	53.07	6.3892e-06	42.301	300.276	78.642	105.226	48.095	121.865	194.999	46.250	53.490	216.024	112.338	50.299	54.839	57.682	61.501	208.409	56.908	-8191	255	
1077.727	1	1	0	0	0.19179	0.14111	0.08373	0.13062	0.21836	0.19187	0.075505	0.37193	0.13276	0.18847	0.16944	0.059298	0.41095	0.19211	0.057567	0.099738	0.41458	0.40625	0.6875	-0.13542	0.72708	0.33125	-0.19792	0.43333	-0.0125	0.30833	0.35625	-0.10833	0.4875	0.23542	0.01875	0.81667	146.686	294.836	387.199	49.229	81.917	270.293	86.237	370.237	335.650	52.940	256.018	294.833	296.611	339.295	246.899	260.812	0.00055086	6.0748e-05	0.00027496	763.31	9.7541e-06	5.2422e-06	642.26	286.5	1.4229e-05	1.011e-05	242.48	96.917	119.01	53.3	1.562e-06	41.185	0.00058033	0.00058015	0.00016217	772.65	6.378e-06	6.383e-06	653.6	289.41	6.4072e-06	6.4251e-06	252.35	99.297	119.3	52.88	6.3671e-06	41.913	294.990	129.286	102.855	48.229	191.536	231.533	46.815	53.364	159.433	139.911	50.181	55.172	58.024	61.682	76.073	57.081	-8191	255	
1077.823	1	1	0	0	0.20995	0.25103	0.14749	0.05345	0.15495	0.24688	0.11519	0.22489	0.13921	0.074462	0.017171	0.34144	0.055625	0.20759	0.34806	0.17519	0.28542	0.34792	0.91667	-0.32292	0.51875	0.40208	-0.24583	0.56875	0.072917	0.13542	0.67917	-0.19583	0.3375	0.43125	-0.19792	0.53542	194.487	298.296	336.275	277.800	220.725	313.690	60.803	233.165	278.473	394.851	282.248	76.095	75.774	247.767	212.976	370.963	0.00036478	0.00054817	5.717e-05	753.26	4.6134e-06	7.1727e-06	637.27	285.92	1.0681e-05	5.3905e-06	242.39	96.899	118.88	53.243	1.2682e-05	41.208	0.00057775	0.00058153	0.00016138	768.19	6.3538e-06	6.3437e-06	649.48	288.34	6.3553e-06	6.3063e-06	252.08	99.239	118.78	52.751	6.311e-06	41.889	297.701	105.953	312.422	48.171	189.563	132.396	46.621	53.625	187.142	154.752	50.352	55.027	57.834	61.620	234.049	56.677	-8191	255	
1077.944	1	1	0	0	0.20363	0.043321	0.25736	0.26926	0.066369	0.12643	0.23168	0.094074	0.018243	0.14858	0.096017	0.028895	0.32359	0.18273	0.26743	0.13281	0.62917	0.13333	0.8	-0.23333	0.40208	0.67917	-0.33958	0.55208	0.1	0.16667	0.5625	-0.125	0.41667	0.61667	-0.30833	0.40833	302.199	176.808	49.107	265.910	290.497	179.044	93.877	308.722	125.330	183.534	241.874	301.630	384.065	335.488	202.644	338.906	0.00065445	0.00049945	9.9022e-05	753.98	2.661e-06	4.7561e-06	639.21	287.07	4.0591e-06	7.6106e-06	244.36	97.631	118.71	53.089	1.1119e-05	41.211	0.00057689	0.00057714	0.00016066	766.96	6.3323e-06	6.3299e-06	649.92	288.55	6.3684e-06	6.312e-06	253.13	99.603	118.9	52.74	6.3233e-06	41.943	312.351	61.011	217.341	48.217	128.775	336.053	46.612	53.773	358.271	168.546	50.339	55.281	57.896	61.578	174.985	57.051	-8191	255	
1078.038	1	1	0	0	0.098513	0.13751	0.28484	0.23314	0.20812	0.052264	0.39366	0.33674	0.17278	0.046253	0.072549	0.1316	0.095117	0.14209	0.23802	0.34046	0.55417	0.03125	0.86458	-0.17083	0.20208	0.63125	-0.15833	0.60625	0.28958	-0.1125	0.52708	-0.058333	0.16458	0.57292	-0.1125	0.40417	299.215	257.683	94.991	253.501	302.946	67.915	182.203	367.884	353.723	138.641	330.981	282.751	155.977	271.118	57.497	188.052	0.00043868	0.00058826	0.00021799	758.07	5.495e-06	1.1031e-05	642.3	286.52	6.1413e-06	3.0135e-06	244.76	98.181	118.85	53.418	1.2019e-05	41.477	0.00057047	0.00057736	0.00016076	771.11	6.3213e-06	6.3281e-06	654.01	289.26	6.3295e-06	6.2699e-06	253.7	100.02	119.14	52.797	6.3166e-06	42.294	301.500	150.902	287.811	48.213	178.994	146.328	46.529	53.506	220.294	108.874	50.454	55.230	57.849	61.758	227.508	56.935	-8191	255	
1078.134	1	1	0	0	0.20751	0.12435	0.051155	0.30573	0.15583	0.10555	0.073594	0.17181	0.27508	0.10671	0.025589	0.21701	0.061839	0.27631	0.089235	0.02965	0.74792	-0.19167	0.81458	0.020833	0.11667	0.66667	-0.21667	0.31667	0.43958	-0.12083	0.44583	0.0625	-0.00625	0.72292	0.035417	0.26667	374.691	318.369	237.206	341.615	349.029	179.878	335.018	298.766	223.617	35.744	366.791	64.226	335.405	39.707	314.491	212.950	0.00070134	0.00080789	8.2698e-05	763.7	8.4654e-06	2.3147e-06	643.53	287.31	1.0373e-05	1.1492e-05	245.25	97.146	118.75	53.107	1.1356e-05	40.943	0.00057394	0.0005766	0.00016129	773.8	6.3068e-06	6.2878e-06	655.54	288.95	6.3031e-06	6.2647e-06	253.3	99.526	118.86	52.649	6.2746e-06	41.861	317.756	36.677	180.269	48.250	178.019	272.650	46.540	53.557	183.040	113.658	50.151	55.085	58.169	61.326	137.361	56.719	-8191	255	
1078.230	1	1	0	0	0.05192	0.16715	0.11084	0.2007	0.13203	0.21818	0.13648	0.19363	0.05142	0.051231	0.13199	0.19851	0.29797	0.066554	0.035862	0.070857	0.81042	-0.041667	0.65208	0.1375	0.072917	0.70625	-0.0625	0.2875	0.75208	-0.12708	0.51667	0.3125	-0.047917	0.62917	0.064583	0.24792	133.095	114.529	115.619	358.991	77.311	195.688	341.096	385.386	354.270	391.964	227.836	344.683	347.828	260.558	98.850	118.901	0.00072665	0.00042392	0.00022404	765.37	2.2875e-06	8.9277e-06	643.48	286.93	9.13e-06	1.1871e-05	244.49	96.541	119.18	52.766	7.7665e-06	41.065	0.00057196	0.00057067	0.00016042	774.09	6.286e-06	6.2951e-06	654.25	288.03	6.288e-06	6.2239e-06	252.51	99.247	118.82	52.403	6.2784e-06	41.785	304.320	123.183	75.366	48.218	190.198	201.653	46.340	53.453	104.044	166.881	50.300	55.143	58.047	61.714	283.297	57.497	-8191	255	
1078.327	1	1	0	0	0.11746	0.30856	0.1412	0.094946	0.042809	0.065361	0.33019	0.16085	0.13147	0.21434	0.15186	0.10681	0.14174	0.10386	0.02243	0.27775	0.94792	-0.10833	0.56042	0.36875	-0.083333	0.69792	-0.0375	0.10208	0.62083	0.022917	0.57083	0.2375	-0.29583	0.63542	0.21875	0.058333	217.445	160.198	320.722	82.252	363.368	261.212	291.216	139.572	250.777	123.455	358.767	303.822	375.765	371.275	95.417	35.392	0.00072582	0.00034727	0.00017586	763.61	7.097e-06	8.9824e-06	642.41	286.81	7.422e-06	1.4816e-06	244.8	97.702	118.9	52.815	3.8764e-06	41.105	0.00056877	0.00057483	0.00015925	773.32	6.2818e-06	6.2614e-06	655.92	288.62	6.3226e-06	6.2786e-06	253.73	99.642	118.89	52.572	6.2694e-06	41.893	286.075	67.172	206.519	48.356	213.267	232.031	46.410	53.286	108.322	356.143	50.297	54.837	57.728	61.259	148.708	56.788	-8191	255	
1078.423	1	1	0	0	0.091783	0.28498	0.11364	0.1886	0.21945	0.10393	0.046186	0.10955	0.31514	0.11053	0.052558	0.14192	0.12295	0.060844	0.33575	0.24031	1.0083	-0.27917	0.5375	0.26042	-0.14375	0.59792	0.125	-0.083333	0.73542	-0.077083	0.30208	0.68542	-0.058333	0.47917	0.1625	0.10417	249.771	383.198	281.576	389.270	380.466	365.158	264.945	382.630	106.794	39.082	289.452	227.829	68.851	369.167	332.085	229.076	0.0007039	0.00024071	0.00025759	758.14	5.154e-06	4.95e-07	641.36	287.19	1.1677e-05	6.1263e-06	246.26	97.584	119.77	53.004	4.8949e-06	41.311	0.00057427	0.00057652	0.00016019	773.13	6.3096e-06	6.3278e-06	654.38	288.55	6.3571e-06	6.3202e-06	254.06	99.813	119.13	52.448	6.322e-06	42.184	287.296	164.059	110.654	48.412	155.239	126.727	46.898	53.356	103.295	292.703	50.525	55.227	57.893	61.474	174.699	56.754	-8191	255	
1078.543	1	1	0	0	0.22882	0.15272	0.025623	0.22198	0.26174	0.35715	0.071875	0.116	0.17675	0.070264	0.12079	0.31412	0.35751	0.23356	0.22303	0.29787	1.0479	0.072917	0.16667	0.49375	-0.11042	0.46875	0.14167	-0.077083	0.61667	-0.016667	0.3	0.48333	-0.5625	0.43333	0.30208	-0.17708	251.338	201.663	225.336	358.630	153.085	259.869	133.194	280.226	36.243	277.462	362.169	44.509	333.190	380.916	219.060	142.810	0.00059996	0.00042292	0.0003097	759.64	3.3111e-06	4.7139e-06	640.82	288.15	4.0056e-06	5.6333e-06	245.04	97.285	119.46	52.8	1.6191e-05	41.284	0.00057361	0.00057619	0.00016124	773.18	6.2818e-06	6.3245e-06	653.76	288.78	6.3104e-06	6.3015e-06	253.18	99.836	119.13	52.477	6.3298e-06	41.888	285.241	332.033	125.281	48.035	140.311	254.845	46.609	53.443	277.436	93.619	50.232	54.967	57.819	61.299	211.655	56.688	-8191	255	
1078.640	1	1	0	0	0.13963	0.1922	0.35163	0.17435	0.18282	0.26877	0.072327	0.30461	0.064487	0.11823	0.11646	0.22633	0.28611	0.26934	0.099927	0.086308	0.97917	-0.058333	0.15	0.7	0.014583	0.37708	0.30833	-0.23333	0.72083	0.14792	-0.12708	0.49167	-0.25	0.12292	0.59375	-0.325	73.112	35.905	231.134	292.845	84.059	204.055	210.692	374.522	76.962	112.284	200.554	330.088	352.726	395.040	139.563	359.888	0.0004819	0.00049407	0.00022813	758.75	3.3998e-06	2.3081e-06	637.63	285.97	4.0466e-06	4.7742e-06	243.63	97.272	119.16	52.693	3.8672e-06	41.093	0.00057798	0.00057326	0.00016011	770.97	6.3028e-06	6.3133e-06	653.11	287.75	6.3335e-06	6.3501e-06	253.33	99.48	118.74	52.288	6.3154e-06	41.776	311.519	280.224	81.898	48.173	143.841	47.260	46.590	53.187	182.407	229.861	49.812	55.081	57.744	61.210	218.538	56.873	-8191	255	
1078.736	1	1	0	0	0.24376	0.072438	0.021744	0.1573	0.16224	0.094601	0.35408	0.25639	0.14094	0.13225	0.31431	0.27147	0.086615	0.28516	0.22842	0.23703	1.0438	0.23958	0.0625	0.63333	-0.083333	0.38125	0.41042	-0.0875	0.475	0.375	-0.11458	0.72917	-0.17083	0.14583	0.73542	-0.11875	367.800	64.087	295.657	366.664	149.943	205.844	304.480	264.317	340.026	92.663	317.222	364.046	310.275	38.758	221.366	102.128	0.00048488	0.00043537	0.00013212	755.37	6.6519e-06	3.2914e-06	641.61	289.19	9.3701e-06	4.5155e-06	244.26	96.862	118.94	52.882	1.0405e-05	41.183	0.00057762	0.00057469	0.0001599	768.3	6.2687e-06	6.3204e-06	651.68	289.08	6.3301e-06	6.3322e-06	253.2	99.453	118.84	52.444	6.3658e-06	41.804	305.400	115.539	303.612	48.087	178.874	142.169	46.454	53.364	271.019	169.242	50.198	54.243	57.832	61.365	283.102	56.623	-8191	255	
1078.807	1	1	0	0	0.38825	0.10491	0.18958	0.4497	0.49996	0.33921	0.14196	0.42663	0.39592	0.15244	0.086826	0.20418	0.2507	0.14899	0.26153	0.47756	0.85833	0.1875	-0.2125	0.58333	-0.0020833	0.27708	0.57917	-0.29375	0.50833	0.30625	0.066667	0.60833	-0.0125	0.029167	0.725	-0.23333	64.669	232.713	88.517	311.968	80.346	343.756	365.648	307.853	252.175	160.180	117.166	381.703	52.619	386.387	240.799	366.007	0.00057276	0.00027443	0.00016475	755.31	1.4046e-05	5.247e-06	638.11	287.44	4.9369e-06	4.8372e-06	245.15	97.686	118.94	52.88	2.2646e-06	41.356	0.00057839	0.00057848	0.00016026	768.96	6.3452e-06	6.3554e-06	651.27	288.19	6.3709e-06	6.3553e-06	254.05	99.756	118.7	52.385	6.3844e-06	42.046	303.223	113.654	187.667	47.855	181.228	178.744	46.630	53.675	232.180	261.181	50.136	54.811	57.573	61.152	132.808	56.820	-8191	255	
1078.904	1	1	0	0	0.22453	0.16321	0.045165	0.23087	0.045095	0.28303	0.12917	0.29754	0.2474	0.13719	0.13539	0.12083	0.18256	0.24661	0.25694	0.33717	0.77708	0.48958	-0.0041667	0.66667	0.33125	0.125	0.69583	-0.13542	0.50208	0.57083	-0.52708	0.46458	0.10208	-0.085417	0.81875	-0.22083	278.650	390.138	327.711	321.140	91.201	167.141	350.013	275.595	190.188	154.519	55.104	263.152	299.209	134.161	383.422	313.244	0.00063458	0.00054429	4.8208e-05	753.85	3.1036e-06	4.8718e-06	639.77	285.26	7.274e-06	4.3969e-06	244.23	97.095	118.16	52.315	1.2796e-05	41.033	0.00057653	0.00057802	0.00016097	768.52	6.3163e-06	6.306e-06	651.44	287.54	6.3643e-06	6.3514e-06	253.12	99.451	118.36	52.11	6.3346e-06	41.74	294.166	54.950	189.760	47.995	237.820	199.801	46.587	53.404	154.796	124.278	50.175	54.461	57.767	61.140	163.994	56.666	-8191	255	
1079.022	1	1	0	0	0.079018	0.13004	0.09057	0.16391	0.15788	0.15651	0.19048	0.1907	0.12002	0.14376	0.14035	0.14995	0.073164	0.13251	0.099459	0.27434	0.81667	0.78333	-0.097917	0.5625	0.29167	-0.30208	0.57917	-0.12917	0.34375	0.6125	-0.23958	0.41458	0.375	-0.175	0.66667	-0.18958	76.671	49.331	90.158	141.221	182.169	79.409	371.603	348.400	300.615	340.253	372.189	122.461	258.230	352.770	84.199	311.384	0.0006625	0.00109	4.1942e-05	755.06	4.4435e-06	1.9212e-06	639.09	286.62	5.0776e-06	2.8255e-06	243.29	96.456	118.49	52.059	3.2811e-06	40.652	0.00057378	0.00058044	0.00016056	768.52	6.3034e-06	6.3067e-06	651.76	288.02	6.3417e-06	6.3048e-06	251.67	98.998	118.36	51.903	6.2717e-06	41.547	283.108	98.211	145.482	47.834	203.963	223.487	46.327	53.334	206.035	143.877	50.119	54.688	57.897	61.132	163.495	56.440	-8191	255	
1079.119	1	1	0	0	0.19437	0.36273	0.19309	0.11854	0.047107	0.14069	0.088063	0.32538	0.14635	0.087892	0.14052	0.33744	0.053545	0.12681	0.066162	0.088243	0.49792	0.68542	-0.14792	0.35833	0.43333	-0.0125	0.64583	-0.047917	0.12292	0.72917	-0.31042	0.29167	0.51875	-0.225	0.61042	-0.1	61.984	143.496	108.807	368.933	381.476	116.793	103.887	300.041	385.257	354.479	248.708	383.152	58.416	388.116	318.923	235.914	0.00051361	0.00015713	0.00017687	756.65	4.4421e-06	8.9479e-06	637.34	285.15	2.8236e-06	8.3485e-06	245.99	97.017	118.34	52.475	8.0866e-06	40.71	0.00057344	0.00057557	0.0001595	767.33	6.2703e-06	6.2521e-06	649.8	286.75	6.3037e-06	6.2992e-06	252.47	99.177	118.15	51.977	6.2955e-06	41.576	306.480	110.219	166.986	47.600	148.465	153.140	46.271	53.783	393.736	188.549	50.014	54.720	57.362	61.158	233.189	56.832	-8191	255	
1079.216	1	1	0	0	0.06971	0.20293	0.15642	0.043884	0.069984	0.26316	0.15425	0.19139	0.077588	0.1226	0.14465	0.24532	0.18918	0.34676	0.23715	0.031227	0.50833	0.52708	-0.26458	0.24792	0.50417	-0.12917	0.5125	0.14583	-0.01875	0.55625	0.033333	0.46458	0.60417	-0.083333	0.56042	-0.0041667	315.159	364.224	341.086	41.057	353.459	384.988	315.286	318.294	195.697	46.363	97.877	380.036	348.443	316.743	86.212	89.492	0.00052734	0.00064737	0.00016316	754.32	3.9523e-06	6.8175e-06	638.01	285.93	1.4215e-05	1.275e-05	243.26	96.904	117.88	52.215	7.6558e-06	40.717	0.00057143	0.00057244	0.00015912	766.1	6.3069e-06	6.2702e-06	649.96	286.92	6.2822e-06	6.2687e-06	253	99.209	117.92	51.693	6.2874e-06	41.567	287.821	197.751	387.520	47.674	98.640	166.052	46.580	53.359	121.783	155.171	50.506	54.791	57.612	61.229	176.793	57.025	-8191	255	
1079.335	1	1	0	0	0.11808	0.072184	0.2055	0.14312	0.04908	0.24407	0.2453	0.36388	0.043827	0.12395	0.10259	0.045416	0.019924	0.017389	0.14418	0.13325	0.24583	0.925	0.010417	0.19583	0.61667	-0.04375	0.32292	0.25625	-0.022917	0.73958	-0.16875	0.18958	0.46042	-0.070833	0.52292	0.275	229.503	118.652	380.745	95.164	262.651	63.309	300.232	338.822	372.469	374.967	307.496	201.838	224.691	239.881	159.535	111.713	0.00050024	0.00043466	0.00019137	757.51	6.8435e-06	4.0431e-06	640.97	286.78	1.0627e-05	5.4437e-06	245.06	96.955	118.18	52.138	7.15e-06	41.127	0.00057401	0.00057757	0.00016077	769.64	6.2919e-06	6.2633e-06	653.46	287.68	6.3487e-06	6.2734e-06	253.74	99.528	118.27	51.737	6.2833e-06	41.661	298.963	147.268	124.645	47.745	195.734	255.768	46.288	53.148	43.222	209.214	50.087	54.496	57.704	61.099	221.492	57.127	-8191	255	
1079.407	1	1	0	0	0.23625	0.28219	0.1199	0.13818	0.18198	0.027533	0.13547	0.063782	0.28697	0.11651	0.20771	0.42391	0.063367	0.057967	0.1289	0.10188	0.12292	0.81042	0.025	0.097917	0.9125	0.014583	0.40208	0.3	-0.17708	0.775	0.13958	0.03125	0.57917	-0.0625	0.33958	0.52083	268.218	205.013	360.611	39.500	182.149	364.215	324.974	44.388	340.254	232.362	78.229	314.302	191.867	83.682	83.844	361.633	0.00078632	0.00071829	0.00010558	756.03	3.2176e-06	3.7106e-06	642.67	286.17	5.7355e-06	3.7322e-06	244.69	97.172	118	52.152	3.2075e-06	40.65	0.00057543	0.00057517	0.00015932	770.06	6.3407e-06	6.3036e-06	655.22	287.66	6.3338e-06	6.3768e-06	253.74	99.403	118.14	51.776	6.3171e-06	41.539	301.696	182.337	178.762	47.886	190.741	247.069	46.289	53.088	103.794	237.434	50.345	54.640	57.506	61.152	190.599	56.804	-8191	255	
1079.503	1	1	0	0	0.18286	0.14748	0.15674	0.092665	0.092151	0.24456	0.061602	0.086291	0.082799	0.061923	0.15704	0.052246	0.10477	0.12346	0.26184	0.13752	0.175	0.81667	0.27917	-0.13958	0.80208	-0.0020833	0.44583	0.425	-0.15833	0.675	0.22708	-0.11042	0.73125	-0.11667	0.48333	0.65833	38.107	386.803	330.692	204.954	46.373	279.143	142.933	38.234	243.710	351.550	66.713	364.934	79.441	373.583	251.026	289.690	0.00061957	0.00041325	0.00019277	756.9	1.0686e-05	5.1777e-06	638.32	285.16	5.1043e-06	6.6093e-06	244.49	96.509	117.51	52.213	8.7077e-06	40.976	0.00057482	0.00057815	0.00015955	769.97	6.2722e-06	6.3348e-06	651.67	287.56	6.3032e-06	6.3019e-06	253.18	99.209	117.94	51.884	6.3292e-06	41.69	296.126	177.383	60.836	47.676	181.624	152.721	45.908	53.352	182.133	283.007	49.929	54.696	57.708	61.231	193.460	56.638	-8191	255	
1079.624	1	1	0	0	0.30105	0.11719	0.069289	0.083337	0.086131	0.21085	0.18108	0.30056	0.3148	0.26272	0.23164	0.054363	0.65228	0.12121	0.093775	0.19154	0.10625	0.57708	0.47708	-0.11042	0.84167	0.077083	0.27292	0.575	-0.26667	0.56042	0.30625	0.04375	0.53542	0.18125	0.14167	0.61458	131.978	186.069	116.299	330.929	109.918	258.085	309.876	93.169	332.491	115.910	389.052	136.131	361.608	305.624	265.190	320.816	0.00082542	0.0004524	0.00019508	758.08	4.2667e-06	4.7029e-06	641.19	286.6	6.2396e-06	5.2287e-06	247.81	97.891	118.83	52.445	6.535e-06	41.146	0.00057781	0.00057704	0.00016044	769.76	6.3306e-06	6.3652e-06	653.84	287.64	6.3109e-06	6.3207e-06	254.17	99.662	118.46	52.005	6.318e-06	41.884	304.830	62.697	66.338	47.751	155.887	177.374	45.989	53.300	160.186	175.670	49.881	54.583	57.636	61.083	132.064	56.667	-8191	255	
1079.720	1	1	0	0	0.13873	0.1975	0.1502	0.2994	0.33539	0.35984	0.079927	0.19313	0.027446	0.15877	0.23876	0.065661	0.30131	0.32311	0.26822	0.16038	0.16667	0.60625	0.61042	-0.18333	0.8125	0.066667	0.060417	0.65625	0.0125	0.44167	0.51875	-0.21875	0.4	0.19792	0.04375	0.83333	382.884	278.562	214.755	388.765	263.195	225.259	370.110	88.995	161.749	212.583	311.347	87.225	40.516	311.505	297.054	122.149	0.0007883	0.00051804	0.00016255	756.97	4.4878e-06	3.832e-06	642.71	286.71	5.8045e-06	3.8621e-06	247.24	97.835	118.97	52.331	3.8732e-06	41.212	0.00057719	0.00057785	0.00016019	769.47	6.2757e-06	6.3086e-06	654.85	288.04	6.3014e-06	6.3103e-06	254.84	100.09	118.66	52.068	6.3521e-06	42.039	309.748	52.700	155.580	48.156	133.048	290.061	46.545	53.320	152.270	146.250	50.157	54.572	57.639	61.459	185.194	56.444	-8191	255	
1079.816	1	1	0	0	0.17116	0.046155	0.21006	0.18276	0.069385	0.17125	0.32576	0.12104	0.075303	0.19526	0.13584	0.34339	0.23377	0.20363	0.21698	0.22565	0.047917	0.35833	0.63333	-0.11042	0.44375	0.34792	0.10417	0.52917	0.0375	0.275	0.59375	-0.06875	0.52708	0.275	-0.18333	0.7375	155.617	338.402	57.096	56.943	149.115	266.405	369.887	37.812	226.009	109.615	378.452	362.068	365.337	323.174	375.708	52.093	0.00054719	0.0002264	4.6422e-05	756.64	4.97e-06	4.2501e-06	637.47	285.31	8.7803e-06	1.875e-06	244.29	96.948	118.29	52.119	6.3121e-06	40.954	0.00057693	0.00057658	0.0001609	768.68	6.2495e-06	6.3441e-06	653.06	286.71	6.3433e-06	6.3143e-06	252.87	99.219	118.08	51.839	6.2993e-06	41.568	299.921	83.670	326.037	47.833	118.457	172.897	46.375	53.353	219.901	93.008	49.776	54.449	57.369	61.075	156.030	56.774	-8191	255	
1079.937	1	1	0	0	0.14589	0.26532	0.20725	0.13368	0.14552	0.16728	0.20104	0.0062435	0.057468	0.13809	0.015621	0.24566	0.40728	0.21238	0.20095	0.20719	0.45	0.24167	0.75208	-0.072917	0.4	0.43333	-0.21458	0.56458	0.14167	0.28542	0.77083	0.03125	0.42083	0.54167	-0.052083	0.55208	299.641	159.603	346.796	41.017	113.257	310.879	263.941	376.151	249.995	257.855	163.409	355.050	368.422	85.452	140.066	61.953	0.00038663	0.00040624	0.0002466	754.79	1.7118e-06	5.6288e-06	634.38	284.84	1.4612e-05	1.7406e-06	243.15	97.553	117.83	52.161	1.0285e-05	40.645	0.00057612	0.00057799	0.00016206	766.05	6.3244e-06	6.3873e-06	649.93	286.29	6.3337e-06	6.2799e-06	252.27	99.403	117.79	51.752	6.2951e-06	41.567	283.449	107.003	117.784	47.511	98.975	215.702	46.239	53.213	166.568	177.729	50.109	54.254	57.336	60.994	152.178	56.427	-8191	255	
1080.031	1	1	0	0	0.20759	0.045599	0.032015	0.14624	0.057337	0.33707	0.34535	0.14076	0.25814	0.15439	0.058892	0.26687	0.12443	0.17001	0.063232	0.075919	0.45625	0.06875	0.72083	-0.3	0.63958	0.59167	-0.31458	0.59375	0.36042	0.04375	0.675	-0.26458	0.22292	0.73958	-0.24583	0.63542	385.061	306.430	132.198	43.018	277.742	261.759	379.911	286.838	326.300	290.903	353.457	76.863	38.047	103.845	284.617	102.321	0.00051727	0.00059885	0.0001461	754.38	1.0333e-05	4.7e-06	639.75	285.07	5.3625e-06	2.3323e-06	243.61	97.043	117.82	51.906	1.0939e-05	41.081	0.00057494	0.00057913	0.00015993	766.07	6.281e-06	6.3169e-06	650.46	286.24	6.3201e-06	6.3275e-06	252.13	99.302	117.69	51.701	6.2249e-06	41.743	310.199	96.023	120.804	47.728	199.039	370.080	46.194	53.004	281.224	101.012	50.170	54.451	57.526	61.265	245.629	56.286	-8191	255	
1080.103	1	1	0	0	0.24065	0.18155	0.13862	0.084237	0.20294	0.22423	0.041616	0.09755	0.23952	0.1528	0.23358	0.011889	0.042585	0.23765	0.13784	0.12914	0.79167	0.05625	0.69375	0.016667	0.2125	0.55833	-0.14167	0.37917	0.35417	-0.18542	0.7875	-0.05	0.072917	0.60417	-0.10208	0.33958	367.382	173.997	214.242	394.930	148.815	101.055	304.661	239.562	341.587	61.765	129.036	226.326	58.296	323.383	56.517	364.330	0.00056374	0.00040276	0.0001762	752.32	5.3168e-06	6.4351e-06	642.99	283.75	4.03e-06	1.0722e-05	247.02	97.302	118.07	51.866	7.8408e-06	40.922	0.00057274	0.00057419	0.00015922	766.57	6.2738e-06	6.2848e-06	652.46	286.46	6.2674e-06	6.3184e-06	254.53	99.506	117.63	51.579	6.2987e-06	41.619	291.302	171.591	215.970	47.760	170.772	148.934	46.588	52.930	131.024	177.657	49.969	54.988	57.341	61.213	185.955	56.085	-8191	255	
1080.199	1	1	0	0	0.17181	0.38471	0.12448	0.085979	0.18214	0.22673	0.07453	0.084213	0.073868	0.16364	0.21678	0.10693	0.20614	0.16579	0.17587	0.081985	0.9875	-0.18125	0.6	0.08125	0.15625	0.73958	-0.37292	0.36458	0.44792	-0.12708	0.66875	0.12917	-0.1	0.58958	-0.22917	0.24167	179.479	72.509	143.620	195.107	378.574	96.472	94.798	38.598	367.561	363.407	236.324	351.144	383.833	363.226	289.445	227.930	0.00076571	0.00012984	0.00010693	757.68	8.391e-06	1.3825e-06	643.31	284.8	8.1588e-06	8.4879e-06	243.57	96.801	117.38	51.836	1.3949e-05	40.606	0.00057545	0.00057408	0.00015973	770.23	6.2248e-06	6.3107e-06	654.36	285.98	6.2723e-06	6.2378e-06	252.5	98.918	117.2	51.331	6.2796e-06	41.191	284.236	135.016	265.016	47.909	159.905	72.705	46.316	53.066	210.428	265.989	50.015	54.772	57.340	60.737	144.625	56.415	-8191	255	
1080.320	1	1	0	0	0.21133	0.23671	0.086927	0.15719	0.21649	0.017613	0.18252	0.25824	0.23959	0.065385	0.30949	0.22175	0.1944	0.30699	0.091936	0.39139	0.93958	0.058333	0.54792	0.33542	-0.022917	0.75	-0.020833	0.24167	0.60208	-0.1125	0.50833	0.0125	-0.23333	0.63542	0.14375	0.22292	70.391	191.272	192.323	186.944	327.046	40.041	287.481	45.627	375.108	180.014	289.381	281.523	208.628	119.675	195.074	285.750	0.00053611	0.00034776	0.00023959	755.79	4.1204e-06	4.5215e-06	641.49	283.02	2.8123e-06	8.5269e-06	245.1	96.984	116.56	51.419	1.0701e-05	40.521	0.00056807	0.00057106	0.00015852	768.13	6.2315e-06	6.2517e-06	652.02	285.33	6.2536e-06	6.2114e-06	252.62	98.683	116.87	51.047	6.2005e-06	41.285	294.656	92.317	331.946	47.775	173.188	210.218	46.109	53.365	190.773	180.571	49.809	54.646	57.344	61.096	260.577	56.646	-8191	255	
1080.416	1	1	0	0	0.082514	0.36843	0.15001	0.24869	0.21177	0.071219	0.17091	0.32636	0.042251	0.12648	0.21183	0.17679	0.040733	0.084515	0.12361	0.23763	1.1	-0.21667	0.48333	0.47708	-0.2125	0.5375	0.091667	0.25417	0.63542	-0.010417	0.30625	0.48542	-0.20417	0.5125	0.12292	-0.047917	309.682	223.405	184.321	348.245	88.024	153.862	84.947	364.840	112.045	192.100	363.078	338.013	333.825	361.845	232.356	382.297	0.00069857	0.00099478	0.00010367	755.69	9.9988e-06	3.1028e-06	640.17	283.54	5.7554e-06	2.5102e-06	246.18	96.146	117.29	51.282	1.5579e-05	40.374	0.00056928	0.0005652	0.00015834	767.32	6.2598e-06	6.1837e-06	651.97	285.02	6.2268e-06	6.2528e-06	252.78	98.761	117.17	51.154	6.2152e-06	41.281	288.499	123.659	174.634	48.061	224.874	214.122	46.389	53.077	208.335	38.100	49.570	54.750	57.555	61.020	179.775	56.825	-8191	255	
1080.512	1	1	0	0	0.076757	0.30901	0.011031	0.17401	0.046455	0.040378	0.087807	0.28671	0.12369	0.14103	0.12348	0.16041	0.21812	0.19474	0.17311	0.29557	1.0625	-0.045833	0.26875	0.45417	0.085417	0.73333	0.0875	-0.1125	0.58333	-0.12917	0.16667	0.61875	-0.095833	0.45208	0.28542	-0.26458	77.246	72.723	318.488	139.696	312.601	160.224	223.091	378.756	106.027	340.041	83.919	120.535	51.933	40.759	340.624	318.850	0.00063997	0.00029555	0.00013484	754.09	6.1837e-06	8.5501e-06	642.15	285.4	3.2346e-06	1.1309e-05	242.96	97.478	117.2	51.838	2.512e-06	40.713	0.00057085	0.00057046	0.00015877	767.94	6.2413e-06	6.2679e-06	654.14	286.51	6.2405e-06	6.2896e-06	253.43	99.418	117.27	51.375	6.2821e-06	41.575	290.887	176.505	91.841	47.853	97.450	241.942	46.395	53.385	170.021	266.107	49.735	54.934	57.631	61.403	241.787	56.457	-8191	255	
1080.608	1	1	0	0	0.25524	0.056691	0.19879	0.29581	0.39648	0.16781	0.34614	0.08485	0.2386	0.039438	0.094905	0.090748	0.44631	0.23352	0.15387	0.15982	0.98125	0	0.19792	0.57292	-0.04375	0.625	0.45833	-0.14167	0.61667	0.010417	0.11875	0.66458	-0.44375	0.37083	0.30625	-0.22917	373.192	363.728	241.133	391.899	355.382	245.753	338.078	321.039	366.952	290.811	187.298	386.195	357.368	349.028	107.535	84.091	0.00061125	0.00065801	8.8688e-05	755.7	9.5214e-07	3.1334e-06	646.38	284.84	4.3039e-06	7.4118e-06	243.52	96.917	117.27	51.607	5.3092e-06	40.326	0.0005726	0.00057087	0.00015931	769.2	6.2428e-06	6.2894e-06	654.29	286.01	6.2538e-06	6.3039e-06	252.58	99.057	117.2	51.23	6.2643e-06	41.242	285.689	340.919	134.590	47.944	122.816	231.074	45.882	53.140	159.548	303.891	49.628	54.532	57.629	60.782	176.433	56.676	-8191	255	
1080.704	1	1	0	0	0.12513	0.26232	0.13442	0.16719	0.3541	0.12193	0.025331	0.34803	0.14314	0.13951	0.062816	0.22887	0.14884	0.22334	0.1172	0.17204	1.1208	0.10625	0.01875	0.55833	-0.23125	0.31458	0.31875	-0.1125	0.69167	-0.0625	-0.0020833	0.53333	-0.070833	0.13958	0.76458	-0.24375	153.274	207.228	70.755	284.405	373.644	273.912	386.422	295.475	39.220	327.711	243.080	379.253	67.935	267.441	204.286	243.773	0.00082929	0.00033947	0.00022552	757.44	6.4353e-06	9.1e-07	637.74	283.75	5.96e-06	4.5439e-06	241.48	96.646	116.35	51.002	5.5687e-06	40.337	0.0005723	0.00057033	0.00015837	766.42	6.2448e-06	6.2562e-06	650.19	284.87	6.2478e-06	6.2695e-06	251.45	98.812	116.93	51.075	6.2528e-06	41.209	301.306	109.649	209.017	47.728	244.027	314.640	46.453	53.285	194.149	362.414	50.030	54.660	57.491	60.985	275.245	56.443	-8191	255	
1080.800	1	1	0	0	0.21028	0.11369	0.095081	0.27735	0.23849	0.15255	0.085321	0.18543	0.15118	0.3183	0.12377	0.17599	0.29195	0.067882	0.14247	0.41897	1.0792	0.3125	-0.09375	0.6875	-0.175	0.31458	0.68958	-0.19375	0.6625	0.31667	-0.17708	0.41875	-0.075	0.13542	0.54375	-0.25	294.894	202.934	271.178	374.835	321.334	116.236	386.704	232.709	346.268	90.018	357.373	374.142	47.390	357.554	50.470	283.346	0.00065722	0.00049682	0.00014405	755.38	7.3376e-06	9.4466e-06	636.36	283.37	2.4916e-06	1.2211e-06	242.55	96.876	117.36	51.296	1.0397e-05	40.705	0.00057554	0.00057412	0.00015885	765.66	6.2717e-06	6.2768e-06	650.23	285.22	6.3269e-06	6.2711e-06	251.9	98.92	117.12	51.179	6.2908e-06	41.403	275.251	182.761	121.454	47.787	230.877	75.356	46.273	53.119	191.460	116.310	50.118	54.511	57.629	61.213	170.585	56.540	-8191	255	
1080.896	1	1	0	0	0.024333	0.14318	0.14503	0.083285	0.079381	0.082402	0.3874	0.19968	0.21166	0.11064	0.16718	0.088602	0.035695	0.13401	0.15789	0.48552	0.97292	0.35208	-0.15	0.62708	0.085417	0.04375	0.54375	-0.20208	0.48333	0.49375	-0.1875	0.56458	0.1375	-0.1125	0.71458	-0.17708	221.549	252.261	160.741	36.421	361.823	128.679	355.298	216.502	336.822	158.395	347.103	243.239	105.980	332.287	106.550	355.525	0.0007869	0.00058097	0.00013781	751.34	1.8176e-06	4.4162e-06	640.11	285.68	6.0158e-06	5.1793e-06	245.05	96.727	117.27	51.573	8.4029e-06	40.872	0.0005708	0.0005692	0.00015898	763.7	6.2381e-06	6.3234e-06	651.04	285.84	6.2997e-06	6.306e-06	252.53	99.114	117.14	51.266	6.3148e-06	41.57	304.281	61.504	143.819	48.043	386.896	49.106	46.551	53.445	156.514	119.696	50.533	54.951	57.770	61.158	228.593	56.643	-8191	255	
1081.017	1	1	0	0	0.19728	0.13027	0.29114	0.26747	0.2442	0.19903	0.37542	0.021417	0.27544	0.12058	0.039768	0.24342	0.35428	0.29167	0.19036	0.054351	0.7	0.51042	-0.17292	0.66458	0.3375	0.045833	0.62083	-0.21667	0.2625	0.34167	-0.35625	0.61458	0.070833	-0.125	0.58333	-0.016667	64.742	207.442	199.663	315.243	302.567	119.733	197.785	127.415	45.078	356.436	131.564	99.319	382.892	316.380	138.002	76.251	0.00052331	0.00074866	0.00013928	751.89	5.9691e-06	2.8612e-06	641.84	283.53	1.0205e-05	9.3061e-06	242.75	96.541	117.22	51.35	6.4942e-06	40.666	0.0005756	0.00057845	0.0001607	765.01	6.3223e-06	6.2848e-06	652.42	285.1	6.326e-06	6.2228e-06	251.86	98.852	116.98	51.17	6.324e-06	41.347	296.598	97.627	393.857	48.030	169.415	394.044	46.418	53.426	197.618	153.508	49.661	54.817	57.902	61.320	210.686	56.555	-8191	255	
1081.111	1	1	0	0	0.18061	0.14141	0.15	0.31575	0.38597	0.11764	0.14789	0.12608	0.28938	0.24383	0.13979	0.1928	0.19734	0.14195	0.071025	0.051013	0.52083	0.54167	-0.039583	0.4	0.27292	-0.15833	0.6125	0.01875	0.225	0.60208	-0.04375	0.52292	0.3	-0.28958	0.65833	-0.025	378.167	279.612	70.527	384.749	200.317	198.554	104.676	43.567	165.896	297.955	330.078	99.796	105.465	385.572	369.230	50.842	0.00080446	7.6357e-05	0.00020756	750.74	5.6707e-06	5.2765e-06	638.5	282.96	7.1379e-06	4.5036e-06	243.09	96.023	115.96	50.97	8.3347e-06	40.188	0.00057459	0.00057753	0.00015953	764.19	6.2527e-06	6.3341e-06	650.7	284.8	6.2429e-06	6.2689e-06	251.45	98.344	116.46	50.815	6.3187e-06	40.995	284.583	157.247	95.854	47.950	142.091	181.593	46.249	53.423	146.643	156.027	50.203	54.844	57.844	61.234	324.995	56.487	-8191	255	
1081.208	1	1	0	0	0.071067	0.131	0.1225	0.28638	0.058948	0.18437	0.064585	0.21365	0.24171	0.074821	0.10874	0.092338	0.252	0.39506	0.2009	0.2025	0.69167	0.89583	-0.17083	0.24375	0.5875	-0.41875	0.65	0.054167	0.016667	0.68333	-0.23958	0.29583	0.49792	-0.16042	0.64167	-0.079167	104.734	381.372	295.525	322.591	190.617	37.716	385.119	316.819	54.404	141.637	172.669	287.169	328.728	355.544	68.823	354.323	0.00063902	0.00068252	0.00019581	748.81	5.6924e-06	3.9326e-06	637.64	282.62	8.2201e-06	1.085e-05	243.06	96.806	115.99	51.083	7.3157e-06	40.238	0.00057115	0.00057304	0.00015944	762.12	6.2349e-06	6.3021e-06	648.22	284.22	6.2515e-06	6.2381e-06	251.2	98.549	116.22	50.788	6.1563e-06	41.148	295.386	133.563	163.976	48.031	180.191	120.025	46.067	53.381	165.310	219.414	50.358	54.698	58.045	61.431	273.168	56.892	-8191	255	
1081.304	1	1	0	0	0.090056	0.034076	0.15298	0.20635	0.251	0.15509	0.10145	0.13168	0.32446	0.091552	0.18761	0.32707	0.24315	0.054007	0.16963	0.056882	0.30833	0.78333	0.016667	0.29375	0.53333	-0.22292	0.53333	0.022917	-0.089583	0.62917	0.054167	0.13125	0.69375	-0.40208	0.53958	0.5375	202.303	359.193	367.787	201.047	273.853	72.048	202.781	390.803	395.592	90.494	289.986	52.920	49.873	276.699	360.896	200.716	0.00046681	0.00050042	0.00010905	751.2	5.3513e-06	5.3399e-06	641.7	282.36	8.3064e-06	5.3375e-06	245.26	97.113	116.77	51.218	4.0465e-06	40.658	0.00056399	0.00056971	0.00015786	764.56	6.2386e-06	6.2346e-06	651.6	284.36	6.2208e-06	6.2346e-06	252.66	98.958	116.57	50.787	6.2115e-06	41.295	308.078	51.476	160.292	48.111	186.365	109.231	46.394	53.579	60.441	137.700	50.498	54.805	57.932	61.424	368.344	57.090	-8191	255	
1081.400	1	1	0	0	0.14043	0.07294	0.031135	0.20854	0.096286	0.099201	0.20842	0.042386	0.36119	0.10628	0.30494	0.090605	0.16861	0.35413	0.10337	0.23875	0.15625	0.72708	0.10625	0.225	0.6875	-0.06875	0.23542	0.32292	-0.12917	0.64792	-0.01875	0.010417	0.57708	-0.20417	0.47083	0.14375	146.324	123.777	300.350	44.845	357.862	384.657	285.475	182.815	143.990	146.495	42.507	144.507	381.879	46.351	56.742	279.173	0.00059877	5.9242e-05	0.00023813	752.93	8.575e-06	3.8627e-06	646.73	282.36	3.9545e-06	9.2493e-06	243.75	96.983	116.4	51.092	6.1877e-06	40.423	0.00056621	0.00056637	0.00015735	767.77	6.2069e-06	6.2512e-06	655.16	284.7	6.2439e-06	6.2686e-06	252.94	99.067	116.27	50.732	6.2303e-06	41.15	293.103	214.849	177.712	48.040	120.300	327.925	46.359	53.544	246.146	182.754	50.247	54.597	57.655	61.323	195.517	57.023	-8191	255	
1081.494	1	1	0	0	0.037105	0.27222	0.043838	0.19997	0.17501	0.2086	0.074395	0.19872	0.10934	0.07081	0.15817	0.166	0.15447	0.25191	0.020509	0.15469	0.097917	0.47708	0.26042	-0.054167	0.72083	-0.29583	0.3875	0.58958	-0.16875	0.4625	0.27708	-0.079167	0.56042	-0.27917	0.32083	0.47292	189.839	285.490	283.484	328.236	177.966	257.185	155.365	348.418	53.125	127.447	377.173	39.337	345.944	104.216	246.840	48.504	0.00062609	0.00072015	0.00016918	753.9	4.5821e-06	1.1638e-05	640.2	282.63	8.0692e-06	5.7659e-06	242.43	96.368	116.37	50.796	2.2249e-06	40.612	0.00057359	0.00056733	0.00015903	766.52	6.2532e-06	6.2833e-06	652.73	284.4	6.2257e-06	6.2962e-06	251.75	98.522	116.23	50.589	6.3028e-06	41.027	314.390	149.810	140.631	47.828	183.406	241.701	46.486	53.795	88.175	246.128	50.370	54.885	57.677	61.498	86.921	57.025	-8191	255	
1081.615	1	1	0	0	0.21244	0.14643	0.39958	0.19681	0.14318	0.23782	0.14048	0.13297	0.2038	0.18143	0.16485	0.22716	0.24639	0.21012	0.054398	0.24342	0.1875	0.675	0.19167	-0.19167	0.73542	-0.022917	0.11875	0.51042	-0.22708	0.53125	0.30833	-0.17292	0.63958	-0.010417	0.12917	0.57083	162.608	48.607	282.327	332.482	74.431	333.791	378.577	60.245	356.245	49.789	235.540	281.905	308.892	360.286	370.544	120.950	0.00056034	0.00088484	8.8877e-05	755.79	3.4758e-06	4.321e-06	640.45	281.71	3.2195e-06	1.2595e-05	244.07	96.706	116.45	50.724	7.008e-06	40.417	0.00057603	0.00057507	0.00015994	766.02	6.2564e-06	6.3073e-06	651.98	284.17	6.2197e-06	6.2476e-06	252.25	98.733	116.09	50.645	6.3004e-06	41.154	291.745	76.030	281.507	48.094	246.464	210.520	46.212	53.371	143.365	148.288	50.640	54.427	57.786	61.182	239.965	56.771	-8191	255	
1081.711	1	1	0	0	0.1672	0.25323	0.15862	0.32504	0.18581	0.11851	0.21506	0.049061	0.14259	0.19047	0.22546	0.12144	0.23326	0.31434	0.21912	0.042294	0.21042	0.44583	0.5	-0.28333	0.66042	-0.014583	-0.20625	0.74375	-0.35208	0.3875	0.575	-0.15625	0.39583	0.060417	0.016667	0.64583	331.424	386.800	324.808	332.215	42.867	379.959	134.335	170.744	185.209	288.131	58.420	222.090	306.523	328.609	385.997	78.501	0.00061026	0.00093865	0.00018321	752.72	9.9384e-06	8.5195e-07	641.94	284.12	2.6725e-06	6.3569e-06	245.71	96.476	116.04	51.386	1.3068e-06	40.739	0.00057275	0.00057704	0.00015875	765.06	6.3119e-06	6.276e-06	652.54	284.5	6.3231e-06	6.2507e-06	252.98	98.913	116.32	50.724	6.2683e-06	41.328	292.524	59.006	174.306	47.961	258.497	302.125	46.476	53.474	379.537	156.988	49.997	54.789	57.535	61.129	47.340	56.701	-8191	255	
1081.807	1	1	0	0	0.20895	0.14752	0.08833	0.23121	0.27067	0.21792	0.37363	0.23264	0.1715	0.11575	0.2821	0.22458	0.30068	0.36732	0.22437	0.15194	0.24167	0.4125	0.52708	-0.20833	0.50625	0.26458	-0.19792	0.59792	0.10833	0.425	0.49792	-0.31875	0.45417	0.20833	0.072917	0.60208	335.008	198.702	170.096	379.172	262.601	252.164	385.688	322.873	364.590	222.521	320.181	235.854	75.320	369.272	320.262	313.229	0.00088818	0.00074426	2.0483e-05	752.9	2.1258e-06	2.8806e-06	641.18	282.34	1.1438e-05	8.8396e-06	243.78	96.444	116.21	51.184	1.3504e-05	40.227	0.00057585	0.00057547	0.00015968	764.93	6.2665e-06	6.2973e-06	652.9	284.5	6.2842e-06	6.2925e-06	252.87	98.922	116.26	50.736	6.2538e-06	41.128	286.813	77.396	220.073	47.990	143.965	273.574	46.297	53.448	271.867	135.249	50.149	54.708	57.560	61.396	184.649	56.192	-8191	255	
1081.903	1	1	0	0	0.088121	0.25738	0.14654	0.12831	0.020194	0.13259	0.27406	0.33252	0.14705	0.032642	0.28653	0.084084	0.33702	0.12431	0.064531	0.15998	0.37083	0.29375	0.77708	0.022917	0.5	0.49167	-0.32917	0.70625	0.20833	0.14583	0.59375	-0.058333	0.34375	0.28333	-0.0625	0.60833	99.590	297.477	104.929	360.871	228.783	362.920	357.413	295.757	222.509	248.072	251.408	128.997	345.978	76.768	378.715	363.842	0.00033585	0.00046144	7.441e-05	749.25	7.4938e-06	7.9691e-06	638.18	281.36	7.2222e-06	4.6075e-06	242.61	96.119	114.96	50.689	5.3825e-06	40.114	0.00057404	0.00057712	0.00016136	762.84	6.291e-06	6.3569e-06	650.31	283.12	6.3359e-06	6.3005e-06	252.06	98.262	115.67	50.414	6.2605e-06	40.845	287.393	63.567	115.616	47.896	156.614	159.266	46.004	53.181	102.190	178.121	49.936	54.770	57.616	61.174	158.528	56.766	-8191	255	
1082.000	1	1	0	0	0.17666	0.10988	0.14045	0.09945	0.084241	0.17052	0.31975	0.18328	0.11897	0.039967	0.014495	0.11956	0.26133	0.38441	0.21431	0.08679	0.41042	0.14167	0.73333	-0.2	0.42917	0.5625	-0.14583	0.51875	0.20417	-0.033333	0.69792	-0.091667	0.42708	0.35833	-0.0625	0.60208	68.323	232.820	77.091	333.566	110.275	182.232	306.090	331.154	265.879	177.903	143.966	140.603	351.273	339.072	289.956	207.787	0.00057358	0.0011822	0.00017095	753.12	4.1634e-06	8.2021e-06	642.91	281.17	4.2245e-06	6.439e-06	241.64	96.714	115.66	50.803	1.1051e-05	40.335	0.00057213	0.0005768	0.00016126	763.23	6.3196e-06	6.285e-06	650.64	282.52	6.2473e-06	6.2814e-06	251.39	98.662	115.84	50.431	6.2629e-06	40.998	314.779	65.509	91.078	48.039	201.711	125.012	46.282	53.085	382.829	78.815	50.065	54.536	57.397	61.240	224.185	56.542	-8191	255	
1082.096	1	1	0	0	0.13145	0.20316	0.20413	0.32704	0.21653	0.18927	0.32835	0.27202	0.22026	0.15418	0.093643	0.20673	0.088504	0.16958	0.12005	0.17453	0.59375	-0.0625	0.64583	-0.0875	0.37708	0.62917	-0.32083	0.39167	0.24792	-0.16042	0.73542	-0.091667	0.11042	0.51875	-0.14583	0.42708	73.557	332.451	357.264	282.481	129.431	49.952	386.690	355.732	341.830	272.993	178.436	283.019	128.825	41.416	245.128	39.492	0.00066996	0.00031583	0.00018032	747.45	4.8945e-07	1.1976e-06	636.78	280.71	1.0853e-05	2.6543e-06	244.26	96.403	116.05	50.937	4.2515e-06	40.107	0.00057445	0.00057231	0.00015915	761.91	6.2861e-06	6.3099e-06	647.9	283.24	6.3017e-06	6.2683e-06	251.42	98.704	115.85	50.461	6.277e-06	41.02	292.090	47.346	131.267	47.808	341.704	111.739	46.167	53.330	221.407	178.625	50.191	54.991	57.632	61.258	301.494	56.558	-8191	255	
1082.192	1	1	0	0	0.067834	0.25355	0.2191	0.2362	0.12105	0.051728	0.0038487	0.223	0.16392	0.32117	0.18413	0.086672	0.012759	0.22602	0.15408	0.24402	0.70208	0.022917	0.74792	-0.077083	0.2	0.72083	-0.014583	0.34792	0.50417	0	0.51042	0.25833	-0.095833	0.63542	-0.060417	0.41875	206.801	228.956	370.117	332.466	327.108	362.459	149.732	391.929	95.604	314.338	326.627	340.127	317.533	382.985	302.710	299.684	0.00048586	0.00011163	0.00010095	746.72	1.0123e-05	1.7144e-06	640.15	283.21	4.4742e-06	1.2786e-05	244.14	97.077	115.69	50.558	8.1611e-06	40.229	0.00057002	0.00057201	0.00016001	760.78	6.246e-06	6.2904e-06	650.9	284.08	6.319e-06	6.262e-06	252.28	99.015	115.88	50.349	6.2776e-06	41.118	309.069	188.726	61.071	48.176	164.140	283.835	46.344	53.140	174.521	190.500	49.957	55.047	57.521	61.171	193.410	56.771	-8191	255	
1082.288	1	1	0	0	0.070953	0.11836	0.08193	0.13226	0.26193	0.16107	0.29895	0.11408	0.024383	0.14455	0.15539	0.042401	0.085439	0.20543	0.078824	0.11076	0.87917	-0.12708	0.66875	0.20417	-0.083333	0.775	-0.26875	0.016667	0.48333	-0.1	0.42083	0.14583	-0.089583	0.57708	-0.058333	0.20417	38.080	379.601	353.307	348.411	392.555	324.701	336.442	54.045	244.838	254.850	212.594	206.737	148.238	338.704	116.106	288.041	0.0005762	0.00067457	0.00013612	749.46	2.1217e-06	1.0904e-05	637.96	283.2	8.3588e-06	5.4231e-06	243.14	96.664	114.94	50.563	8.2739e-06	39.902	0.00057156	0.00056937	0.0001597	763.09	6.2425e-06	6.2752e-06	651.57	283.12	6.2397e-06	6.2714e-06	251.95	98.606	115.32	50.112	6.2787e-06	40.656	318.007	192.973	63.007	48.280	153.615	179.771	46.504	53.310	97.602	166.473	50.100	54.713	57.723	61.456	171.889	56.784	-8191	255	
1082.407	1	1	0	0	0.030272	0.5137	0.18566	0.39755	0.33312	0.10766	0.19551	0.1529	0.20001	0.21204	0.13908	0.082573	0.2888	0.10219	0.23783	0.27239	0.87917	-0.0875	0.57292	0.24167	-0.19167	0.70417	-0.0875	0.24792	0.7375	0	0.47917	0.29583	-0.19792	0.58958	0.2125	-0.014583	348.750	71.904	393.046	316.423	184.640	315.257	374.832	383.970	217.257	111.485	214.190	66.723	55.538	308.205	199.086	380.906	0.00066412	0.00020164	2.1842e-05	751.16	2.5634e-06	3.6749e-06	641.4	280.34	8.9995e-06	1.637e-06	242.93	96.205	115.38	50.241	8.4693e-06	40.05	0.00056315	0.00056789	0.00015886	762.37	6.2529e-06	6.2114e-06	650.51	282.27	6.2799e-06	6.2628e-06	250.91	98.188	115.22	50.059	6.2498e-06	40.734	301.567	385.759	113.917	48.207	87.295	175.229	46.523	53.323	342.890	348.603	50.266	54.904	57.621	61.527	65.677	56.755	-8191	255	
1082.503	1	1	0	0	0.22129	0.051665	0.32714	0.075668	0.30405	0.19501	0.15125	0.092508	0.24291	0.31478	0.30454	0.27416	0.13564	0.21658	0.21532	0.19707	0.85625	-0.27917	0.34167	0.4625	-0.17708	0.73542	0.095833	-0.11667	0.74583	-0.022917	0.46458	0.55208	-0.20208	0.50625	0.37292	-0.10833	73.545	132.424	68.625	42.296	290.271	244.240	345.770	68.879	354.476	88.129	122.322	321.579	333.190	364.258	125.468	335.153	0.00048744	0.00014854	0.00011421	746.47	1.8397e-06	5.06e-06	638.66	281.06	6.0975e-06	5.7037e-06	243.18	95.88	114.84	50.397	3.6798e-06	40.162	0.00057119	0.00056478	0.0001582	760.01	6.21e-06	6.2221e-06	649.5	282.55	6.2329e-06	6.2556e-06	251.59	98.37	115.23	50.014	6.2279e-06	40.84	299.706	373.102	122.618	47.989	200.017	297.208	46.485	53.416	206.096	287.179	50.166	55.095	57.757	61.656	76.091	56.510	-8191	255	
1082.576	1	1	0	0	0.033675	0.17062	0.31533	0.30925	0.23141	0.195	0.37195	0.098917	0.22839	0.23222	0.13618	0.047615	0.061268	0.18425	0.078251	0.093159	1.1187	0.16458	0.28958	0.53958	-0.22917	0.6125	0.11667	0.020833	0.7375	0.00625	0.25833	0.70208	-0.25625	0.48958	0.47708	-0.14167	384.984	80.488	375.924	71.143	270.699	222.827	383.502	364.673	234.714	36.222	263.091	218.706	258.784	299.603	332.637	256.787	0.00052865	0.00091111	0.00010847	750.5	5.6928e-06	3.983e-06	643.23	282.42	4.9251e-06	3.7821e-06	243.08	97.048	115.72	50.763	6.11e-06	40.533	0.00056413	0.00057015	0.00015751	761.84	6.2802e-06	6.2604e-06	653.22	283.31	6.2576e-06	6.221e-06	252.63	99.104	115.8	50.204	6.2449e-06	41.072	306.186	120.727	206.161	48.099	154.241	128.370	46.314	53.195	78.305	70.229	49.914	55.190	57.577	61.482	211.423	56.832	-8191	255	
1082.695	1	1	0	0	0.27568	0.17538	0.13929	0.028403	0.25734	0.19949	0.43338	0.17765	0.096285	0.23289	0.13315	0.074646	0.058245	0.27666	0.18716	0.17295	1.0875	0.035417	0.21458	0.63333	-0.15625	0.58542	0.39375	-0.36875	0.58958	0.0375	-0.125	0.76458	-0.18125	0.49792	0.47083	-0.22292	231.615	273.779	59.471	358.415	94.502	39.178	355.590	71.552	168.634	151.648	127.850	392.345	312.904	372.293	100.995	330.630	0.0005394	0.00065219	5.9067e-05	748.23	3.8653e-06	6.4782e-06	637.06	280.53	1.0728e-05	2.0505e-06	243.4	96.271	114.85	50.739	9.3206e-06	40.064	0.0005703	0.00056806	0.00015866	762.53	6.2564e-06	6.2639e-06	652	282.61	6.3023e-06	6.3023e-06	251.82	98.617	115.43	50.154	6.2754e-06	40.827	299.570	333.382	246.309	48.083	182.231	189.117	46.525	53.548	134.099	89.007	50.298	54.704	57.473	61.266	98.369	56.623	-8191	255	
1082.791	1	1	0	0	0.11455	0.065548	0.17118	0.25054	0.10323	0.10471	0.050258	0.14554	0.24081	0.070374	0.22247	0.21382	0.06065	0.13535	0.2162	0.12839	1.1292	0.33333	0.21667	0.68542	0.097917	0.32083	0.35625	-0.085417	0.68125	0.30833	0.15625	0.82292	-0.22292	-0.0041667	0.59375	-0.23333	374.765	138.139	138.540	358.918	373.279	169.006	327.167	339.501	314.108	343.481	320.821	247.490	300.850	392.781	317.675	135.444	0.0007343	0.0006454	0.00028477	751.53	1.0619e-05	3.7209e-06	640.26	282.25	7.1936e-06	3.6305e-06	244	96.439	115.47	50.37	1.3445e-05	40.236	0.00056812	0.00057527	0.00015981	762.51	6.29e-06	6.3004e-06	650.46	282.7	6.2726e-06	6.281e-06	251.58	98.621	115.53	50.045	6.2661e-06	40.84	283.666	108.862	87.115	47.911	115.237	321.152	46.679	53.309	116.949	151.227	49.902	55.006	57.819	61.421	188.602	56.715	-8191	255	
1082.888	1	1	0	0	0.2413	0.27324	0.27626	0.060237	0.20879	0.070544	0.15979	0.14869	0.075391	0.045737	0.35497	0.196	0.17382	0.16299	0.1458	0.16233	0.85	0.28542	0.095833	0.55417	0.05	0.29375	0.31667	-0.28333	0.40625	0.43333	-0.23958	0.71042	0.064583	0.083333	0.70625	-0.4125	229.382	210.724	207.788	341.168	148.913	188.493	355.706	380.570	238.490	187.572	287.899	89.888	359.032	49.489	190.861	183.527	0.00061725	0.00019465	0.0001405	749.97	3.1845e-06	3.5154e-06	636.91	281.94	6.4372e-06	6.5537e-06	243.05	97.057	115.01	50.494	6.5989e-06	40.205	0.00057053	0.00057545	0.00015956	760.48	6.252e-06	6.3022e-06	649.56	283.61	6.2962e-06	6.2465e-06	252.54	98.887	115.55	50.2	6.2823e-06	41.086	307.588	202.447	194.654	48.040	86.482	389.590	46.034	53.200	272.580	383.034	50.089	54.731	57.868	61.389	225.046	56.863	-8191	255	
1083.008	1	1	0	0	0.035459	0.23285	0.14965	0.066201	0.11354	0.36216	0.23472	0.28733	0.099016	0.2112	0.15111	0.11572	0.10137	0.28054	0.22008	0.2231	0.76458	0.49167	-0.18333	0.57292	0.16042	0.045833	0.70208	-0.26458	0.54167	0.46667	-0.2125	0.61875	0.21667	-0.10417	0.6875	-0.12083	227.180	256.422	386.564	76.623	278.627	106.236	247.056	385.406	341.238	332.826	384.329	286.500	355.234	76.297	186.880	117.495	0.00076514	0.00049828	0.00016752	745.83	3.5557e-06	4.5729e-06	639.8	281.6	3.4265e-06	1.8387e-06	245.28	96.653	115.91	50.794	6.9117e-06	40.697	0.00057572	0.00057452	0.00016084	760.15	6.2914e-06	6.2449e-06	651.98	282.85	6.3119e-06	6.3379e-06	253.14	99.008	115.94	50.365	6.2634e-06	41.301	301.318	153.719	119.707	47.875	167.502	212.858	46.716	53.711	339.961	35.932	50.411	54.856	57.829	61.386	109.941	56.809	-8191	255	
1083.104	1	1	0	0	0.1472	0.23127	0.27371	0.31779	0.18686	0.049178	0.28987	0.32444	0.14373	0.0321	0.19531	0.27504	0.13919	0.2311	0.12881	0.03149	0.75833	0.82083	0.010417	0.47708	0.33125	0.033333	0.70417	-0.26875	0.25417	0.60833	-0.077083	0.65417	0.23542	-0.15	0.65417	-0.13333	390.138	89.309	227.495	393.503	54.688	194.405	42.587	68.975	47.068	364.632	169.681	358.066	82.551	379.649	62.222	181.404	0.00059746	0.00050813	3.7363e-05	752.04	1.8443e-06	8.6595e-07	640.12	281.56	2.4328e-06	3.5693e-07	243.72	97.175	115.36	50.53	9.3305e-06	40.19	0.00057299	0.00057564	0.00015994	761.77	6.2946e-06	6.3186e-06	651.34	282.99	6.3014e-06	6.2706e-06	252.08	99.043	115.63	50.206	6.2818e-06	40.956	308.216	68.229	245.548	47.824	208.226	163.751	46.528	53.790	290.767	41.532	50.125	54.722	57.709	61.096	169.872	57.079	-8191	255	
1083.201	1	1	0	0	0.087108	0.36293	0.21919	0.16355	0.028744	0.18101	0.19999	0.2721	0.10222	0.35454	0.24098	0.21006	0.055605	0.025605	0.072581	0.29956	0.48542	0.675	-0.13125	0.5625	0.61875	0.175	0.65625	-0.025	0.25	0.725	-0.066667	0.2875	0.47083	-0.22917	0.61042	0.054167	38.832	289.795	319.485	293.923	345.874	208.798	307.430	302.103	55.995	303.316	378.234	48.068	102.858	142.020	247.474	318.078	0.00051772	0.00062937	0.0001926	744.55	5.235e-06	4.0348e-06	640.35	280.39	1.1759e-05	5.0541e-06	242.07	96.051	115.64	50.342	9.9636e-06	40.008	0.00057681	0.00057007	0.00016015	758.47	6.2675e-06	6.2811e-06	649.15	282.39	6.3044e-06	6.2592e-06	251.1	98.309	115.58	50.003	6.3051e-06	40.865	285.762	42.207	388.247	47.772	74.342	385.607	46.232	53.510	172.339	71.899	50.317	54.539	57.569	61.190	220.779	56.753	-8191	255	
1083.297	1	1	0	0	0.22477	0.20066	0.23719	0.12818	0.049416	0.13731	0.29333	0.12778	0.10858	0.14404	0.12344	0.11064	0.1227	0.21762	0.084343	0.33223	0.55833	0.70625	-0.06875	0.25625	0.63542	-0.28125	0.5875	0.10625	0.1625	0.75417	-0.23542	0.29167	0.24167	-0.16875	0.61667	0.15625	386.599	54.032	331.855	345.262	367.655	129.635	52.951	226.302	36.288	136.270	378.601	387.722	39.632	353.011	347.819	315.876	0.00063311	0.00046882	0.0001451	745.97	4.0135e-06	3.6922e-06	636.85	279.21	8.2052e-06	4.9019e-06	242.81	96.018	115.11	50.525	7.6094e-06	40.155	0.00057175	0.00057342	0.000158	758.38	6.2297e-06	6.2732e-06	648.32	281.59	6.2918e-06	6.2745e-06	251.76	98.426	115.22	50.051	6.2365e-06	40.862	289.804	59.130	159.634	47.796	193.629	229.271	46.001	53.367	160.436	237.672	50.153	54.745	57.652	61.547	154.020	56.725	-8191	255	
1083.393	1	1	0	0	0.13343	0.068817	0.23718	0.1075	0.16312	0.18102	0.1322	0.26078	0.12175	0.094713	0.10562	0.04126	0.33241	0.19384	0.20668	0.15793	0.42292	0.74583	-0.26458	0.12292	0.6875	-0.23542	0.32292	0.12917	-0.15417	0.6375	-0.0083333	0.075	0.63333	-0.20208	0.45833	0.6125	237.306	148.700	390.051	110.742	201.903	91.956	326.983	299.620	208.849	383.850	192.130	63.568	364.328	358.904	221.811	230.809	0.00070191	0.00073577	0.00022826	750.25	8.3759e-06	6.2492e-06	638.45	280.78	2.0364e-06	6.6429e-06	242.98	96.096	114.88	50.205	1.3088e-06	40.249	0.00056637	0.00057255	0.00015926	759.59	6.2498e-06	6.2583e-06	650.88	282.29	6.2418e-06	6.2346e-06	252.34	98.717	115.36	49.998	6.238e-06	41.086	283.693	106.998	116.120	47.769	206.273	199.869	45.857	53.002	127.109	243.054	49.955	54.266	57.041	61.260	175.651	56.282	-8191	255	
1083.487	1	1	0	0	0.13254	0.063644	0.21703	0.22905	0.18268	0.02962	0.23621	0.12108	0.22812	0.05243	0.0086762	0.016854	0.093124	0.023993	0.058453	0.12601	0.27083	0.80833	0.13542	-0.0041667	0.8	-0.075	0.33542	0.53333	0.020833	0.60417	0.13958	0.022917	0.50833	-0.25417	0.45625	0.53958	108.016	303.657	257.144	385.146	225.673	297.695	309.565	68.648	186.665	332.708	56.588	60.923	41.126	43.714	306.226	73.038	0.00057279	0.00026699	0.00021804	754.56	5.4391e-06	3.9887e-06	642.31	281.05	1.4723e-05	2.4301e-06	244.28	97.185	115.79	50.213	1.4087e-05	40.377	0.00056819	0.00056995	0.00015787	763.18	6.2353e-06	6.2576e-06	654.86	282.8	6.2564e-06	6.2878e-06	253.14	99.084	115.48	50.061	6.2167e-06	40.943	267.331	91.305	181.425	47.409	114.079	229.046	45.712	53.023	120.550	194.745	49.658	54.540	57.477	60.954	249.055	56.222	-8191	255	
1083.583	1	1	0	0	0.19445	0.13475	0.20125	0.25428	0.050892	0.20957	0.20356	0.24136	0.052564	0.17629	0.25894	0.15974	0.12783	0.2622	0.13928	0.11618	0.1625	0.64792	0.27917	0.029167	0.70833	0.060417	0.19167	0.64167	-0.14792	0.74375	0.2375	0.0020833	0.6875	-0.23542	0.39583	0.71667	212.157	208.398	206.391	376.903	125.260	361.474	330.723	186.062	164.134	81.815	58.290	376.218	62.200	341.516	285.603	189.222	0.00075462	0.00020055	0.00015018	753.78	7.9292e-06	9.9178e-07	640.17	280.43	1.0824e-05	7.31e-06	242.85	96.323	115.39	50.021	1.59e-06	40.235	0.00057338	0.0005728	0.00015886	763.25	6.2222e-06	6.222e-06	653.95	282.81	6.3049e-06	6.2481e-06	252.3	98.462	115.37	49.983	6.2501e-06	40.968	308.652	174.590	328.539	47.580	196.288	267.045	45.783	52.792	214.342	206.767	49.462	54.081	57.290	61.147	43.595	56.218	-8191	255	
1083.704	1	1	0	0	0.24637	0.098357	0.18709	0.12168	0.15639	0.12479	0.06139	0.19975	0.48325	0.16021	0.080145	0.31153	0.1527	0.1302	0.057625	0.12519	0.3125	0.50417	0.3625	-0.16875	0.77292	-0.045833	0.17917	0.7	-0.20417	0.41458	0.59167	0.0020833	0.50417	0.04375	0.19792	0.82708	61.364	336.101	72.030	339.718	369.717	200.475	221.333	382.278	168.527	153.468	345.156	82.017	289.575	360.551	238.243	314.339	0.000725	0.0002062	7.0615e-05	749.07	7.3401e-06	8.3216e-06	639.31	280.3	6.1648e-06	6.2911e-06	244.78	96.769	115	50.41	6.4582e-06	40.209	0.00057221	0.00057308	0.00015874	761.23	6.2822e-06	6.3004e-06	651.73	282.47	6.2808e-06	6.22e-06	252.67	98.765	115.19	50.096	6.2243e-06	40.967	301.978	281.463	132.149	47.707	64.994	251.003	45.688	52.803	113.573	236.841	49.851	54.388	57.161	60.781	51.672	56.182	-8191	255	
1083.800	1	1	0	0	0.16371	0.29037	0.068797	0.2643	0.11249	0.25035	0.15012	0.082538	0.32292	0.035626	0.034595	0.29955	0.11243	0.13677	0.14068	0.11345	0.38125	0.42083	0.67917	-0.22083	0.68125	0.058333	-0.10208	0.69792	-0.04375	0.50208	0.6125	-0.2	0.52083	0.11875	-0.083333	0.68125	339.179	384.841	117.216	292.812	179.797	387.235	303.137	124.577	89.328	193.602	258.882	41.438	330.848	236.749	280.865	111.864	0.00051916	9.4864e-05	0.00014231	749.17	1.9796e-06	3.7243e-06	640.05	280.83	2.6641e-06	7.0591e-06	245.09	96.858	115.35	50.649	3.7261e-06	40.268	0.0005722	0.00057319	0.00015932	761.21	6.2307e-06	6.2713e-06	651.73	282.88	6.2508e-06	6.2706e-06	253.85	99.185	115.6	50.255	6.2699e-06	41.22	313.915	148.127	109.746	47.692	205.759	175.766	45.857	52.919	85.997	127.108	49.796	54.120	57.458	61.082	234.399	56.085	-8191	255	
1083.872	1	1	0	0	0.3233	0.12384	0.0078307	0.27883	0.13167	0.20528	0.16585	0.27259	0.21245	0.3092	0.1674	0.29212	0.21351	0.17978	0.13265	0.33524	0.21875	0.42083	0.48125	-0.18958	0.64792	0.39583	-0.17083	0.70417	-0.18125	0.28333	0.70417	-0.11667	0.43958	0.22708	-0.09375	0.49375	391.569	373.424	246.489	320.154	75.880	265.492	230.189	333.937	390.487	73.478	162.961	354.941	320.627	306.950	60.002	51.047	0.00065165	0.00040963	0.00021163	747.6	5.2911e-06	2.2722e-06	641.66	280.53	4.3435e-06	5.8071e-06	243.59	96.873	115.92	50.286	8.4308e-06	40.284	0.0005723	0.00057345	0.00016009	760.34	6.2927e-06	6.3085e-06	654.1	282.87	6.3129e-06	6.303e-06	253.03	99.248	115.82	50.188	6.3021e-06	41.031	309.987	136.206	111.607	47.358	93.592	181.561	45.746	53.151	160.646	190.639	49.536	54.226	57.099	60.749	174.597	56.108	-8191	255	
1083.968	1	1	0	0	0.19341	0.14198	0.086177	0.38423	0.20229	0.10319	0.058095	0.1689	0.11044	0.24864	0.40767	0.12408	0.23789	0.29265	0.22535	0.07405	0.41875	0.3375	0.62292	0.03125	0.38333	0.4125	-0.13333	0.73125	0.11667	-0.014583	0.66458	-0.039583	0.39792	0.28958	-0.31875	0.47917	319.008	211.071	307.075	39.018	220.666	47.569	99.951	118.579	169.739	331.414	43.483	54.261	53.484	341.393	315.888	336.130	0.00055346	0.0012776	0.00029266	746.91	1.3925e-05	7.2614e-06	637.03	279.93	1.8032e-06	4.3099e-06	242.29	96.373	115.7	50.44	1.3123e-05	40.044	0.00057747	0.0005757	0.00016007	760.6	6.3405e-06	6.3634e-06	650.37	282.49	6.3483e-06	6.2936e-06	252.15	98.871	115.72	50.151	6.3191e-06	40.916	295.526	111.017	116.053	47.740	158.714	157.968	45.896	52.874	178.806	196.814	49.693	54.241	56.878	61.051	219.932	56.145	-8191	255	
1084.089	1	1	0	0	0.21184	0.19144	0.22254	0.26924	0.12702	0.074709	0.22863	0.17895	0.10408	0.086695	0.22892	0.21562	0.24534	0.30591	0.068718	0.02738	0.49167	-0.08125	0.60417	-0.26042	0.275	0.58958	-0.23958	0.62917	0.16042	-0.12708	0.5	-0.13333	0.1625	0.50833	-0.1625	0.4125	165.352	289.293	70.015	388.570	235.103	77.340	350.839	303.796	338.966	268.161	277.655	381.140	385.987	383.442	212.950	246.584	0.0003666	0.00048829	0.00015521	745.38	7.1344e-06	5.5992e-06	639.14	280.47	3.1369e-06	7.7546e-06	242.95	96.889	114.76	50.425	8.3622e-06	39.974	0.00057772	0.00057539	0.00016259	759.16	6.3201e-06	6.3513e-06	649.8	282.5	6.3443e-06	6.3537e-06	252.27	98.999	115.49	50.245	6.363e-06	40.995	308.454	81.298	391.244	47.475	355.816	237.591	45.709	52.843	140.202	250.758	49.374	53.868	57.073	60.805	304.287	56.129	-8191	255	
1084.185	1	1	0	0	0.11414	0.027502	0.26853	0.0055306	0.27709	0.092402	0.45129	0.12788	0.16172	0.23346	0.15813	0.20046	0.18688	0.25432	0.30256	0.26883	0.69792	-0.22708	0.60833	-0.12708	0.16458	0.68542	-0.25208	0.38333	0.31042	-0.035417	0.79583	-0.027083	0.022917	0.63333	-0.14792	0.57292	99.148	309.853	297.622	46.094	224.284	362.339	347.685	37.919	177.836	82.695	276.230	126.662	385.215	70.874	281.184	393.999	0.00055914	0.00010303	0.00014233	740.13	4.008e-06	1.0036e-05	634.85	280.3	5.1725e-06	6.0761e-06	243.88	97.298	114.73	50.451	4.0574e-06	40.572	0.00057558	0.00058019	0.00016139	755.2	6.2831e-06	6.3032e-06	648.76	282.22	6.2964e-06	6.2789e-06	252.48	99.003	115.52	50.268	6.2746e-06	41.252	284.989	263.575	172.666	47.552	108.857	153.270	45.713	52.831	99.025	230.131	49.306	54.185	56.849	60.663	294.504	56.193	-8191	255	
1084.281	1	1	0	0	0.031437	0.16095	0.025811	0.21269	0.12979	0.037803	0.1871	0.048682	0.0084659	0.25048	0.17478	0.026043	0.054454	0.2776	0.21875	0.26737	0.90208	0.13125	0.48125	-0.016667	0.29792	0.77917	-0.23958	0.11667	0.64583	-0.21458	0.71458	0.0875	-0.13958	0.63958	-0.070833	0.3375	288.409	218.751	261.843	362.894	43.774	373.004	324.731	269.576	168.867	67.101	335.555	249.740	334.741	357.074	265.888	393.676	0.00049695	0.00076987	8.3868e-05	746.68	5.8459e-06	8.0884e-06	637.76	281.35	1.2786e-05	3.7405e-06	246.57	97.053	115.08	50.545	1.2204e-05	40.326	0.00057094	0.00057	0.00015986	757.98	6.2838e-06	6.3278e-06	651.71	282.5	6.2404e-06	6.28e-06	253.56	99.477	115.47	50.184	6.2989e-06	41.174	292.646	113.831	139.733	47.389	165.519	322.428	46.011	52.570	148.853	275.055	49.358	53.987	57.143	61.064	148.129	56.110	-8191	255	
1084.377	1	1	0	0	0.13464	0.20888	0.11799	0.1328	0.11158	0.11886	0.31426	0.36015	0.08994	0.24328	0.11308	0.084987	0.30731	0.24858	0.10346	0.17806	1.0063	-0.21667	0.56875	0.35833	-0.13958	0.56667	-0.29167	0.1	0.50417	-0.11042	0.33333	0.27708	-0.28542	0.7	0.052083	0.03125	319.829	290.213	217.375	293.755	183.709	113.524	352.028	301.414	210.985	155.678	65.443	299.187	51.315	388.067	208.766	305.666	0.00087448	0.00031712	3.6889e-05	744.7	5.9232e-06	2.115e-06	639.09	279.86	3.2175e-06	4.9408e-06	244.41	96.424	115.36	50.142	5.6587e-06	40.407	0.00057229	0.00057497	0.00015872	757.46	6.2198e-06	6.2425e-06	651.48	281.22	6.2394e-06	6.2289e-06	251.58	98.707	115.2	49.897	6.1992e-06	40.863	289.420	258.954	55.437	47.338	232.040	121.426	46.053	52.861	264.861	179.319	49.085	54.467	57.330	60.806	126.698	56.120	-8191	255	
1084.496	1	1	0	0	0.31218	0.16313	0.14181	0.16671	0.037266	0.053612	0.040615	0.22692	0.10406	0.32392	0.20525	0.27765	0.26064	0.26551	0.25542	0.28868	0.88333	-0.15417	0.55625	0.46667	-0.089583	0.63333	0.13542	0.070833	0.65625	-0.24167	0.5	0.40417	-0.13125	0.78125	-0.014583	-0.2	182.069	322.243	81.323	304.713	364.409	227.214	174.697	113.999	227.917	49.400	381.920	303.357	269.389	369.549	284.340	150.368	0.00058863	0.00034236	0.00022027	748.34	2.8787e-06	3.3221e-06	640.74	279.45	4.2526e-06	5.6076e-06	243.67	96.734	115.57	50.155	8.1664e-06	40.033	0.00056696	0.00056528	0.0001571	759.87	6.1997e-06	6.2045e-06	650.49	281.39	6.2435e-06	6.2206e-06	251.38	98.557	115.16	49.875	6.2177e-06	40.866	287.689	123.524	151.964	47.548	184.674	155.070	45.764	52.793	221.954	267.197	49.032	53.856	56.977	60.640	197.553	56.153	-8191	255	
1084.569	1	1	0	0	0.2764	0.11648	0.21097	0.43285	0.17859	0.16094	0.04332	0.25111	0.11985	0.16837	0.083789	0.14667	0.24385	0.32024	0.020508	0.23173	1.1833	-0.19792	0.30208	0.64375	-0.10208	0.5	0.18125	0.1	0.70417	-0.125	0.34792	0.63125	-0.32083	0.36667	0.19792	-0.0125	74.028	269.271	356.242	283.698	271.471	161.070	75.918	360.605	351.854	322.354	268.826	60.614	285.130	270.763	325.687	121.298	0.00062553	0.0005374	0.00016894	741.94	1.2888e-06	7.1974e-06	638.31	280.45	3.0684e-06	4.4802e-06	243.85	97.351	115.95	50.16	6.2954e-06	40.17	0.00057051	0.00056632	0.00015755	757.05	6.2437e-06	6.1763e-06	651.52	281.94	6.2516e-06	6.2126e-06	252.69	99.119	115.69	49.893	6.2715e-06	41.05	279.831	70.691	58.271	47.390	107.241	265.337	46.007	52.760	286.794	63.843	49.379	54.082	57.155	60.581	174.871	56.071	-8191	255	
1084.688	1	1	0	0	0.14251	0.24081	0.06574	0.087628	0.19299	0.24323	0.23111	0.14722	0.047244	0.1661	0.12374	0.065358	0.18896	0.24197	0.12854	0.1672	1.0354	0.039583	0.28125	0.4875	-0.06875	0.48125	0.25208	-0.0020833	0.71875	0.085417	0.089583	0.6	-0.23958	0.55417	0.40417	-0.070833	124.731	380.232	123.355	50.431	35.261	161.265	325.152	384.394	296.637	154.167	384.888	380.370	363.469	42.549	319.123	89.056	0.00053722	0.00035932	0.00011156	747.32	5.9909e-06	7.2701e-06	635.69	280.77	7.9023e-06	5.2793e-06	245.53	97.119	114.96	50.361	1.5567e-05	40.378	0.00056433	0.00056945	0.00015807	760.22	6.1758e-06	6.2435e-06	652.52	282.69	6.2771e-06	6.2339e-06	253.07	99.573	115.37	50.109	6.2588e-06	41.208	299.281	90.968	61.781	47.227	224.953	269.535	45.884	52.544	150.575	69.970	48.783	54.250	57.302	60.791	177.233	56.305	-8191	255	
1084.784	1	1	0	0	0.070787	0.24643	0.25495	0.041559	0.22253	0.062322	0.12068	0.04703	0.10195	0.067671	0.095606	0.19168	0.091261	0.20568	0.4033	0.29327	0.96667	0.16458	0.225	0.56667	-0.077083	0.48958	0.44792	-0.2625	0.65208	0.21042	-0.025	0.52708	-0.060417	0.59583	0.575	-0.20625	271.802	323.342	80.377	118.749	108.423	265.434	57.808	177.133	139.205	270.831	308.455	362.064	353.884	341.562	291.240	92.044	0.00073469	0.00092496	0.00017813	745.57	4.4518e-06	7.0718e-06	640.22	281.45	5.6004e-06	8.9855e-06	244.16	97.307	116.5	50.974	4.3672e-06	40.986	0.00057255	0.00056997	0.0001597	759.31	6.2819e-06	6.2642e-06	653.13	282.99	6.289e-06	6.2833e-06	252.87	99.733	116.53	50.914	6.3679e-06	41.847	283.535	144.099	65.706	47.812	70.087	70.443	45.904	52.915	135.892	254.784	49.311	54.307	57.135	61.026	394.726	55.922	-8191	255	
1084.881	1	1	0	0	0.20317	0.307	0.14095	0.20091	0.2196	0.045779	0.086943	0.055404	0.10174	0.15389	0.19954	0.12214	0.1218	0.070102	0.17371	0.16718	1.0854	0.35	0.014583	0.51875	-0.020833	0.35208	0.45833	-0.25208	0.54375	0.31042	-0.23958	0.75208	-0.11875	0.14583	0.68125	-0.27917	133.686	299.166	283.308	319.594	48.604	41.374	220.846	41.342	348.086	79.753	85.449	298.917	207.986	85.019	72.101	348.743	0.00071493	0.00030823	0.00017582	745.51	1.1315e-05	1.1389e-05	637.42	281.37	6.6514e-06	5.4125e-06	245.13	98.563	117.76	52.255	1.5987e-05	41.515	0.00057655	0.00058224	0.00016031	758.27	6.3436e-06	6.3793e-06	650.25	283.89	6.3127e-06	6.272e-06	253.68	100.72	117.56	51.761	6.3233e-06	42.235	289.975	47.403	115.241	47.562	117.483	264.129	46.011	52.757	147.238	368.053	49.496	54.370	57.218	60.802	228.460	56.062	-8191	255	
1084.977	1	1	0	0	0.14435	0.36917	0.19774	0.20894	0.27432	0.25615	0.040329	0.10974	0.15679	0.4326	0.2372	0.15767	0.2409	0.18292	0.045958	0.16534	0.93542	0.47083	-0.029167	0.69792	0.060417	0.08125	0.74375	-0.11667	0.40208	0.76458	-0.21875	0.62917	0.10625	-0.025	0.62292	-0.25833	392.272	367.995	145.216	378.188	371.778	41.756	390.696	326.973	374.403	213.577	44.582	311.062	389.532	393.738	243.747	277.138	0.00058089	6.0417e-05	0.00013299	736.92	4.9808e-06	6.0595e-06	635.43	282.3	1.2995e-05	8.9026e-06	246.75	98.923	118.11	52.05	3.805e-06	41.516	0.00057592	0.00057336	0.00015961	751.38	6.2341e-06	6.2729e-06	648.06	284.11	6.2652e-06	6.2701e-06	254.91	100.88	117.86	51.659	6.2585e-06	42.259	296.829	329.657	201.227	47.521	155.217	161.184	46.025	53.000	137.957	203.123	49.618	54.376	57.359	60.754	232.321	56.079	-8191	255	
1085.097	1	1	0	0	0.2215	0.26824	0.17319	0.22598	0.16704	0.23766	0.11534	0.056775	0.053999	0.13945	0.10707	0.080229	0.238	0.060369	0.12948	0.077079	0.77083	0.39375	-0.1	0.87292	0.11458	0.10625	0.76042	-0.19167	0.27083	0.68333	-0.1375	0.65625	0.14792	-0.041667	0.65417	-0.14583	104.357	159.076	87.809	37.663	352.865	373.796	395.201	258.351	229.137	196.313	149.064	278.904	360.098	305.030	335.073	338.878	0.00081753	0.00071332	6.9967e-05	740.1	5.8039e-06	4.0232e-06	638.83	283.13	1.6902e-05	2.6397e-07	247.93	98.247	117.16	52.054	3.1826e-06	41.731	0.00057686	0.00057032	0.00015898	754.84	6.2673e-06	6.2917e-06	650.21	284.69	6.2948e-06	6.3062e-06	255.33	100.8	117.47	51.54	6.3014e-06	42.336	311.427	129.219	204.469	47.640	193.090	248.077	45.952	53.192	157.078	244.017	49.738	54.517	57.339	60.685	131.344	56.303	-8191	255	
1085.169	1	1	0	0	0.062189	0.21976	0.15912	0.18802	0.022415	0.069744	0.31415	0.17485	0.061069	0.096008	0.03225	0.12127	0.17596	0.13571	0.031034	0.25014	0.65	0.59583	-0.10208	0.375	0.2875	0.035417	0.38333	-0.16042	0.15208	0.7625	-0.10625	0.40625	0.20833	-0.21458	0.73958	-0.08125	149.876	285.876	90.655	46.556	205.453	316.814	339.900	64.161	185.575	370.632	92.574	260.062	355.341	268.004	70.769	282.492	0.00067448	0.00064409	8.0876e-05	742.94	7.8117e-06	2.7535e-06	640.62	281.37	8.3575e-06	4.1824e-07	243.95	98.906	117.08	51.522	5.527e-06	41.085	0.00057405	0.00058115	0.00016009	755.04	6.3017e-06	6.3225e-06	650.72	284.3	6.3404e-06	6.3265e-06	253.9	100.51	117.06	51.1	6.3679e-06	41.826	294.835	379.971	47.754	47.810	206.708	147.159	45.920	52.990	208.129	76.982	49.524	54.147	57.195	60.757	284.150	56.257	-8191	255	
1085.265	1	1	0	0	0.21427	0.15381	0.2048	0.11205	0.17128	0.30946	0.20457	0.14601	0.29756	0.03816	0.15641	0.25008	0.46589	0.12363	0.11741	0.18729	0.56042	0.70833	0.045833	0.35	0.55833	-0.075	0.375	0.054167	0.11667	0.56875	-0.14583	0.3875	0.3375	-0.32708	0.58333	0.058333	113.648	188.378	96.322	364.817	224.518	217.524	61.364	297.583	140.914	211.950	245.890	358.345	129.717	378.405	176.856	300.525	0.00054953	0.00056994	9.6487e-05	737.03	1.0552e-05	4.8325e-06	629.9	281.83	1.3136e-05	8.6598e-06	243.07	97.206	116.74	51.136	5.369e-06	40.829	0.00057757	0.00057857	0.00016044	751.55	6.2971e-06	6.3493e-06	645.61	283.11	6.3513e-06	6.2715e-06	252.56	99.713	116.5	50.742	6.2591e-06	41.543	288.801	140.270	65.223	47.549	160.571	321.474	45.796	53.064	70.621	187.550	49.804	54.466	57.448	60.877	131.547	56.322	-8191	255	
#DATA ENDS
