BOXY.EXE: ISS Imagent and Oximeter Data Acquisition Program Version 0.80
Ascii Record File

#ACQ INFORMATION
2  Detector Channels 
16  External MUX Channels 
1  Auxiliary Channels 
5000  Waveform (CCF) Frequency (Hz)
1  Waveforms Skipped 
30  Waveforms Averaged 
1  Cycles Averaged 
16  Acquisitions per Waveform 
10.0806  Updata Rate (Hz) 

#FILE INFORMATION
TRUE -- External MUX Channel results are PARSED.
FALSE -- AC DC and Phase are NOT grouped.
TRUE -- Companion Program Settings File CREATED.
FALSE -- AC data not excluded
FALSE -- DC data not excluded
FALSE -- Phase data not excluded
FALSE -- Auxillary Chn. data not excluded
Tab delimiters

#CALIBRATION STATE
TRUE -- Waveform Calibration Values APPLIED.


#AUX CALIBRATION VALUES
Val Type	aux-1	

Term	1.0000e+00	
Factor	0.0000e+00	


#WF CALIBRATION VALUES
A = Detector Channel
Val Type	A-AC1	A-AC2	A-AC3	A-AC4	A-AC5	A-AC6	A-AC7	A-AC8	A-AC9	A-AC10	A-AC11	A-AC12	A-AC13	A-AC14	A-AC15	A-AC16	A-DC1	A-DC2	A-DC3	A-DC4	A-DC5	A-DC6	A-DC7	A-DC8	A-DC9	A-DC10	A-DC11	A-DC12	A-DC13	A-DC14	A-DC15	A-DC16	A-Ph1	A-Ph2	A-Ph3	A-Ph4	A-Ph5	A-Ph6	A-Ph7	A-Ph8	A-Ph9	A-Ph10	A-Ph11	A-Ph12	A-Ph13	A-Ph14	A-Ph15	A-Ph16	

Term	0.00000e+00	0.00000e+00	0.00000e+00	0.00000e+00	0.00000e+00	0.00000e+00	0.00000e+00	0.00000e+00	0.00000e+00	0.00000e+00	0.00000e+00	0.00000e+00	0.00000e+00	0.00000e+00	0.00000e+00	0.00000e+00	0.00000e+00	0.00000e+00	0.00000e+00	0.00000e+00	0.00000e+00	0.00000e+00	0.00000e+00	0.00000e+00	0.00000e+00	0.00000e+00	0.00000e+00	0.00000e+00	0.00000e+00	0.00000e+00	0.00000e+00	0.00000e+00	0.00000e+00	0.00000e+00	0.00000e+00	0.00000e+00	0.00000e+00	0.00000e+00	0.00000e+00	0.00000e+00	0.00000e+00	0.00000e+00	0.00000e+00	0.00000e+00	0.00000e+00	0.00000e+00	0.00000e+00	0.00000e+00	
Factor	1.00000e+00	1.00000e+00	1.00000e+00	1.00000e+00	1.00000e+00	1.00000e+00	1.00000e+00	1.00000e+00	1.00000e+00	1.00000e+00	1.00000e+00	1.00000e+00	1.00000e+00	1.00000e+00	1.00000e+00	1.00000e+00	1.00000e+00	1.00000e+00	1.00000e+00	1.00000e+00	1.00000e+00	1.00000e+00	1.00000e+00	1.00000e+00	1.00000e+00	1.00000e+00	1.00000e+00	1.00000e+00	1.00000e+00	1.00000e+00	1.00000e+00	1.00000e+00	X	X	X	X	X	X	X	X	X	X	X	X	X	X	X	X	

B = Detector Channel
Val Type	B-AC1	B-AC2	B-AC3	B-AC4	B-AC5	B-AC6	B-AC7	B-AC8	B-AC9	B-AC10	B-AC11	B-AC12	B-AC13	B-AC14	B-AC15	B-AC16	B-DC1	B-DC2	B-DC3	B-DC4	B-DC5	B-DC6	B-DC7	B-DC8	B-DC9	B-DC10	B-DC11	B-DC12	B-DC13	B-DC14	B-DC15	B-DC16	B-Ph1	B-Ph2	B-Ph3	B-Ph4	B-Ph5	B-Ph6	B-Ph7	B-Ph8	B-Ph9	B-Ph10	B-Ph11	B-Ph12	B-Ph13	B-Ph14	B-Ph15	B-Ph16	

Term	0.00000e+00	0.00000e+00	0.00000e+00	0.00000e+00	0.00000e+00	0.00000e+00	0.00000e+00	0.00000e+00	0.00000e+00	0.00000e+00	0.00000e+00	0.00000e+00	0.00000e+00	0.00000e+00	0.00000e+00	0.00000e+00	0.00000e+00	0.00000e+00	0.00000e+00	0.00000e+00	0.00000e+00	0.00000e+00	0.00000e+00	0.00000e+00	0.00000e+00	0.00000e+00	0.00000e+00	0.00000e+00	0.00000e+00	0.00000e+00	0.00000e+00	0.00000e+00	1.75774e+01	-1.46235e+02	-1.17124e+02	-1.81868e+02	-8.91195e+01	-6.48731e+01	-1.55593e+02	-1.62015e+02	-9.75022e+01	-8.17833e+01	-1.72047e+02	-1.70197e+02	-1.80263e+02	-1.76670e+02	-7.13823e+01	-1.48961e+02	
Factor	4.51161e-05	1.29920e-04	3.80509e-05	1.84395e-01	1.28156e-06	1.39230e-06	1.71929e-01	6.00013e-02	1.74208e-06	1.47441e-06	9.93773e-02	3.72057e-02	2.45678e-02	1.02851e-02	1.73701e-06	1.47878e-02	1.01581e-06	1.03816e-06	2.88466e-07	9.16057e-02	1.13405e-08	1.13887e-08	8.04221e-02	2.97712e-02	1.13638e-08	1.13723e-08	4.69853e-02	1.74268e-02	1.22168e-02	5.05173e-03	1.13582e-08	6.97409e-03	X	X	X	X	X	X	X	X	X	X	X	X	X	X	X	X	



#DISTANCE SETTINGS
A = Detector Channel
A-1	A-2	A-3	A-4	A-5	A-6	A-7	A-8	A-9	A-10	A-11	A-12	A-13	A-14	A-15	A-16	

2.5000e+00	3.0000e+00	2.5000e+00	3.0000e+00	2.0000e+00	3.0000e+00	1.5000e+00	3.0000e+00	3.0000e+00	3.0000e+00	3.0000e+00	3.0000e+00	3.0000e+00	3.0000e+00	1.5000e+00	3.0000e+00	

B = Detector Channel
B-1	B-2	B-3	B-4	B-5	B-6	B-7	B-8	B-9	B-10	B-11	B-12	B-13	B-14	B-15	B-16	

1.0000e+01	1.0000e+01	1.0000e+01	1.4400e+00	1.0000e+01	1.0000e+01	1.5100e+00	1.9400e+00	1.0000e+01	1.0000e+01	1.9900e+00	2.4900e+00	2.4100e+00	2.9000e+00	1.0000e+01	2.9800e+00	




#DATA BEGINS
time	group	step	mark	flag	A-AC1	A-AC2	A-AC3	A-AC4	A-AC5	A-AC6	A-AC7	A-AC8	A-AC9	A-AC10	A-AC11	A-AC12	A-AC13	A-AC14	A-AC15	A-AC16	A-DC1	A-DC2	A-DC3	A-DC4	A-DC5	A-DC6	A-DC7	A-DC8	A-DC9	A-DC10	A-DC11	A-DC12	A-DC13	A-DC14	A-DC15	A-DC16	A-Ph1	A-Ph2	A-Ph3	A-Ph4	A-Ph5	A-Ph6	A-Ph7	A-Ph8	A-Ph9	A-Ph10	A-Ph11	A-Ph12	A-Ph13	A-Ph14	A-Ph15	A-Ph16	B-AC1	B-AC2	B-AC3	B-AC4	B-AC5	B-AC6	B-AC7	B-AC8	B-AC9	B-AC10	B-AC11	B-AC12	B-AC13	B-AC14	B-AC15	B-AC16	B-DC1	B-DC2	B-DC3	B-DC4	B-DC5	B-DC6	B-DC7	B-DC8	B-DC9	B-DC10	B-DC11	B-DC12	B-DC13	B-DC14	B-DC15	B-DC16	B-Ph1	B-Ph2	B-Ph3	B-Ph4	B-Ph5	B-Ph6	B-Ph7	B-Ph8	B-Ph9	B-Ph10	B-Ph11	B-Ph12	B-Ph13	B-Ph14	B-Ph15	B-Ph16	aux-1	digaux	

1044.186	1	1	0	512	0.095521	0.1048	0.23333	0.0057789	0.10164	0.12015	0.2579	0.18465	0.054699	0.20048	0.16721	0.22602	0.29296	0.38242	0.24877	0.12735	0.072917	-0.052083	0.43542	-0.29375	0.25208	0.25417	-0.36875	0.55833	-0.10833	0.016667	0.48958	-0.40208	0.25625	0.23958	-0.175	0.37917	154.076	289.836	254.075	99.407	293.484	212.143	370.295	78.669	350.881	216.008	182.531	353.897	392.606	364.921	206.846	353.962	0.00060673	0.00062724	0.00012645	702.8	3.9274e-06	5.4434e-06	591.55	269.08	6.4029e-06	2.5758e-06	229.41	86.238	104.65	46.471	1.3231e-05	36.475	0.00053764	0.00053636	0.00014976	714.85	5.9066e-06	5.8882e-06	600.84	269.6	5.8876e-06	5.8984e-06	237.57	88.631	104.75	46.169	5.8969e-06	37.333	303.671	124.990	55.159	48.122	214.624	232.056	46.686	53.261	182.296	116.629	50.501	55.866	58.272	61.858	193.501	57.047	-8191	255	
1044.307	1	1	0	0	0.18202	0.18129	0.038148	0.13518	0.12505	0.24885	0.1188	0.017942	0.16465	0.16392	0.15976	0.20899	0.12387	0.28151	0.046513	0.21719	0.23125	0.075	0.64167	-0.38958	0.2125	0.39375	-0.425	0.35208	-0.15208	-0.17083	0.42083	-0.37917	0.095833	0.18542	-0.30208	0.26042	46.494	377.713	263.130	195.537	364.700	71.512	240.718	227.979	153.590	358.311	94.144	283.641	128.218	372.496	93.256	338.498	0.00072502	0.00073236	0.00011794	707.3	3.4335e-06	1.0195e-05	593.89	269.03	3.1974e-06	2.2027e-06	231.04	87.168	104.83	46.528	1.2602e-05	36.652	0.00053474	0.00053876	0.00014901	716.6	5.8643e-06	5.8661e-06	604.39	269.49	5.9324e-06	5.8959e-06	238.86	89.316	104.71	46.248	5.9011e-06	37.479	279.220	124.966	306.110	47.819	145.620	222.465	46.816	53.309	156.692	371.983	50.303	55.652	58.087	61.788	267.633	57.744	-8191	255	
1044.403	1	1	0	0	0.14984	0.10631	0.086909	0.17634	0.15234	0.12451	0.33035	0.14517	0.1179	0.38511	0.091858	0.10209	0.051524	0.07135	0.11842	0.094917	0.34167	-0.36875	0.54583	-0.50417	0.00625	0.275	-0.78125	0.18958	0.2875	-0.20417	0.34167	-0.23542	-0.20833	0.25833	-0.46667	0.23542	360.345	224.584	300.571	309.172	198.306	148.668	305.971	189.664	122.484	367.200	79.934	340.428	286.215	314.811	151.522	303.660	0.00060976	0.00042957	0.00017295	709.09	3.6958e-06	5.4411e-06	601.51	268.62	1.0471e-05	8.2465e-06	234.71	87.051	104.96	46.466	2.1863e-06	37.04	0.00053448	0.00053809	0.00014947	720.02	5.8481e-06	5.8922e-06	608.2	270.43	5.9258e-06	5.8596e-06	241.05	89.453	104.74	46.194	5.8846e-06	37.566	269.422	343.842	144.347	48.346	193.137	153.764	47.043	53.291	127.500	187.582	50.369	55.376	58.188	61.661	113.336	57.665	-8191	255	
1044.475	1	1	0	0	0.086725	0.039634	0.23846	0.12629	0.23342	0.24684	0.18797	0.04776	0.091525	0.15524	0.42713	0.07772	0.17769	0.024133	0.078136	0.090045	0.6125	-0.38333	0.46667	-0.26875	-0.072917	0.49167	-0.31458	0.025	0.2	-0.35625	0.30625	-0.26875	-0.20833	0.35208	-0.31458	0.22083	100.386	135.308	322.640	334.464	216.990	57.325	51.318	309.297	112.229	217.822	362.007	305.551	51.777	240.308	267.868	142.327	0.00056938	0.00040665	0.00020322	709	6.7307e-06	1.2704e-05	596.75	268.04	7.5333e-06	3.259e-06	229.61	86.906	103.46	46.226	5.2968e-06	36.421	0.00054005	0.00053637	0.00014923	720.59	5.8341e-06	5.8882e-06	608.38	269.85	5.8872e-06	5.8841e-06	238.18	88.925	104.1	45.918	5.8485e-06	37.285	283.253	307.713	280.805	48.290	279.690	222.673	47.084	53.561	194.827	216.129	50.533	56.051	58.291	61.912	188.798	57.433	-8191	255	
1044.571	1	1	0	0	0.042071	0.181	0.23652	0.20986	0.22815	0.094266	0.12515	0.15096	0.30778	0.23105	0.030642	0.055355	0.19874	0.34018	0.17534	0.26399	0.49583	-0.33333	0.45833	-0.23958	-0.2125	0.425	-0.24167	-0.0875	0.35417	-0.55417	0.33542	-0.091667	-0.57292	0.32083	-0.24167	0.022917	320.124	160.754	266.805	311.764	79.373	260.991	234.551	42.252	293.441	184.490	277.443	254.368	391.161	333.467	363.325	384.206	0.00028465	0.0003796	8.9371e-05	707.5	5.5181e-06	5.7147e-06	599.53	269.39	4.7043e-06	7.3562e-07	230.32	86.417	104.83	46.338	3.0254e-06	36.774	0.00052979	0.0005362	0.00014902	718.51	5.8253e-06	5.9366e-06	608.91	270.05	5.8928e-06	5.8901e-06	238.52	88.997	104.56	46.06	5.8666e-06	37.468	307.189	94.266	174.493	48.098	175.539	145.874	47.087	53.463	62.125	242.493	50.374	55.933	58.126	62.009	354.684	57.579	-8191	255	
1044.692	1	1	0	0	0.21639	0.38491	0.11102	0.17938	0.28086	0.013183	0.18227	0.16915	0.14415	0.18184	0.15153	0.26398	0.16507	0.19025	0.29299	0.10066	0.925	-0.36042	0.3125	-0.21042	-0.16667	0.31667	-0.42083	-0.19375	0.5875	-0.44375	0.23333	0.20833	-0.525	0.30208	-0.13542	-0.066667	315.753	200.984	336.697	343.833	184.759	76.417	288.993	353.994	122.119	137.265	250.930	386.569	326.987	331.587	328.644	148.579	0.00061351	0.0003166	0.00020012	713	3.8433e-06	2.6416e-06	597.7	269.14	2.5652e-06	7.1086e-06	230.72	87.688	104.71	46.372	3.8473e-06	36.668	0.00053878	0.00054078	0.00014869	721.42	5.8587e-06	5.898e-06	608.2	269.97	5.8745e-06	5.8683e-06	239.19	89.703	104.68	46.22	5.8799e-06	37.682	310.445	375.498	203.532	48.261	205.066	143.770	46.922	53.712	168.114	123.509	50.750	55.819	58.260	62.100	190.634	57.383	-8191	255	
1044.788	1	1	0	0	0.17609	0.19475	0.07362	0.24189	0.16695	0.15866	0.10344	0.2099	0.094398	0.062819	0.15364	0.058811	0.11909	0.096527	0.046212	0.084786	0.85208	-0.51667	0.25417	0.17083	-0.2375	0.56042	-0.25208	-0.24792	0.34792	-0.28125	0.17917	0.095833	-0.475	0.15625	-0.175	-0.40833	252.468	389.551	193.904	62.286	341.208	55.624	142.221	196.644	256.631	392.648	89.965	274.659	322.446	89.126	358.000	322.329	0.00071362	0.000412	5.8973e-05	707.8	2.1342e-06	4.6057e-06	599.46	269.53	7.8089e-06	8.6984e-07	232.89	88.391	104.2	46.42	7.6514e-06	37	0.00053425	0.00053999	0.00014996	720.6	5.8779e-06	5.8946e-06	608.9	270.72	5.9216e-06	5.8946e-06	240.14	90.014	104.85	46.274	5.9529e-06	37.756	296.624	57.609	323.219	48.315	97.872	304.486	47.138	53.479	70.078	205.329	50.452	55.649	58.516	61.809	174.079	58.144	-8191	255	
1044.884	1	1	0	0	0.23257	0.062386	0.099607	0.13569	0.12147	0.24076	0.009688	0.161	0.24922	0.31314	0.31703	0.11054	0.16875	0.24813	0.18843	0.17738	0.69792	-0.40833	-0.13542	0.19375	-0.51875	0.22917	-0.13333	-0.45833	0.56458	-0.12917	-0.20833	0.5	-0.40625	0.17083	0.039583	-0.325	340.283	314.831	62.938	344.080	210.342	292.031	236.318	260.787	303.891	186.893	387.752	266.744	38.628	107.148	150.581	360.275	0.00075947	0.00050018	4.2776e-05	708.3	5.8475e-06	5.8747e-06	598.26	270.18	3.3563e-06	6.5464e-06	231.28	87.25	104.28	46.407	1.0569e-05	37.031	0.00054043	0.00053945	0.00014914	719.56	5.9042e-06	5.9529e-06	607.08	270.42	5.9124e-06	5.905e-06	238.64	89.34	104.61	46.086	5.93e-06	37.582	316.924	384.147	120.529	48.322	126.214	269.124	46.889	53.918	338.079	184.564	50.962	56.143	58.196	62.086	67.960	57.663	-8191	255	
1044.980	1	1	0	0	0.056215	0.29817	0.33843	0.26028	0.15507	0.030239	0.13254	0.069739	0.21612	0.076864	0.12739	0.33197	0.1315	0.2779	0.089217	0.15702	0.74792	-0.24583	-0.05	0.083333	-0.32292	0.15833	0.11042	-0.51875	0.33542	-0.25208	-0.325	0.23125	-0.5125	0.18333	0.32917	-0.54792	133.901	269.078	72.557	87.615	350.222	283.634	46.882	198.683	374.428	348.033	364.234	80.514	394.843	348.393	377.734	97.200	0.00054072	0.00074292	0.0001678	710.29	4.005e-06	4.5978e-06	595.79	270.29	3.1838e-06	4.5186e-06	230.63	86.686	104.72	46.475	2.0992e-06	37.001	0.00053626	0.00054024	0.00015077	719.23	5.9408e-06	5.9382e-06	603.43	270.34	5.9447e-06	5.9451e-06	239.09	89.363	104.83	46.278	5.9473e-06	37.721	308.358	260.634	180.380	48.553	251.875	254.835	47.105	53.215	278.367	205.058	50.806	55.756	58.327	61.870	197.888	57.635	-8191	255	
1045.099	1	1	0	0	0.24766	0.17607	0.10082	0.071205	0.14173	0.15065	0.025286	0.077372	0.10302	0.23646	0.31498	0.13493	0.056022	0.22434	0.051866	0.09059	0.72917	-0.077083	-0.16667	0.41042	-0.31458	-0.00625	0.2625	-0.39583	0.37292	0.125	-0.47708	0.35833	-0.29792	-0.14375	0.43125	-0.70625	387.782	171.051	366.064	258.841	239.310	125.700	371.310	154.472	218.796	159.141	79.759	297.462	270.149	94.660	293.957	46.991	0.00050235	0.00075245	0.00024079	706.68	1.2134e-06	7.2029e-06	595.79	268.35	4.2219e-06	4.832e-06	230.86	87.213	104.58	46.553	2.7209e-06	37.253	0.00053987	0.00054212	0.0001512	717.77	5.9337e-06	5.9108e-06	605.89	269.81	5.9343e-06	5.957e-06	239.06	89.718	104.98	46.376	5.9486e-06	37.952	306.417	43.148	50.529	48.571	318.288	171.118	47.298	53.836	132.444	119.459	50.692	55.834	58.219	61.966	78.233	57.677	-8191	255	
1045.172	1	1	0	0	0.15825	0.11611	0.14346	0.28126	0.14457	0.17076	0.22999	0.30556	0.1512	0.088823	0.21339	0.11598	0.17048	0.20875	0.25789	0.30322	0.67917	0.17083	-0.22917	0.46875	-0.16458	0.039583	0.27083	-0.61042	0.26042	0.22708	-0.49792	0.39375	-0.095833	-0.19583	0.45417	-0.37917	88.005	377.240	91.937	351.671	136.271	140.337	382.277	382.502	393.084	220.953	272.951	202.316	107.785	109.812	47.552	94.706	0.00053976	0.00034849	0.00018763	708.43	5.1883e-06	2.26e-06	591.31	270.16	8.6901e-07	1.2444e-06	233.19	88.099	104.6	46.883	1.0311e-05	36.921	0.00054251	0.00054788	0.00015073	717.8	5.9226e-06	5.9705e-06	606.05	271.11	5.9314e-06	5.9602e-06	240.48	90.221	105.06	46.591	5.9206e-06	37.988	280.093	86.042	111.385	48.064	193.729	60.681	47.644	53.760	260.167	160.381	50.515	55.859	58.541	61.915	90.447	57.969	-8191	255	
1045.291	1	1	0	0	0.3106	0.15002	0.33114	0.083251	0.13226	0.19348	0.14446	0.23836	0.097358	0.23514	0.23463	0.31236	0.18736	0.2284	0.13381	0.1752	0.41458	0.34167	-0.52917	0.3875	-0.070833	-0.25833	0.40208	-0.525	0.14167	0.34583	-0.34792	0.35833	-0.079167	-0.49375	0.44583	-0.40625	258.509	258.056	286.486	194.635	188.929	261.379	334.795	281.397	262.990	52.155	53.458	357.757	322.240	111.742	42.030	283.829	0.00058487	0.00012182	2.29e-05	707.33	9.8537e-06	7.3902e-06	594.12	268.52	5.0845e-06	3.1056e-06	231.77	87.351	104.34	46.34	4.9584e-06	36.89	0.00054018	0.00054549	0.00015055	717.96	5.933e-06	5.9872e-06	605.78	270.19	5.9342e-06	5.9392e-06	239.36	89.74	104.71	46.224	5.9587e-06	37.752	302.118	366.624	142.689	48.502	82.996	267.643	47.211	53.635	158.253	87.379	50.952	55.757	58.465	62.054	141.437	57.969	-8191	255	
1045.387	1	1	0	0	0.16372	0.17415	0.3788	0.3037	0.20839	0.28479	0.16378	0.04297	0.26889	0.12504	0.085045	0.032452	0.25073	0.2244	0.14723	0.29112	0.40417	0.64375	-0.27708	0.30625	0.020833	-0.41458	0.40417	-0.26667	-0.029167	0.44792	-0.31042	0.20417	0.17083	-0.47083	0.58125	-0.4625	81.754	236.405	111.775	43.736	169.095	326.604	336.026	369.692	45.699	97.950	242.469	357.641	161.222	58.646	226.152	49.700	0.00058065	0.0005187	3.521e-05	703.73	4.3615e-06	7.1899e-06	593.25	269.78	1.1872e-05	3.4544e-06	231.7	87.323	104.49	46.465	9.7481e-06	36.926	0.00053942	0.00054329	0.00014986	715.28	5.9501e-06	5.9537e-06	604.36	269.66	5.9431e-06	5.9186e-06	238.94	89.451	104.79	46.263	5.9385e-06	37.858	282.025	103.774	331.336	48.598	233.265	188.942	47.561	53.622	156.106	355.328	50.519	55.576	58.189	62.007	113.947	57.654	-8191	255	
1045.483	1	1	0	0	0.16029	0.19178	0.07082	0.33288	0.16062	0.16128	0.11187	0.060018	0.073566	0.14279	0.29949	0.18023	0.1869	0.24033	0.25987	0.19586	0.25417	0.45417	-0.30625	0.19792	0.0125	-0.42917	0.34375	-0.25833	-0.041667	0.4375	-0.46042	0.175	0.15417	-0.41458	0.61042	-0.19583	120.520	293.038	78.165	326.992	271.413	138.113	360.720	260.805	75.925	320.719	65.356	126.888	195.441	262.476	283.427	301.552	0.00047848	0.0011382	0.00022122	707.54	2.7344e-06	5.9742e-06	593.48	269.23	1.1154e-05	6.8714e-07	232.92	88.125	104.21	46.593	4.5745e-06	37.334	0.00054118	0.00053978	0.00015028	715.51	5.9364e-06	5.9227e-06	605.48	269.72	5.8918e-06	5.9104e-06	239.29	89.938	104.44	46.365	5.8893e-06	38.013	296.877	101.607	131.129	48.336	80.607	206.973	46.889	53.707	160.747	90.958	50.864	55.785	58.382	62.195	118.074	57.878	-8191	255	
1045.580	1	1	0	0	0.12651	0.085585	0.15541	0.17159	0.17331	0.34448	0.15087	0.13614	0.25172	0.18952	0.21573	0.045061	0.09237	0.14679	0.16895	0.088543	0.23958	0.66042	-0.20625	0.016667	0.20208	-0.43958	0.33333	-0.15833	-0.11042	0.53333	-0.39375	0.0020833	0.25833	-0.47917	0.25625	-0.010417	39.151	234.467	298.583	129.300	302.904	364.662	358.490	45.620	39.666	234.185	219.374	302.580	310.079	101.860	379.997	346.138	0.0005538	0.00032589	1.3734e-05	707.95	7.0174e-06	8.9895e-06	597.94	269.64	4.6271e-06	2.3596e-06	236.02	87.63	104.43	46.568	2.9985e-06	37.304	0.00053933	0.00054135	0.00015088	718.06	5.9372e-06	5.9099e-06	609.35	270.15	5.8972e-06	5.9099e-06	241.96	90.117	104.82	46.443	5.9399e-06	38.203	294.209	45.944	288.071	48.574	146.970	231.507	47.453	53.805	135.678	393.985	51.047	55.659	58.320	62.136	56.976	58.013	-8191	255	
1045.700	1	1	0	0	0.11874	0.13161	0.056125	0.092333	0.31067	0.16634	0.40085	0.13297	0.058407	0.11417	0.14324	0.23891	0.36541	0.25817	0.12428	0.2086	0.3	0.59792	-0.077083	-0.075	0.3375	-0.39583	0.35625	0.18958	-0.31667	0.51042	-0.13958	0.033333	0.30417	-0.29375	0.10625	0.24375	350.030	273.081	374.100	382.199	210.925	249.575	297.435	156.803	110.799	325.692	244.226	143.330	36.318	360.716	54.959	116.255	0.00055458	0.00032979	1.0782e-05	710.6	2.6826e-06	3.9532e-06	599.73	269.91	5.1166e-06	5.2708e-06	232.53	87.14	104.13	46.341	9.688e-06	36.989	0.00054205	0.00054335	0.00015199	721.37	5.9424e-06	5.9508e-06	610.82	270.84	6.0017e-06	5.9537e-06	240.97	89.865	104.78	46.4	5.9523e-06	37.949	281.066	173.142	290.859	48.872	96.706	260.150	47.215	54.056	98.029	126.317	51.315	56.066	59.213	62.779	262.624	58.392	-8191	255	
1045.772	1	1	0	0	0.1176	0.33715	0.21657	0.076818	0.2064	0.1658	0.17281	0.084106	0.11551	0.070003	0.18673	0.079672	0.1258	0.16947	0.08734	0.099561	-0.066667	0.40833	-0.0125	-0.20625	0.29167	-0.39792	0.097917	0.23542	-0.28125	0.52292	-0.175	-0.34583	0.375	-0.4125	0.091667	0.33125	143.169	167.246	257.989	56.366	146.284	63.596	313.995	169.976	320.948	282.114	191.296	345.282	330.667	298.134	327.881	319.626	0.00053794	0.0007041	0.00010719	706.82	5.0079e-06	5.615e-06	596.48	269.71	5.7904e-06	8.6286e-06	232.61	87.647	105.11	46.656	5.5243e-06	37.236	0.00053992	0.0005473	0.00015107	720.4	5.9388e-06	5.9614e-06	607.04	271.2	5.951e-06	5.9507e-06	240.26	90.027	105.2	46.453	5.9832e-06	38.054	296.464	175.092	183.250	48.689	156.163	362.161	47.385	54.359	193.536	181.452	50.722	55.916	58.911	62.095	267.217	58.342	-8191	255	
1045.868	1	1	0	0	0.2278	0.068797	0.19946	0.2335	0.27723	0.17666	0.24649	0.34547	0.067836	0.31523	0.11016	0.29786	0.20529	0.17371	0.053896	0.2427	0.039583	0.3	0.17708	-0.47083	0.66458	-0.19375	-0.17708	0.33958	-0.22708	0.24167	0.11458	-0.1625	0.325	-0.36458	0.066667	0.43125	163.882	68.132	335.850	141.446	281.635	160.960	251.796	369.119	199.860	345.219	343.232	57.113	206.381	276.132	102.747	113.811	0.00028405	0.0001455	0.00018522	703.01	4.0167e-06	5.6533e-06	594.5	268.41	1.7598e-05	3.9525e-06	231.2	88.33	104.29	46.766	8.1295e-06	37.359	0.00054599	0.00054239	0.00015129	717.19	5.9927e-06	5.9664e-06	606.52	270.59	5.9365e-06	5.9965e-06	240.73	90.322	104.9	46.521	5.9874e-06	38.216	288.175	68.069	104.905	48.773	134.116	106.526	47.380	54.225	114.054	198.650	51.102	56.440	58.664	62.608	233.297	58.255	-8191	255	
1045.989	1	1	0	0	0.12607	0.27016	0.047849	0.19131	0.029576	0.24015	0.23503	0.17059	0.24318	0.14458	0.054002	0.046111	0.081217	0.19598	0.11121	0.22257	-0.10833	0.21667	0.09375	-0.41042	0.46042	-0.125	-0.19167	0.38958	-0.45208	0.40208	0.44375	-0.35625	0.60833	-0.12708	-0.14375	0.40625	268.922	354.535	302.272	61.033	79.673	169.450	358.971	168.484	45.632	327.232	196.788	327.461	334.186	357.263	353.699	267.452	0.00047421	0.00040337	0.00010788	705.95	5.3524e-06	4.6649e-06	596.74	268.93	6.0071e-06	1.9949e-06	233.57	88.185	105.49	46.942	1.2303e-05	37.671	0.00054545	0.00054272	0.00015115	718.49	5.9619e-06	6.0205e-06	607.76	270.64	6.0277e-06	5.9462e-06	241.37	90.634	105.23	46.685	5.9635e-06	38.418	308.488	43.637	213.060	48.875	151.631	36.081	47.251	54.044	105.064	99.208	50.992	56.201	58.790	61.967	185.924	57.966	-8191	255	
1046.083	1	1	0	0	0.18516	0.25166	0.26515	0.22724	0.1114	0.076281	0.16583	0.26153	0.21873	0.18259	0.14454	0.070764	0.22463	0.18644	0.10897	0.16024	0.1625	0.10833	0.38542	-0.43542	0.39792	0.079167	-0.125	0.40208	-0.30208	0.25417	0.22708	-0.3625	0.33333	0.10625	-0.31042	0.50417	368.490	117.252	47.898	354.885	103.318	68.915	108.416	351.737	243.030	331.918	358.335	200.620	317.873	301.198	321.914	158.800	0.00060727	0.0006175	0.0001811	708	3.8072e-06	5.2551e-06	593.73	268.38	8.3681e-06	8.7382e-06	232.86	87.762	104.21	46.81	1.3696e-05	37.363	0.00054757	0.00054856	0.00015259	718.86	6.0027e-06	5.9814e-06	607.48	270.16	6.0184e-06	6.0068e-06	241	90.192	104.83	46.423	5.9446e-06	38.081	311.159	184.414	156.199	48.960	73.843	160.267	47.600	54.186	260.825	146.258	50.589	55.645	58.518	62.127	209.770	57.759	-8191	255	
1046.179	1	1	0	0	0.16635	0.18402	0.18201	0.26849	0.17664	0.1671	0.10033	0.24751	0.11516	0.1011	0.26145	0.056431	0.06064	0.26669	0.021556	0.24509	0.2	-0.0041667	0.41875	-0.39167	0.50208	0.0083333	-0.47083	0.40625	-0.15	-0.033333	0.35833	-0.54167	0.039583	0.24792	-0.37917	0.30417	59.555	122.891	336.001	54.935	218.031	279.766	222.967	297.634	88.926	284.500	327.853	57.667	115.563	374.282	250.153	292.575	0.00063835	0.00061375	0.00019675	703.75	2.8937e-06	6.4052e-06	591.25	268.61	7.753e-06	2.1006e-06	229.63	87.02	104.6	46.412	6.959e-06	37.08	0.00054577	0.00054987	0.00015269	717.86	5.9916e-06	5.9798e-06	604.85	269.64	6.0072e-06	6.0157e-06	239.18	89.681	104.56	46.344	5.98e-06	37.966	278.971	138.089	61.392	48.608	392.804	177.949	47.521	54.111	135.253	201.257	50.841	55.952	58.879	62.306	328.752	57.822	-8191	255	
1046.275	1	1	0	0	0.12712	0.31255	0.14528	0.063793	0.34612	0.31488	0.28414	0.1657	0.22141	0.28941	0.099587	0.33358	0.077486	0.078154	0.32939	0.18082	0.1125	-0.25417	0.54375	-0.41458	0.16875	0.30625	-0.50417	0.41042	0.083333	0.022917	0.33542	-0.44375	0.014583	0.31667	-0.44167	0.27292	329.957	385.985	239.447	342.481	355.467	204.618	149.139	350.190	366.478	244.546	139.860	366.275	331.228	378.442	171.851	367.130	0.00045151	0.00031502	0.0001343	706.89	2.3264e-06	4.6665e-06	591.13	267.87	8.6053e-06	1.7967e-06	231.37	87.129	104.47	46.274	1.0482e-05	37.212	0.00054617	0.00054382	0.00015167	716.03	6.0029e-06	6.0008e-06	604.38	269.59	5.9781e-06	5.9772e-06	239.96	89.858	104.65	46.222	5.9389e-06	38.104	298.694	137.109	164.304	48.804	213.290	253.295	47.327	54.026	181.147	351.625	51.270	55.859	58.662	62.222	152.691	57.555	-8191	255	
1046.372	1	1	0	0	0.10392	0.017391	0.25126	0.090682	0.075618	0.13321	0.17716	0.10097	0.11862	0.21277	0.083547	0.26494	0.36533	0.21811	0.12378	0.095344	0.39583	-0.25625	0.50625	-0.21042	0.15625	0.58958	-0.49375	0.27292	0.08125	-0.39792	0.37708	-0.25625	-0.083333	0.33542	-0.24167	0.20417	349.732	339.309	142.931	133.901	64.183	306.154	247.492	390.425	376.846	61.623	236.343	55.371	361.777	341.889	234.495	226.397	0.00085303	0.00074557	6.2477e-05	706.66	9.0823e-06	1.8366e-06	597.57	269.12	8.8788e-06	7.9637e-06	234.74	88.327	104	46.424	6.5259e-07	37.365	0.00054253	0.00054417	0.00015104	718.77	5.9347e-06	5.9302e-06	608.74	270.12	5.9679e-06	5.9766e-06	241.49	90.397	104.53	46.286	5.9077e-06	38.198	289.103	92.456	346.317	48.774	118.218	91.153	47.745	54.139	196.905	183.344	51.459	55.775	58.561	62.390	173.491	58.125	-8191	255	
1046.466	1	1	0	0	0.28207	0.09669	0.1822	0.36616	0.13871	0.21242	0.16588	0.13343	0.051699	0.34277	0.059443	0.10378	0.19751	0.15473	0.04013	0.193	0.71042	-0.35625	0.43958	-0.41042	0	0.36042	-0.46667	0.1	0.36458	-0.56667	0.33333	-0.18333	-0.22917	0.43333	-0.34167	0.1625	215.186	277.840	239.352	36.527	340.639	107.603	60.433	318.106	246.803	150.473	347.466	63.083	369.765	82.211	290.530	263.638	0.00063061	0.00057211	0.00023864	710.06	5.2513e-06	7.2408e-06	599.61	269.77	7.1034e-06	4.2029e-06	233.43	88.495	104.4	46.337	1.0108e-05	37.127	0.00054381	0.00054144	0.0001509	722.3	5.9487e-06	5.9859e-06	613.17	270.68	5.9879e-06	5.9371e-06	241.69	90.378	104.73	46.119	5.9244e-06	37.979	302.564	130.300	138.465	48.730	85.123	140.603	47.564	53.976	75.714	68.518	50.751	55.760	58.764	62.301	172.369	57.922	-8191	255	
1046.564	1	1	0	0	0.21154	0.17072	0.083505	0.21002	0.084138	0.25092	0.09217	0.14112	0.33817	0.048789	0.15143	0.0086954	0.15377	0.13922	0.28513	0.038195	0.67708	-0.57292	0.46875	0.010417	-0.18542	0.49792	-0.59792	-0.12083	0.3875	-0.275	0.39375	-0.10417	-0.42708	0.29792	-0.31458	-0.091667	209.424	116.245	167.466	370.109	249.035	347.093	83.032	127.451	374.766	392.417	67.294	175.852	392.075	328.625	186.555	210.467	0.0004306	0.00029019	0.00010055	715.59	2.3279e-06	2.6858e-06	599.76	268.85	5.5501e-06	1.1767e-06	233.26	87.523	104.34	46.251	1.404e-06	37.108	0.00054369	0.00054044	0.00015192	722.47	5.9501e-06	5.9603e-06	610.12	270.15	5.9526e-06	5.9356e-06	240.66	90.115	104.49	46.015	5.9281e-06	37.82	277.604	207.129	212.560	48.764	213.741	204.432	47.382	53.780	379.567	105.314	50.823	56.382	58.630	62.377	176.332	57.977	-8191	255	
1046.683	1	1	0	0	0.43281	0.40424	0.12178	0.15934	0.19741	0.30585	0.093161	0.36463	0.27245	0.31202	0.078941	0.28124	0.10354	0.21651	0.19529	0.26441	0.61875	-0.38542	0.43958	0.05	-0.32292	0.58333	-0.11875	-0.18125	0.39167	-0.46875	0.16667	0.25	-0.53958	0.39792	-0.066667	-0.35625	80.901	77.554	275.629	344.981	113.484	301.774	220.089	331.569	80.839	192.831	318.118	350.495	154.201	249.592	359.284	324.314	0.00035885	0.00067916	8.0239e-05	709.52	5.0927e-06	2.4242e-06	598.4	269.71	1.1314e-05	2.6911e-06	232.5	88.008	104.91	46.228	6.1189e-06	37.051	0.00054231	0.00054222	0.0001502	719.85	5.9231e-06	5.9678e-06	608.44	270.08	5.9446e-06	5.9903e-06	240.45	89.952	104.51	46.032	5.938e-06	37.891	302.189	103.655	56.244	48.387	187.619	130.074	47.381	53.825	147.918	55.560	51.240	56.281	58.551	62.196	132.863	57.746	-8191	255	
1046.779	1	1	0	0	0.28279	0.29589	0.21888	0.20793	0.10371	0.35609	0.41934	0.14336	0.1599	0.37567	0.35789	0.26233	0.056662	0.14702	0.17389	0.068154	0.7375	-0.325	0.29792	0.22083	-0.4125	0.49167	-0.11042	-0.18958	0.6125	-0.325	0.1375	0.19792	-0.37292	0.2125	-0.1125	-0.32292	256.334	169.260	70.459	329.637	351.239	77.574	312.379	63.227	196.542	218.415	47.291	371.434	260.000	395.716	175.753	90.041	0.00067736	8.8209e-05	0.0002468	706.84	6.5179e-06	6.5022e-06	598.05	268.07	1.0294e-05	5.1431e-06	232.88	88.077	104.51	46.637	1.0128e-05	37.528	0.00053929	0.00054276	0.00014986	720.28	5.8971e-06	5.9893e-06	609.66	269.7	5.9689e-06	5.9326e-06	240.91	90.163	104.67	46.193	5.9393e-06	38.194	289.444	184.480	181.580	48.649	90.819	215.470	47.297	53.734	91.096	165.154	50.708	55.666	58.363	62.397	141.607	58.186	-8191	255	
1046.875	1	1	0	0	0.087164	0.081626	0.018935	0.13698	0.22476	0.23517	0.18131	0.14143	0.40185	0.34002	0.21003	0.30083	0.24255	0.084724	0.20804	0.22626	0.8125	-0.2875	0.01875	0.325	-0.35833	0.43958	-0.022917	-0.20833	0.475	-0.32083	-0.10208	0.40833	-0.49167	0.23333	0.20625	-0.44167	280.058	163.215	370.135	337.081	191.266	292.195	263.384	270.344	64.815	38.457	337.942	239.164	41.270	70.504	246.916	136.580	0.00081263	0.00084092	0.00014212	705.9	5.8585e-06	5.0271e-06	596.19	268.72	2.4861e-06	9.8376e-06	232.07	88.01	104.53	45.973	2.491e-06	36.845	0.00054251	0.00054057	0.00015132	719.14	5.9542e-06	5.9929e-06	608.66	269.96	5.9538e-06	5.9414e-06	240.45	89.967	104.58	45.917	5.8968e-06	37.739	303.943	138.196	237.212	48.542	191.509	256.952	47.004	53.582	103.044	168.874	51.174	56.125	58.552	62.183	66.382	58.130	-8191	255	
1046.971	1	1	0	0	0.10347	0.28563	0.085209	0.28244	0.12375	0.05516	0.23638	0.079364	0.21341	0.088926	0.091678	0.11728	0.12677	0.2806	0.26986	0.2042	0.77917	-0.091667	0.10625	0.46667	-0.26458	0.325	0.13958	-0.43125	0.55417	-0.13958	-0.20417	0.56667	-0.50833	0.10208	0.35625	-0.43958	124.564	359.124	142.492	40.285	128.134	138.233	353.347	203.282	298.081	174.431	256.154	52.724	115.287	392.812	111.659	380.604	0.00041665	0.00064639	0.00014734	704.77	8.9476e-06	4.8201e-06	592.53	268.46	4.0982e-06	1.0451e-05	232.01	87.242	104.44	46.032	1.3271e-05	36.959	0.0005444	0.00054569	0.00015131	717.35	5.966e-06	5.9553e-06	604.25	269.6	5.9533e-06	6.0007e-06	239.04	89.515	104.25	45.879	5.9671e-06	37.763	283.401	391.310	117.204	48.533	170.811	193.717	47.416	53.865	126.921	194.356	50.594	55.668	58.817	62.006	199.876	58.008	-8191	255	
1047.067	1	1	0	0	0.067826	0.1372	0.20803	0.12314	0.1905	0.070881	0.43526	0.20085	0.054626	0.072089	0.13484	0.13606	0.26944	0.21365	0.043789	0.24145	0.72708	-0.12083	-0.19792	0.41875	-0.26042	0.091667	0.12917	-0.42292	0.45	0.085417	-0.29375	0.43333	-0.41875	-0.18542	0.22083	-0.48542	216.158	309.417	305.298	155.393	231.932	42.368	394.249	57.719	57.628	304.641	74.294	173.947	81.914	340.747	338.372	316.527	0.00059813	0.00070076	0.00028686	702.72	5.2017e-06	2.0768e-06	591.11	268.07	5.8909e-06	9.7247e-06	231.85	86.61	103.76	46.202	6.2071e-06	37.201	0.00054675	0.00054292	0.0001513	714.57	5.8887e-06	5.9809e-06	603.51	268.98	5.9986e-06	5.9119e-06	239.16	89.356	104.21	45.929	5.9488e-06	37.939	304.539	50.661	122.473	48.755	178.771	231.883	47.312	54.101	263.019	108.712	50.783	56.141	58.607	62.196	332.489	57.998	-8191	255	
1047.163	1	1	0	0	0.025431	0.1768	0.17771	0.26755	0.20102	0.071733	0.2672	0.17662	0.15401	0.043646	0.11098	0.045685	0.13297	0.093775	0.14185	0.36586	0.68958	0.23542	-0.33125	0.29375	-0.15	-0.1125	0.31458	-0.675	0.45625	0.09375	-0.35208	0.30208	-0.13333	-0.25208	0.43958	-0.41042	235.728	382.971	357.394	103.929	309.712	212.354	339.277	362.106	186.323	176.432	276.814	326.670	318.201	117.605	79.049	262.123	0.00052459	0.0003666	0.00022606	702.24	5.3813e-06	5.4803e-06	595.1	267.7	4.9491e-06	5.3401e-06	231.42	87.389	103.74	46.365	6.6879e-06	37.335	0.00054021	0.00054633	0.00015157	714.1	5.9583e-06	5.9019e-06	605.16	268.82	5.9204e-06	5.9094e-06	239.27	89.912	104.43	46.128	5.9333e-06	38.187	308.874	81.720	134.867	48.611	179.497	219.608	47.852	54.164	219.585	176.222	50.743	55.931	58.613	62.265	71.006	58.073	-8191	255	
1047.284	1	1	0	0	0.025401	0.25247	0.16131	0.088886	0.10819	0.25557	0.065358	0.15276	0.12374	0.19913	0.19902	0.092901	0.27189	0.15411	0.22952	0.265	0.5625	0.32917	-0.24375	0.60208	-0.17917	-0.12708	0.35208	-0.48125	0.072917	0.51875	-0.39792	0.32292	0.085417	-0.26667	0.61875	-0.31458	291.292	244.695	193.040	351.476	369.725	356.323	286.837	95.552	62.177	89.617	320.643	160.305	96.635	379.751	101.802	368.893	0.00050845	0.00069715	6.3522e-05	702.18	7.744e-06	6.1388e-06	596.17	269.14	1.2716e-06	5.2925e-06	231.45	87.784	104.19	46.095	1.1722e-05	37.352	0.00053878	0.00054253	0.0001514	713.09	5.9359e-06	5.9433e-06	605.53	269.52	5.9957e-06	5.979e-06	240.28	90.282	104.31	46.028	5.9234e-06	38.04	273.806	125.431	216.364	48.633	162.251	143.477	47.199	54.128	169.422	169.024	51.284	56.218	58.666	62.515	240.321	58.591	-8191	255	
1047.380	1	1	0	0	0.27236	0.053188	0.1786	0.080541	0.18273	0.19798	0.22573	0.16977	0.15926	0.37094	0.25608	0.1108	0.10181	0.10719	0.21158	0.15173	0.53542	0.53958	-0.34375	0.27917	0.06875	-0.39167	0.32083	-0.22292	0.21458	0.45	-0.50417	0.30417	-0.014583	-0.4	0.62292	-0.11875	369.911	228.939	222.737	146.267	368.847	266.190	273.909	321.665	177.714	251.204	79.401	137.959	148.923	151.520	118.049	268.593	0.00072279	0.00062872	0.00014015	705.3	1.6936e-06	5.063e-06	592	267.01	4.5247e-06	5.046e-06	229.44	86.704	103.26	45.94	1.0904e-06	36.883	0.00053882	0.00054069	0.00015097	714.97	5.9292e-06	5.9405e-06	605.71	268.88	5.9078e-06	5.961e-06	238.9	89.39	103.82	45.786	5.9343e-06	37.627	287.012	168.449	168.541	48.522	170.157	191.393	47.769	54.040	101.028	114.756	51.122	56.089	58.606	62.317	181.863	58.277	-8191	255	
1047.475	1	1	0	0	0.27653	0.33745	0.43332	0.11241	0.02971	0.03053	0.18363	0.48561	0.21328	0.13716	0.090364	0.1295	0.042806	0.19417	0.11006	0.2716	0.22708	0.40208	-0.19375	-0.039583	0.23333	-0.24167	0.45833	-0.047917	-0.05	0.62708	-0.3375	0.13542	0.2125	-0.41042	0.44792	0	372.391	65.897	85.183	58.640	390.334	123.372	64.463	301.361	156.377	109.289	157.036	383.269	313.430	376.503	285.758	325.053	0.00063119	0.00046696	9.9093e-05	705.19	8.5908e-06	5.5816e-06	594.05	267.79	7.4008e-06	2.523e-06	232.47	86.934	103.69	46.18	4.4454e-06	36.977	0.00054022	0.00053759	0.00014853	714.34	5.8719e-06	5.9486e-06	604.2	268.37	5.8993e-06	5.8849e-06	239.05	89.161	103.84	45.768	5.8593e-06	37.738	305.817	185.570	204.133	48.647	145.449	381.257	47.697	53.727	166.632	310.082	50.844	55.545	58.607	62.158	200.916	58.041	-8191	255	
1047.571	1	1	0	0	0.16243	0.17479	0.15969	0.33573	0.07784	0.077486	0.25847	0.16581	0.29852	0.05641	0.35609	0.2224	0.22291	0.29869	0.16406	0.33221	0.072917	0.48958	-0.15	0.08125	0.3875	-0.63542	0.27083	0.0020833	-0.41875	0.4875	-0.2875	0.0083333	0.35208	-0.19375	0.4375	0.15	263.648	76.032	238.038	392.416	238.863	114.032	64.286	396.194	256.064	262.211	89.602	168.650	356.905	385.365	225.432	169.386	0.00060613	0.00052778	0.00021017	703.84	5.7697e-06	2.5625e-06	591.72	267.2	1.0217e-05	1.087e-05	229.89	87.302	103.62	45.971	1.5458e-05	37.017	0.00053543	0.00053656	0.00014952	714.22	5.8713e-06	5.8265e-06	604.44	268.18	5.8587e-06	5.8696e-06	238.96	89.683	103.76	45.644	5.8617e-06	37.786	283.190	313.550	66.893	48.684	262.267	126.117	47.358	54.343	113.725	150.082	51.012	56.073	58.692	62.040	234.018	58.071	-8191	255	
1047.644	1	1	0	0	0.12272	0.35424	0.25428	0.14166	0.56497	0.12384	0.23008	0.50767	0.22944	0.36968	0.19257	0.21202	0.09437	0.074121	0.1536	0.31514	0.077083	0.52708	0.00625	0.089583	0.53958	-0.13958	0.24375	0.25208	-0.17292	0.5	-0.13125	-0.075	0.3375	-0.63125	0.1625	0.15833	387.597	217.441	350.090	75.697	65.509	182.196	63.360	363.761	153.132	382.450	182.770	261.198	161.417	67.052	306.053	243.448	0.00056046	0.00036207	0.00012178	708.18	2.951e-06	6.1271e-06	596.77	267.78	7.5022e-06	5.7967e-06	233.58	86.99	103.85	46.029	9.5808e-06	37.138	0.00053538	0.000538	0.00015003	718.63	5.9233e-06	5.8914e-06	610.16	269.19	5.881e-06	5.8617e-06	241.21	89.743	104.11	45.801	5.9249e-06	37.863	300.297	324.604	81.413	48.468	194.674	129.963	47.373	53.879	99.111	132.982	51.223	56.037	58.866	62.581	154.423	58.180	-8191	255	
1047.763	1	1	0	0	0.31932	0.25189	0.1775	0.27985	0.055438	0.15824	0.1062	0.31952	0.27657	0.16042	0.25813	0.37772	0.12573	0.27394	0.13931	0.22534	0.175	0.55417	-0.014583	-0.2125	0.60625	-0.28125	-0.12917	0.36042	-0.40208	0.49583	0.0020833	-0.095833	0.35417	-0.49375	0.25208	0.41042	202.355	355.390	88.784	357.021	145.624	380.692	62.185	381.343	326.578	96.019	384.369	250.162	251.749	72.154	269.260	342.353	0.00057374	0.00072024	0.00016615	706.66	7.3405e-06	4.5922e-06	595.96	268.13	1.0526e-06	3.958e-06	231.47	87.208	103.92	45.783	2.1517e-06	36.816	0.00053946	0.00054	0.00014962	718.23	5.8902e-06	5.9267e-06	608.84	269.23	5.9208e-06	5.881e-06	240.19	89.821	103.96	45.727	5.8569e-06	37.611	296.414	94.261	303.774	48.694	169.067	212.382	47.356	54.241	327.941	217.570	50.840	56.113	58.559	62.603	149.828	58.485	-8191	255	
1047.859	1	1	0	0	0.21844	0.067706	0.071704	0.27935	0.153	0.080598	0.3247	0.19514	0.25556	0.20508	0.047625	0.16058	0.26128	0.092534	0.29893	0.15434	0.16042	0.625	0.0020833	-0.2875	0.49375	-0.066667	-0.091667	0.31875	-0.26458	0.35625	0.11667	-0.32917	0.46875	-0.22917	0.072917	0.40417	250.600	175.944	280.149	380.924	262.984	70.487	274.634	218.195	346.885	210.637	200.020	360.282	107.694	53.478	160.290	288.738	0.00050226	0.00057831	0.00012473	708.43	3.4477e-06	6.1505e-06	595.51	267.62	4.5601e-06	3.9837e-06	230.68	87.164	103.74	45.979	1.9363e-06	36.941	0.00053673	0.00054184	0.00014877	718.73	5.8913e-06	5.8719e-06	607	269.22	5.8967e-06	5.8772e-06	239.33	89.592	103.94	45.728	5.8827e-06	37.75	282.501	116.019	134.563	48.918	74.450	137.646	47.315	54.371	223.624	317.336	51.383	56.006	58.686	62.267	46.151	57.713	-8191	255	
1047.955	1	1	0	0	0.35425	0.048005	0.29501	0.12843	0.3406	0.35412	0.27413	0.2943	0.27404	0.25417	0.43335	0.16534	0.12464	0.20145	0.20908	0.1659	-0.0625	0.34583	0.22083	-0.39375	0.50625	0.0083333	-0.10625	0.48333	-0.39167	0.31458	0.30417	-0.21458	0.46667	-0.00625	-0.06875	0.44375	330.361	250.242	151.674	75.240	253.903	104.445	329.651	347.470	256.513	74.710	47.638	391.372	359.973	82.715	392.856	222.455	0.00053982	0.00069149	8.0151e-05	703.93	5.1673e-06	3.8064e-06	594.68	268.25	1.2818e-05	2.4817e-06	233.33	87.695	104.01	45.727	7.1037e-06	37.201	0.00053645	0.0005384	0.00014984	716.24	5.8987e-06	5.9228e-06	607.05	269.01	5.8798e-06	5.9063e-06	240.07	89.823	103.97	45.647	5.8891e-06	37.801	292.254	153.434	186.750	48.580	213.169	164.413	47.592	54.112	180.049	291.086	50.898	55.877	58.370	62.357	189.570	57.855	-8191	255	
1048.052	1	1	0	0	0.15374	0.099512	0.13693	0.1487	0.21116	0.1071	0.24132	0.27698	0.14281	0.11776	0.0568	0.2084	0.21489	0.032976	0.095734	0.19515	0.0375	0.425	0.65417	-0.24792	0.49792	0.27708	-0.30417	0.46458	-0.0125	0.20208	0.37917	-0.30625	0.32292	0.13333	-0.05625	0.44375	125.730	81.579	293.523	212.241	53.285	158.852	277.220	303.859	103.833	137.737	115.564	118.342	293.105	124.691	292.559	370.292	0.00062672	0.00092259	9.3733e-05	703.94	5.8271e-06	2.1999e-06	602.95	269.98	5.7441e-06	6.3632e-06	232.65	87.678	103.79	46.22	1.5639e-05	36.976	0.00053896	0.00053823	0.00015064	717.94	5.8717e-06	5.9454e-06	608.83	269.65	5.8991e-06	5.8834e-06	240.78	89.997	103.98	45.85	5.8986e-06	37.956	308.713	62.671	173.711	48.831	217.170	318.197	47.230	53.656	132.586	175.318	50.912	55.929	58.758	62.331	180.082	58.095	-8191	255	
1048.172	1	1	0	0	0.093094	0.22771	0.10803	0.060934	0.23521	0.10819	0.26091	0.10607	0.013345	0.29888	0.17448	0.2474	0.17958	0.21641	0.045208	0.40439	0.225	0.10208	0.45417	-0.35	0.44167	0.060417	-0.27083	0.57917	0.039583	0.033333	0.48333	-0.20417	0.28125	0.45625	-0.28125	0.38333	264.501	75.046	386.564	164.082	79.203	124.102	304.976	150.525	196.194	142.897	377.021	230.024	86.035	388.624	273.902	367.752	0.00062191	0.00041142	0.00023293	701.25	3.1212e-06	4.3464e-06	596.88	267.02	9.6168e-06	8.2414e-06	231.42	86.996	104.19	45.89	5.9099e-06	36.835	0.00054046	0.00054162	0.00015034	715.41	5.913e-06	5.9341e-06	608.48	268.66	5.9642e-06	5.8929e-06	239.74	89.655	103.96	45.715	5.8975e-06	37.598	286.961	384.946	116.761	48.967	118.445	210.229	47.239	54.044	145.617	186.127	50.972	56.071	58.653	62.330	219.236	58.213	-8191	255	
1048.268	1	1	0	0	0.14586	0.31817	0.18898	0.12159	0.11662	0.15944	0.095215	0.149	0.044802	0.21176	0.15243	0.13809	0.12689	0.1709	0.068296	0.11657	0.18542	-0.12292	0.30833	-0.40208	0.33542	0.30625	-0.4375	0.47708	0.13125	0	0.61458	-0.175	0.041667	0.50833	-0.00625	0.69375	222.348	288.470	152.339	248.410	277.643	330.929	195.684	394.094	297.640	313.664	208.895	354.832	293.704	385.010	44.351	373.243	0.00068006	0.00027829	9.9618e-05	702.9	1.0889e-05	6.5293e-07	593.27	267.87	1.0472e-05	1.4087e-06	231.16	87.155	103.06	45.767	7.4721e-06	36.569	0.00053621	0.00053741	0.0001499	713.67	5.8936e-06	5.8994e-06	605.03	268.22	5.9028e-06	5.9241e-06	238.88	89.304	103.5	45.482	5.8812e-06	37.457	299.654	126.309	356.066	48.653	175.744	170.857	47.391	53.776	164.052	51.518	51.190	56.151	58.449	62.324	154.547	57.961	-8191	255	
1048.364	1	1	0	0	0.20605	0.25087	0.15031	0.3162	0.28407	0.066521	0.14217	0.12139	0.20857	0.096303	0.17466	0.0906	0.30127	0.22444	0.26826	0.14643	0.80208	0.16875	0.70208	0.041667	0.59375	0.56667	-0.26667	0.48333	0.25208	0.14792	0.53958	-0.1	0.13125	0.49167	-0.16458	0.50833	147.997	328.910	150.773	359.322	223.228	338.223	67.835	78.204	156.585	211.202	67.248	381.123	37.310	372.740	340.112	195.113	0.00065013	0.00047637	0.00011374	703.93	2.7051e-06	9.2335e-06	596.7	268.64	9.4133e-06	7.4157e-06	230.91	86.576	103.4	46.018	4.793e-06	36.791	0.00053874	0.00054081	0.00015066	713.36	5.9137e-06	5.9084e-06	605.48	268.54	5.8666e-06	5.884e-06	239.04	89.324	103.54	45.649	5.8458e-06	37.629	308.488	68.704	388.912	48.811	142.945	209.605	47.172	53.944	239.477	112.487	50.997	55.672	58.605	62.223	272.859	58.144	-8191	255	
1048.461	1	1	0	0	0.14594	0.11549	0.17837	0.25144	0.10678	0.20261	0.35419	0.17314	0.26011	0.12803	0.28128	0.062814	0.22037	0.15913	0.079449	0.14163	0.80208	0.083333	0.72083	-0.0625	0.2375	0.89583	-0.091667	0.33542	0.55208	-0.08125	0.66042	0.19583	0.1	0.5625	-0.060417	0.325	216.476	262.341	246.254	302.021	350.014	68.209	309.695	66.362	307.147	150.275	266.489	366.077	371.057	359.647	171.358	201.654	0.00044835	0.00036275	6.4755e-05	705.4	5.6289e-06	2.4618e-06	597.17	267.16	3.5118e-06	4.5327e-07	233.07	87.2	103.21	45.883	7.0885e-07	37.141	0.00053799	0.00053848	0.000149	715.47	5.8062e-06	5.8484e-06	606.74	268.53	5.884e-06	5.8717e-06	240.2	89.597	103.72	45.682	5.87e-06	37.784	297.728	389.331	349.658	48.755	137.865	41.879	47.307	53.875	384.272	133.758	50.373	55.908	58.417	62.062	333.646	58.118	-8191	255	
1048.555	1	1	0	0	0.077103	0.2042	0.18098	0.13199	0.091488	0.11342	0.36386	0.13153	0.065804	0.291	0.062253	0.096893	0.047049	0.029178	0.13523	0.10117	0.87083	0.014583	0.68542	0.22917	-0.072917	0.75208	-0.20625	0.19583	0.57708	-0.064583	0.37917	0.19167	-0.070833	0.60208	-0.00625	0.29792	161.524	326.097	62.408	115.598	114.096	222.833	205.751	151.277	172.518	360.495	106.893	382.750	327.657	63.332	108.621	73.116	0.00049716	0.00054564	0.00011177	703.04	5.877e-06	4.554e-06	599.35	268.31	5.2629e-06	5.9135e-06	232.03	87.316	102.99	45.394	7.3714e-06	36.668	0.00053311	0.00053541	0.00014881	716.28	5.8348e-06	5.8584e-06	610.08	268.5	5.8205e-06	5.8721e-06	239.14	89.523	103.32	45.405	5.8183e-06	37.42	281.942	287.737	160.492	48.842	225.488	322.272	47.781	53.993	302.873	92.448	50.943	55.923	58.233	62.423	148.385	58.150	-8191	255	
1048.651	1	1	0	0	0.16583	0.031081	0.07203	0.022821	0.13295	0.16916	0.17313	0.13441	0.11612	0.12542	0.19556	0.30722	0.22383	0.02714	0.20382	0.15885	0.98333	-0.039583	0.66042	0.36042	-0.09375	0.78958	-0.05625	0.16875	0.67708	-0.035417	0.54375	0.54167	-0.15833	0.59792	0.16667	0.11875	360.968	380.405	255.165	110.137	51.440	125.104	242.228	310.729	335.927	243.222	366.558	229.726	333.639	167.052	139.141	270.628	0.00057976	0.00037047	7.5357e-05	704.62	8.9983e-06	3.8063e-06	599.34	267.72	8.5813e-06	1.6115e-05	230.14	86.351	102.89	45.279	6.075e-06	36.368	0.00053626	0.00053536	0.00014915	716.06	5.7957e-06	5.8711e-06	610.26	267.74	5.8247e-06	5.8404e-06	238.24	88.976	103.37	45.121	5.8265e-06	37.293	305.557	83.704	299.805	48.651	156.275	154.690	47.568	53.905	159.903	157.469	51.221	55.982	58.577	62.289	218.078	57.684	-8191	255	
1048.772	1	1	0	0	0.089627	0.18925	0.24924	0.30872	0.051609	0.21427	0.089876	0.14623	0.35172	0.074241	0.12486	0.14051	0.31351	0.35904	0.23882	0.054915	1.0125	0.020833	0.61458	0.38542	-0.125	0.75	0.1625	0.13333	0.83333	-0.125	0.41458	0.63125	-0.19792	0.37083	0.32083	0.027083	123.859	174.349	339.745	381.074	184.849	57.454	280.827	364.848	185.244	156.102	88.579	327.633	362.096	115.816	257.450	298.698	0.00057087	0.00017656	4.531e-05	708.47	3.0806e-06	4.7422e-06	598.95	267.41	2.2806e-06	6.8971e-06	231.54	86.818	102.86	45.157	1.426e-05	36.483	0.00052884	0.00053561	0.00014854	716.68	5.7987e-06	5.8775e-06	608.37	268.03	5.8802e-06	5.8459e-06	239.21	89.189	103.03	45.079	5.8463e-06	37.337	298.328	55.538	105.726	48.668	234.539	156.323	47.412	53.930	73.394	163.440	50.836	56.549	58.706	62.366	193.251	58.015	-8191	255	
1048.868	1	1	0	0	0.032294	0.31752	0.11079	0.16375	0.24138	0.18875	0.068629	0.19408	0.2203	0.37665	0.17566	0.050105	0.19319	0.079152	0.16731	0.063661	1.1313	0.072917	0.40625	0.7	-0.08125	0.72083	0.44375	-0.15208	0.73125	-0.091667	0.27083	0.76458	-0.12708	0.40833	0.30208	-0.21042	247.905	306.749	63.375	133.186	120.970	147.007	292.516	312.977	57.966	176.852	68.181	177.582	322.873	157.766	289.555	112.962	0.00067085	0.00055291	0.00010841	708.19	4.673e-06	7.5521e-06	599.3	266.31	1.2629e-05	2.053e-06	231.01	88.09	103.59	45.512	1.0607e-05	36.802	0.00053133	0.00053436	0.0001485	719.33	5.8375e-06	5.8625e-06	609.44	268.14	5.8704e-06	5.8532e-06	239.91	89.681	103.52	45.355	5.8553e-06	37.639	283.246	85.017	284.340	48.356	92.092	248.554	47.595	54.260	142.836	293.593	50.503	55.532	58.165	62.087	316.578	57.862	-8191	255	
1048.940	1	1	0	0	0.052077	0.043691	0.17541	0.13604	0.14129	0.23251	0.12225	0.017593	0.068883	0.27939	0.15155	0.15737	0.23389	0.11519	0.14008	0.36375	1.0083	0.25625	0.12708	0.61458	0.052083	0.61042	0.51875	-0.11667	0.66042	-0.17083	0	0.78542	-0.28125	0.33333	0.56042	-0.18333	50.698	313.175	165.636	266.865	238.572	394.735	316.368	96.173	189.714	386.620	61.867	375.537	166.119	191.644	196.971	46.233	0.00058755	0.00021986	0.00026453	708.88	6.1489e-06	5.6704e-06	600.33	268.24	1.0434e-05	8.0889e-06	233.05	86.932	103.63	45.335	6.7453e-06	36.718	0.00053349	0.00053442	0.00014863	718.69	5.8828e-06	5.8901e-06	610.37	268.71	5.8937e-06	5.8687e-06	240.33	89.261	103.49	45.259	5.8589e-06	37.438	295.346	188.713	82.601	48.350	341.013	240.095	46.915	53.305	313.386	193.855	50.720	55.285	58.207	61.752	94.796	57.815	-8191	255	
1049.060	1	1	0	0	0.10408	0.12162	0.29702	0.23756	0.19982	0.080517	0.3413	0.16388	0.024071	0.084825	0.21135	0.18951	0.21362	0.32397	0.20693	0.23377	0.97917	0.3375	0.05	0.52917	0.027083	0.37083	0.34375	-0.4625	0.58542	0.41458	-0.12917	0.71458	0.14375	0.064583	0.40833	-0.175	332.618	329.597	273.800	345.276	226.670	139.071	311.704	102.498	39.097	281.315	284.547	336.810	378.299	276.788	225.801	309.706	0.00072334	0.00043572	0.00024684	708.24	8.1117e-06	8.1598e-06	595.5	267.15	1.096e-05	2.0052e-06	232.39	86.568	103	45.292	4.3914e-06	36.367	0.00053341	0.00053572	0.0001502	718.27	5.8253e-06	5.8721e-06	607.19	268.3	5.8722e-06	5.9024e-06	239.12	88.974	103.35	45.143	5.8168e-06	37.279	285.801	118.468	182.962	48.472	228.178	181.359	47.664	54.002	190.029	371.181	50.531	55.987	58.210	62.122	209.491	57.844	-8191	255	
1049.156	1	1	0	0	0.22601	0.16127	0.049197	0.087117	0.13722	0.094252	0.25115	0.03773	0.15455	0.22167	0.14643	0.095051	0.10269	0.18417	0.089954	0.135	0.96667	0.25625	0.3	0.53125	0.0375	0.2375	0.79792	-0.079167	0.57292	0.575	-0.045833	0.6625	0.15	0.20417	0.72708	-0.0875	109.548	284.735	115.641	223.092	382.469	117.134	313.222	362.390	249.256	182.086	359.805	240.866	53.446	368.090	127.664	71.678	0.00054256	0.00024232	0.00026592	702.09	4.8228e-06	7.5774e-06	596.89	268.74	5.8753e-06	5.0277e-06	232.57	87.41	103.13	45.322	1.4157e-05	36.685	0.00053595	0.0005378	0.00014958	714.37	5.8729e-06	5.8722e-06	605.71	268.29	5.8753e-06	5.8641e-06	239.46	89.13	103.46	45.197	5.9216e-06	37.425	296.995	216.103	72.216	48.775	203.889	368.019	47.088	54.045	216.395	196.962	50.649	56.060	58.267	62.483	186.529	58.054	-8191	255	
1049.253	1	1	0	0	0.074606	0.30241	0.054948	0.35749	0.14452	0.26475	0.26311	0.17336	0.20075	0.17239	0.32887	0.10422	0.11982	0.21612	0.04732	0.051823	0.83542	0.68333	-0.14792	0.62292	0.35208	0.17292	0.75	-0.18542	0.38542	0.425	-0.33333	0.63125	0.23542	-0.09375	0.82083	-0.085417	170.552	271.466	367.613	346.641	110.881	199.291	307.638	379.565	334.109	314.649	83.443	114.547	318.527	381.865	57.845	341.417	0.00051252	0.0010382	0.00018399	705.12	7.9417e-06	2.2354e-06	597.57	267.84	5.6126e-06	4.3063e-06	232.45	86.701	103.08	45.457	1.4046e-05	37.064	0.00053456	0.00053482	0.00014863	714.47	5.8603e-06	5.8729e-06	607.19	268.71	5.8961e-06	5.9112e-06	238.65	89.636	103.48	45.344	5.8566e-06	37.61	296.183	165.533	135.680	48.051	169.741	111.137	46.961	53.733	278.535	232.367	50.963	55.990	58.296	62.043	192.044	58.036	-8191	255	
1049.349	1	1	0	0	0.19442	0.15607	0.27599	0.05455	0.058536	0.082506	0.089873	0.2435	0.055933	0.10145	0.25	0.10533	0.33207	0.24188	0.1984	0.21668	0.56042	0.8125	-0.03125	0.50833	0.37917	0.022917	0.7	-0.21667	0.29167	0.85208	-0.24375	0.73333	0.325	-0.12292	0.84375	0.09375	367.732	237.769	344.131	48.571	322.890	47.304	57.752	321.719	365.846	209.801	391.122	372.511	386.927	316.366	213.317	48.965	0.00051139	0.00027969	0.0001666	703.99	5.046e-06	6.822e-06	593.51	268.52	5.0531e-06	7.6175e-06	231.17	87.24	103.07	45.475	4.4259e-06	36.726	0.00053796	0.00053945	0.00014905	715.07	5.8418e-06	5.8442e-06	606.95	268.44	5.8859e-06	5.8699e-06	239.17	89.469	103.42	45.23	5.8489e-06	37.429	289.082	173.818	110.325	48.447	220.056	180.712	47.010	53.697	128.109	160.793	50.638	55.567	58.443	61.955	235.519	57.703	-8191	255	
1049.468	1	1	0	0	0.21816	0.057271	0.30021	0.31953	0.2455	0.10541	0.24134	0.1842	0.25413	0.21856	0.31311	0.30463	0.10644	0.18606	0.10991	0.18839	0.58542	0.82708	-0.23542	0.34792	0.43333	-0.0875	0.5875	0.10208	0.21875	0.76667	-0.08125	0.19583	0.67917	-0.091667	0.78958	0.40833	308.452	292.223	217.309	371.375	71.535	84.313	123.513	43.625	388.327	59.734	303.672	298.852	272.783	321.137	69.223	47.383	0.00056609	0.00029546	0.00024084	703.24	7.3422e-06	4.7879e-07	595.81	266	1.0541e-05	3.0062e-06	231.38	86.352	102.48	45.26	4.9707e-06	36.504	0.00053547	0.00053755	0.00014925	713.93	5.8542e-06	5.8733e-06	605.15	267.4	5.856e-06	5.8212e-06	238.3	88.758	102.98	45.024	5.8548e-06	37.185	316.984	110.423	82.320	48.201	242.294	241.991	47.313	53.341	170.219	259.036	50.677	55.538	58.330	61.653	217.516	57.603	-8191	255	
1049.564	1	1	0	0	0.2167	0.13267	0.12568	0.087633	0.17604	0.21394	0.15096	0.19711	0.13486	0.30179	0.26354	0.14577	0.22036	0.25212	0.16361	0.37572	0.41667	0.81875	0.020833	0.46458	0.69167	-0.25417	0.7625	0.15	-0.033333	0.74792	-0.12292	0.28125	0.56875	-0.16458	0.86667	0.43542	56.066	336.769	370.995	46.976	230.375	395.488	342.841	119.238	355.396	305.969	293.960	150.082	202.507	363.984	254.908	306.202	0.00050651	0.00057713	0.00013701	704.46	2.0732e-06	1.6738e-06	592.71	264.45	1.1397e-05	4.151e-06	230.66	86.308	102.76	45.157	1.0241e-05	36.653	0.0005299	0.00053394	0.00014877	712.17	5.8401e-06	5.8798e-06	603.34	266.28	5.8528e-06	5.8599e-06	238.09	88.703	102.91	45.061	5.8084e-06	37.254	288.890	114.502	103.562	48.402	209.257	384.218	47.085	53.621	122.938	273.333	50.961	55.725	58.542	61.750	204.982	57.865	-8191	255	
1049.635	1	1	0	0	0.26715	0.12379	0.20658	0.10868	0.15741	0.19798	0.2233	0.14343	0.079555	0.18572	0.32036	0.22933	0.21477	0.33018	0.16833	0.26529	0.45833	0.85625	-0.079167	0.23333	0.73542	-0.10417	0.54792	0.40833	-0.041667	0.92292	0.21667	0.1375	0.76875	-0.11042	0.66667	0.42917	163.350	266.510	120.975	53.817	103.627	73.466	355.879	297.872	303.754	191.378	394.050	226.553	169.761	367.707	313.567	59.272	0.0007331	4.5678e-05	0.00011229	702.23	5.2274e-06	4.646e-06	592.57	265.25	5.1851e-06	5.9823e-06	230.35	86.719	102.24	45.255	2.7168e-06	36.428	0.00052712	0.00053213	0.00014745	712.88	5.7813e-06	5.8297e-06	605.66	266.66	5.8213e-06	5.7949e-06	238.54	89.055	102.78	45.01	5.8005e-06	37.35	279.392	262.479	177.528	48.108	42.230	313.355	47.155	53.590	104.935	236.196	51.016	55.465	58.241	62.184	245.080	57.627	-8191	255	
1049.733	1	1	0	0	0.070729	0.23895	0.15278	0.18399	0.085854	0.11703	0.23903	0.12075	0.23295	0.054637	0.21319	0.20579	0.16734	0.22695	0.19881	0.13271	0.34792	0.71667	0.26667	0.17292	0.73958	0.18542	0.51458	0.33125	-0.16458	0.625	0.25417	-0.21667	0.75	-0.020833	0.45625	0.70417	54.219	276.439	130.159	355.959	188.839	206.113	352.944	271.996	42.277	218.965	307.238	117.287	77.945	394.352	79.455	39.877	0.00045985	0.00064171	0.00023476	708.83	4.1261e-06	4.5393e-06	603.44	267.78	1.717e-06	4.6265e-06	231.8	87.242	102.94	45.444	1.3502e-05	36.471	0.00053111	0.00053174	0.00014731	716.97	5.7997e-06	5.7687e-06	611.79	267.89	5.8308e-06	5.8335e-06	239.52	89.38	103.12	45.065	5.8317e-06	37.271	286.835	109.916	162.935	48.292	95.176	237.364	46.421	53.178	106.598	85.076	50.212	54.991	57.953	61.624	198.755	57.578	-8191	255	
1049.852	1	1	0	0	0.11738	0.33626	0.23429	0.18448	0.13127	0.20508	0.15393	0.16701	0.14901	0.078846	0.074972	0.052842	0.092381	0.22395	0.18103	0.17498	0.3125	0.7125	0.24792	-0.025	1.0562	0.13542	0.38542	0.6875	-0.0875	0.65625	0.47083	0.052083	0.66875	-0.21667	0.19583	0.70208	100.149	74.665	245.786	324.779	155.216	187.369	172.571	389.128	58.549	101.243	301.630	143.832	86.039	329.976	246.168	388.624	0.00039391	0.00039506	2.6744e-05	705.77	1.3325e-06	5.8375e-06	600.86	266.79	4.5361e-06	9.1703e-06	230.67	86.728	102.19	45.062	1.3395e-05	36.385	0.00052865	0.00053296	0.00014709	717.14	5.8295e-06	5.8029e-06	610.85	267.43	5.7873e-06	5.8018e-06	239.08	88.826	102.59	44.857	5.8233e-06	37.169	296.645	66.321	315.454	47.877	156.840	207.113	46.930	53.558	200.598	319.308	50.719	55.267	58.138	61.736	160.423	57.997	-8191	255	
1049.948	1	1	0	0	0.084949	0.25503	0.073619	0.081158	0.060641	0.011645	0.30893	0.22349	0.086178	0.034317	0.24041	0.26533	0.081481	0.084948	0.17429	0.23383	0.23542	0.58542	0.49375	-0.10417	0.64167	0.23958	0.1625	0.64375	0.039583	0.52083	0.6375	-0.085417	0.61875	0.13125	0.12083	0.89583	65.933	115.140	178.920	37.183	54.273	244.022	377.895	376.416	370.031	113.058	330.758	323.454	57.241	113.182	132.885	318.887	0.00062582	0.00039013	0.00021779	707.08	4.3731e-06	1.6456e-06	600.24	266.34	4.5648e-06	3.9555e-06	232.07	86.887	102.27	45.071	7.8073e-06	36.321	0.0005293	0.00053697	0.00014865	716.06	5.8027e-06	5.8095e-06	608.58	267.15	5.787e-06	5.8258e-06	238.91	88.85	102.59	44.904	5.8014e-06	37.153	307.178	90.383	145.480	48.130	136.270	303.285	47.002	53.589	146.835	126.246	50.793	55.241	58.176	61.808	88.609	57.575	-8191	255	
1050.044	1	1	0	0	0.24623	0.11959	0.32505	0.22976	0.26203	0.090238	0.17501	0.11081	0.080519	0.22854	0.2023	0.17622	0.099737	0.32726	0.19626	0.31558	0.26667	0.47292	0.50208	-0.24375	0.55625	0.275	-0.12708	0.55	-0.06875	0.23333	0.54167	-0.35208	0.53542	0.3875	0.25417	0.65833	159.157	178.497	263.375	309.980	206.581	161.540	393.328	268.315	136.068	133.948	362.990	85.731	74.068	349.264	393.735	269.523	0.00043389	0.00032133	0.00015108	706.28	8.6951e-06	2.8357e-06	598.16	267.13	5.308e-06	4.664e-06	231.57	87.557	102.94	45.401	6.4881e-06	36.717	0.00052651	0.00053021	0.00014833	715.82	5.7722e-06	5.8229e-06	607.04	267.46	5.881e-06	5.7928e-06	238.81	89.07	103	45.137	5.8366e-06	37.381	290.534	136.316	191.570	47.944	113.055	168.417	47.031	53.405	161.693	140.346	50.573	55.545	58.293	62.241	302.110	57.805	-8191	255	
1050.165	1	1	0	0	0.10327	0.21245	0.056814	0.15667	0.33771	0.16986	0.15657	0.20198	0.049506	0.25893	0.22502	0.21165	0.091951	0.14501	0.38505	0.065215	0.46458	0.42083	0.63125	-0.17917	0.50208	0.36667	0.091667	0.71667	0.2	0.20625	0.68958	-0.22708	0.32708	0.51458	-0.17083	0.76042	106.185	261.869	220.375	37.099	40.444	60.720	69.211	297.541	54.644	64.434	50.971	69.965	372.213	36.700	378.423	156.794	0.00076452	0.00026712	7.2284e-05	707.77	8.4364e-06	2.1257e-06	599.01	267.11	3.3668e-06	4.1384e-06	233.13	87.129	102.72	45.376	5.812e-06	36.54	0.00052981	0.00053094	0.0001494	715.93	5.8607e-06	5.9076e-06	609.15	267.84	5.8599e-06	5.8308e-06	239.99	89.363	103.03	45.044	5.871e-06	37.336	306.161	303.762	178.754	48.605	171.074	330.558	47.077	53.591	90.090	228.742	50.950	55.481	58.097	62.265	235.514	57.749	-8191	255	
1050.237	1	1	0	0	0.2404	0.076015	0.15473	0.054235	0.11059	0.17467	0.12846	0.14147	0.29718	0.21347	0.13695	0.20261	0.030545	0.23722	0.095841	0.1168	0.53333	0.1875	0.78958	0.05	0.33125	0.56042	-0.44375	0.80417	0.26875	0.19375	0.64167	-0.20833	0.29792	0.69167	-0.22917	0.725	236.964	318.640	228.293	97.840	304.143	337.930	53.898	376.619	321.955	367.173	351.408	65.777	39.708	37.652	107.887	212.918	0.00062381	0.00037252	3.4028e-05	705.31	2.2461e-06	6.9146e-06	596.13	264.03	1.0579e-05	5.5045e-06	229.51	86.378	102.24	44.977	4.6528e-06	36.228	0.00053343	0.00053452	0.00014823	715.06	5.8126e-06	5.8926e-06	606.02	266.27	5.799e-06	5.8614e-06	238.42	88.64	102.4	44.745	5.8211e-06	37.048	303.194	387.997	46.177	48.249	96.535	167.784	46.850	53.392	143.308	219.227	51.119	55.987	58.113	61.962	177.971	57.255	-8191	255	
1050.333	1	1	0	0	0.071004	0.075408	0.23853	0.18757	0.34426	0.28143	0.079803	0.16504	0.3564	0.24081	0.2115	0.1881	0.14552	0.032118	0.13746	0.29695	0.63333	0.052083	0.63958	-0.09375	0.18125	0.68542	-0.24375	0.63125	0.26042	-0.22083	0.68125	0.17083	0.03125	0.54792	-0.052083	0.64375	92.556	188.998	389.917	359.713	360.094	387.454	62.380	360.500	380.940	266.724	352.525	371.842	203.816	217.908	194.681	352.952	0.00070469	0.00017088	0.00016436	704.06	4.5338e-06	2.8652e-06	595.75	264.71	5.5034e-06	5.9195e-06	229.72	86.391	101.77	45.084	2.0105e-06	36.383	0.00053227	0.00053155	0.00014807	713.81	5.8019e-06	5.8475e-06	604.66	266.47	5.8446e-06	5.7957e-06	237.23	88.51	102.24	44.785	5.8058e-06	37.068	297.765	85.966	292.039	47.850	221.311	286.229	46.708	53.444	293.874	37.430	50.701	55.909	58.145	61.726	227.492	57.108	-8191	255	
1050.454	1	1	0	0	0.10585	0.29758	0.10533	0.34197	0.012266	0.35962	0.42816	0.12299	0.12246	0.30714	0.138	0.10662	0.16596	0.32885	0.26853	0.28471	0.83333	0.0875	0.62708	0.058333	0.1	0.71875	-0.20833	0.34583	0.45	-0.30625	0.67708	0.1375	0.15208	0.5	-0.1875	0.4	61.025	123.205	325.044	382.681	98.113	271.988	104.370	240.208	247.618	195.693	41.425	272.419	311.902	336.124	182.216	366.512	0.00071533	5.7587e-05	4.5845e-05	702.14	4.0604e-06	6.1569e-06	594.18	264.28	2.7545e-06	8.8621e-06	231.51	86.588	102.39	45.101	5.2553e-06	36.209	0.00053156	0.00052987	0.00014818	712.38	5.8141e-06	5.8255e-06	604.51	265.8	5.8048e-06	5.84e-06	238.45	88.765	102.52	44.867	5.7999e-06	37.117	309.802	147.796	44.034	48.201	133.277	165.903	46.587	53.602	384.047	191.203	50.506	55.568	58.110	62.207	171.025	57.810	-8191	255	
1050.548	1	1	0	0	0.24082	0.05982	0.059053	0.35133	0.074436	0.10071	0.44368	0.26379	0.039856	0.15626	0.19726	0.13088	0.15575	0.32972	0.14002	0.21413	1.1896	-0.19375	0.85208	0.31667	0.08125	0.72917	-0.15	0.09375	0.64583	-0.32292	0.52292	0.44167	-0.13958	0.76667	0.24375	0.17292	193.091	303.173	254.958	41.475	388.036	174.791	311.779	358.474	250.197	289.421	394.407	308.131	66.455	40.204	114.492	364.220	0.00034667	0.00017899	0.00031581	701.04	7.3375e-06	4.6424e-06	595.95	266.14	4.4396e-06	2.3393e-06	231.09	87.294	101.95	44.856	2.1301e-06	36.596	0.00053295	0.00052982	0.00014798	712.47	5.8281e-06	5.8341e-06	607.59	266.11	5.8378e-06	5.8408e-06	238.91	89.242	102.37	44.758	5.8309e-06	37.284	308.450	187.113	91.231	48.681	184.555	227.125	47.158	53.374	72.632	362.900	50.779	55.648	58.579	62.440	155.591	57.855	-8191	255	
1050.644	1	1	0	0	0.11953	0.12685	0.17464	0.22883	0.20735	0.085243	0.30706	0.24077	0.15816	0.2167	0.23841	0.23843	0.26615	0.15305	0.19791	0.32256	0.99792	-0.15417	0.5375	0.49167	0.0625	0.86667	-0.125	0.17292	0.88333	-0.15	0.48333	0.43125	-0.06875	0.77292	0.1	0.070833	210.444	36.430	81.803	357.538	157.373	189.191	334.307	63.054	143.612	155.221	119.703	78.666	373.189	151.481	253.145	318.934	0.00060609	0.00057036	8.7296e-05	705.62	6.5332e-06	8.2737e-06	600.91	265.22	6.2161e-06	5.4165e-06	231.46	86.535	102.48	44.822	1.0246e-05	36.005	0.00053226	0.00053175	0.00014822	715.12	5.8178e-06	5.8547e-06	609.72	266.36	5.7898e-06	5.8106e-06	238.5	88.779	102.3	44.556	5.8153e-06	36.817	290.851	372.930	359.017	48.296	133.525	246.305	46.859	53.474	186.697	210.784	50.271	55.452	58.207	62.010	109.579	57.658	-8191	255	
1050.765	1	1	0	0	0.14622	0.33858	0.12354	0.084986	0.062177	0.082399	0.20705	0.063954	0.23968	0.21727	0.2345	0.19763	0.46553	0.34678	0.10628	0.12626	1.0146	-0.1	0.48958	0.60833	0.03125	0.64792	0.083333	-0.027083	0.7	-0.047917	0.65208	0.65625	-0.18542	0.67083	0.15625	-0.033333	219.209	331.069	292.164	367.052	310.017	235.440	321.632	381.091	90.240	182.665	52.931	63.811	371.893	365.561	388.168	306.936	0.00054717	0.00071111	0.00013439	709.93	2.4619e-06	3.7068e-06	599.46	265.32	1.0298e-05	5.1023e-06	231.55	86.385	101.71	44.586	1.235e-05	36.035	0.00052269	0.00052586	0.00014808	716.7	5.7925e-06	5.7851e-06	608.37	265.85	5.7879e-06	5.8337e-06	238.36	88.61	102.14	44.491	5.791e-06	36.91	311.346	133.395	107.108	48.696	137.618	228.583	47.595	53.650	139.172	159.840	50.882	55.846	58.424	62.222	258.496	58.095	-8191	255	
1050.836	1	1	0	0	0.15476	0.10092	0.068353	0.1327	0.38935	0.2787	0.12915	0.17659	0.25781	0.03901	0.075464	0.32677	0.16099	0.19683	0.12668	0.22739	1.0271	-0.14375	0.39583	0.575	-0.15208	0.54167	0.38125	-0.08125	0.79792	0.1375	0.16042	0.79792	-0.16875	0.68542	0.425	-0.21875	203.418	262.934	129.631	322.634	248.911	192.361	230.308	261.289	208.729	345.554	301.593	208.019	256.792	127.175	381.754	41.884	0.00066328	0.00026368	0.0001992	705.61	2.7667e-06	6.0663e-06	600.87	263.69	3.8201e-06	5.0199e-06	231.75	86.371	101.79	44.731	9.2399e-06	36.235	0.00053018	0.00052398	0.00014702	713.93	5.7893e-06	5.7893e-06	607.76	265.48	5.7738e-06	5.7773e-06	238.15	88.605	102.13	44.525	5.7593e-06	37.115	304.013	279.211	118.130	48.819	216.779	204.870	47.401	53.944	360.388	101.050	50.831	55.506	57.733	61.808	143.234	57.655	-8191	255	
1050.933	1	1	0	0	0.16894	0.2124	0.26821	0.30921	0.058854	0.1451	0.37139	0.24183	0.14076	0.097992	0.25782	0.19523	0.1104	0.14013	0.18842	0.30748	1.3188	0.125	0.14792	0.71667	-0.09375	0.42917	0.44375	-0.10417	0.76667	0.079167	0.16667	0.7875	-0.13333	0.23333	0.58958	-0.25	322.366	289.060	318.201	360.041	54.098	71.558	351.453	288.919	326.440	120.488	136.472	205.394	52.886	317.481	140.373	311.997	0.00054096	0.00016972	0.00010079	703.22	6.6292e-06	2.9251e-06	599.19	266.12	9.0706e-06	8.3424e-06	232.15	86.632	102.07	45.065	1.1026e-05	36.726	0.00052626	0.00052766	0.00014619	713.97	5.7827e-06	5.7744e-06	609.67	266	5.8254e-06	5.7983e-06	239.72	88.977	102.4	44.69	5.7881e-06	37.255	305.153	192.868	91.843	48.172	295.062	299.290	47.148	53.655	177.843	175.960	50.698	55.679	58.468	61.987	222.222	57.217	-8191	255	
1051.029	1	1	0	0	0.20943	0.22335	0.1649	0.24846	0.29235	0.22239	0.36489	0.29964	0.27048	0.27469	0.11535	0.094289	0.085052	0.0089965	0.094723	0.10262	1.1104	0.48958	0.03125	0.74792	0.033333	0.54583	0.60625	-0.15833	0.40208	0.37292	-0.00625	0.725	0.029167	0.11667	0.79792	-0.22083	56.527	151.791	158.298	360.981	133.601	317.203	337.263	280.760	309.294	189.257	130.208	234.998	173.550	200.501	38.660	337.992	0.00080483	0.00041109	0.00029854	704.5	2.9594e-06	6.1987e-06	601.21	265.48	3.9819e-06	8.4093e-06	232.55	86.529	102.42	44.913	4.9865e-06	36.157	0.00052693	0.00052975	0.00014591	715.05	5.7923e-06	5.768e-06	608.8	266.31	5.8133e-06	5.8344e-06	239.17	88.83	102.53	44.618	5.8302e-06	36.955	292.394	91.419	321.658	48.476	253.484	251.517	47.288	53.811	150.494	162.099	51.155	55.555	58.639	62.106	242.297	57.980	-8191	255	
1051.125	1	1	0	0	0.034059	0.035589	0.21589	0.12147	0.14618	0.1799	0.16785	0.066863	0.20146	0.11683	0.14055	0.092611	0.18553	0.19547	0.22611	0.32558	1.1479	0.37708	-0.0020833	0.54375	0.072917	0.21458	0.50625	0.0625	0.79583	0.525	-0.04375	0.67083	0.21667	0.21875	0.78125	-0.14375	236.345	346.239	305.979	275.833	77.969	202.798	49.556	73.737	316.865	259.022	124.995	266.868	304.829	95.417	286.963	323.819	0.00057398	0.00056058	0.00012042	704.19	2.1339e-06	8.7431e-06	597.21	265.09	4.4604e-06	3.255e-06	230.58	86.022	102.4	44.677	8.4808e-06	36.272	0.00053075	0.00053066	0.00014696	714.03	5.7923e-06	5.7878e-06	605.65	265.79	5.7796e-06	5.8031e-06	237.41	88.112	102.3	44.4	5.8126e-06	36.92	298.498	125.340	159.507	48.591	357.943	220.769	47.390	53.950	171.737	89.340	50.913	55.666	58.329	62.007	156.190	57.735	-8191	255	
1051.245	1	1	0	0	0.16457	0.30979	0.28512	0.19173	0.27578	0.19888	0.012585	0.2272	0.20157	0.20788	0.26969	0.16851	0.34311	0.32042	0.21056	0.074252	0.82917	0.47083	0.00625	0.75417	0.083333	0.052083	0.78125	-0.12292	0.58125	0.475	-0.13542	0.63958	0.24792	-0.2125	0.84167	-0.0083333	243.290	258.280	278.072	391.058	352.166	289.862	126.919	353.481	188.360	223.816	276.899	387.761	336.298	376.497	320.069	247.003	0.00053212	0.00021658	5.7783e-05	702.54	6.4147e-06	4.9588e-06	593.63	265.42	8.5342e-06	7.6537e-06	230.31	86.38	102.27	44.275	6.7593e-06	36.268	0.00053003	0.00053141	0.00014799	712.04	5.7898e-06	5.7952e-06	602.78	265.71	5.7849e-06	5.8373e-06	237.76	88.38	102.08	44.449	5.8024e-06	37.01	302.675	109.855	344.552	48.176	141.080	171.432	47.507	53.672	135.051	152.146	50.436	55.264	58.061	62.046	203.777	57.587	-8191	255	
1051.342	1	1	0	0	0.24414	0.13624	0.12872	0.22077	0.16515	0.15833	0.21174	0.25101	0.098825	0.086671	0.1391	0.26607	0.14195	0.14334	0.29943	0.070722	0.80417	0.62917	-0.014583	0.55	0.225	-0.16042	0.72708	-0.17292	0.26458	0.83125	-0.125	0.35	0.35625	-0.058333	0.5875	-0.014583	361.553	114.218	54.991	361.603	318.620	110.262	201.435	384.875	119.018	128.426	220.059	341.830	45.513	138.971	379.425	381.846	0.00085818	0.00039648	5.8959e-05	702.15	5.5302e-06	3.8191e-06	598.99	265.65	9.4733e-06	2.5953e-06	230.05	86.056	102	44.722	2.1363e-06	36.401	0.00052595	0.00053365	0.00014711	710.61	5.7662e-06	5.8311e-06	605.88	265.72	5.7906e-06	5.7774e-06	238.6	88.393	102.19	44.671	5.7808e-06	37.197	299.405	151.406	143.657	48.564	212.658	200.599	47.219	53.736	149.939	120.605	50.618	55.629	58.534	62.246	172.644	58.197	-8191	255	
1051.436	1	1	0	0	0.087353	0.060791	0.021478	0.11409	0.24465	0.21524	0.078524	0.24735	0.23196	0.35813	0.29404	0.14981	0.075743	0.18634	0.17753	0.2767	0.61042	0.85833	-0.16458	0.32917	0.44375	-0.027083	0.4625	0.097917	-0.1375	0.85625	-0.033333	0.36458	0.60208	-0.10208	0.60208	0.30833	102.386	44.347	265.929	305.080	314.830	74.686	65.341	153.100	63.073	203.438	274.067	115.206	134.873	85.194	347.452	306.226	0.00054148	0.00025577	0.00015521	704.78	6.6907e-06	2.9374e-06	597.52	263.9	4.2818e-06	2.6684e-06	231.65	85.817	101.85	44.442	5.2761e-06	36.087	0.00053296	0.00052861	0.00014854	711.51	5.7941e-06	5.7916e-06	605.58	265.67	5.8029e-06	5.7879e-06	238.46	88.464	101.99	44.44	5.8171e-06	36.932	295.961	314.931	227.079	48.389	162.082	136.391	47.183	53.795	189.772	336.336	50.991	55.955	58.507	62.169	164.028	58.114	-8191	255	
1051.534	1	1	0	0	0.11686	0.19209	0.15936	0.21062	0.085503	0.075992	0.17727	0.063301	0.26358	0.33252	0.12359	0.13182	0.18108	0.30415	0.11434	0.2594	0.58958	0.71875	0.022917	0.32083	0.5375	-0.23333	0.38333	0.18542	-0.0083333	0.61042	0.052083	0.097917	0.50417	-0.25833	0.69792	0.41458	356.244	85.232	316.412	70.422	258.242	320.561	344.539	367.048	95.273	332.638	392.064	98.177	373.213	320.286	98.465	378.782	0.00065911	0.00027251	2.4926e-05	703.82	7.5103e-06	3.9639e-06	591.43	264.29	8.0322e-06	9.7388e-06	229.4	86.053	101.35	44.329	5.882e-06	36.08	0.00052601	0.00052998	0.00014599	711.65	5.7794e-06	5.8338e-06	603.98	264.85	5.7796e-06	5.8222e-06	236.68	87.921	101.66	44.188	5.7627e-06	36.76	309.469	152.856	157.663	48.441	115.092	208.725	46.487	53.645	229.686	188.095	50.486	55.377	58.227	62.055	316.438	57.380	-8191	255	
1051.628	1	1	0	0	0.13651	0.12667	0.25805	0.19924	0.18168	0.14161	0.1794	0.15395	0.1619	0.11444	0.10046	0.083689	0.14794	0.21121	0.24433	0.099769	0.08125	0.60625	-0.11042	0.20417	0.775	0.091667	0.48333	0.53542	-0.11875	0.69792	-0.03125	0.10208	0.625	-0.12708	0.25417	0.50208	320.948	116.854	159.310	269.720	344.817	364.998	313.878	289.742	94.760	312.306	387.150	103.818	72.890	381.313	182.870	323.624	0.00055676	0.00062793	0.00017901	701.93	4.6906e-06	1.9063e-06	591.48	264.5	3.3539e-06	7.023e-06	230.71	85.713	101.14	44.301	6.3604e-06	35.962	0.00052345	0.0005278	0.00014635	709.92	5.7512e-06	5.7667e-06	602.64	264.4	5.8003e-06	5.7743e-06	237.25	88.189	101.51	44.24	5.7234e-06	36.848	323.217	202.101	74.696	48.521	188.053	387.654	47.197	53.806	46.818	72.118	51.019	56.328	58.303	62.282	388.105	58.117	-8191	255	
1051.726	1	1	0	0	0.10129	0.24595	0.14413	0.14319	0.042516	0.28618	0.24726	0.091544	0.22914	0.21207	0.15312	0.059494	0.24439	0.14032	0.354	0.39131	0.30208	0.70625	0.18333	0.077083	0.77708	-0.077083	0.1625	0.55417	-0.025	0.53958	0.35625	0.12708	0.61875	-0.033333	0.32917	0.46042	135.814	241.154	317.577	274.195	274.209	364.453	380.653	212.071	367.443	367.350	51.963	337.809	80.803	228.558	82.578	281.105	0.00054586	0.00024697	0.00012388	698.94	2.4128e-06	7.8175e-06	591.68	264.12	8.785e-06	9.7736e-06	230.89	86.3	101.03	44.502	9.0563e-06	36.289	0.00052114	0.00052407	0.00014631	710.29	5.6988e-06	5.721e-06	605.28	264.78	5.7522e-06	5.7438e-06	237.96	88.577	101.66	44.312	5.7771e-06	37.012	297.445	81.149	142.340	48.431	199.695	390.754	47.405	54.098	163.025	183.057	51.154	56.041	58.654	62.532	210.451	58.470	-8191	255	
1051.845	1	1	0	0	0.099432	0.12069	0.051366	0.26074	0.15587	0.15344	0.33196	0.22972	0.15856	0.35113	0.12451	0.030459	0.27655	0.24537	0.19508	0.15178	0.14583	0.49375	0.46458	0.0375	0.69167	-0.058333	0.091667	0.6375	-0.11667	0.45208	0.50208	0.041667	0.65	0.06875	0.2125	0.54583	111.925	58.049	246.064	327.240	218.784	111.129	373.093	377.323	282.995	332.103	359.411	91.099	379.496	352.080	285.699	198.833	0.00069359	0.00017825	0.00015587	699.81	3.5843e-06	4.8675e-06	597.73	264.78	6.9047e-06	1.002e-05	231.87	86.752	101.57	44.416	7.2641e-06	36.135	0.00052449	0.00052457	0.00014709	713.38	5.7466e-06	5.7719e-06	609.75	265.79	5.7724e-06	5.7616e-06	238.96	88.585	101.82	44.299	5.7345e-06	36.892	298.934	65.582	125.712	48.728	137.780	199.554	47.444	54.036	167.358	116.715	51.011	56.214	58.197	62.271	134.008	57.977	-8191	255	
1051.941	1	1	0	0	0.27876	0.289	0.13879	0.29154	0.2556	0.24326	0.17503	0.11634	0.20563	0.054686	0.27345	0.097418	0.24563	0.13738	0.025552	0.31824	0.36875	0.475	0.45625	-0.0125	0.62708	0.15208	-0.0041667	0.67083	-0.13125	0.39792	0.30625	-0.28125	0.4	0.16458	0.1375	0.70417	364.437	280.724	392.046	294.845	328.585	254.400	84.020	68.437	352.929	153.429	315.255	60.462	81.775	346.934	381.280	292.763	0.00052222	0.00035694	0.00027065	706.79	4.2871e-06	3.288e-06	596.94	265.57	3.2026e-06	5.6881e-06	230.28	85.336	101.09	44.419	8.5337e-06	36.001	0.00052772	0.0005279	0.00014699	713.8	5.7479e-06	5.7869e-06	607.61	265.34	5.7801e-06	5.7648e-06	238.08	88.162	101.57	44.183	5.7376e-06	36.858	290.244	79.146	175.911	48.352	179.311	206.016	47.189	53.940	362.293	188.620	50.567	55.698	58.358	62.482	185.951	58.163	-8191	255	
1052.037	1	1	0	0	0.35969	0.25411	0.39094	0.1641	0.076681	0.079949	0.24561	0.12912	0.30541	0.086059	0.091576	0.07923	0.33923	0.19809	0.14997	0.2856	0.225	0.35417	0.54375	-0.23125	0.65	0.35208	-0.14375	0.86667	0.18125	0.34792	0.55	-0.14792	0.39583	0.18542	-0.04375	0.64167	68.915	172.264	166.355	102.793	102.248	385.747	348.946	242.099	171.295	253.556	356.007	391.349	356.866	59.004	135.687	346.687	0.00042425	0.00070475	5.2744e-05	699.68	4.7616e-06	1.6146e-06	591.57	263.69	5.3621e-06	9.4052e-06	229.75	86.124	101.21	44.352	3.3445e-06	36.087	0.00052598	0.00052818	0.00014799	712.19	5.7754e-06	5.8347e-06	604.88	264.79	5.8238e-06	5.773e-06	237.68	88.331	101.83	44.348	5.7833e-06	36.872	299.869	128.236	90.060	48.858	147.810	212.223	47.357	54.309	159.965	166.728	51.216	56.144	58.631	62.725	90.987	58.043	-8191	255	
1052.134	1	1	0	0	0.17935	0.21281	0.17072	0.23555	0.20999	0.20311	0.146	0.020576	0.070437	0.28608	0.1253	0.40941	0.12284	0.19006	0.1225	0.11934	0.3	0.425	0.91875	-0.079167	0.63542	0.30833	-0.12917	0.31875	0.08125	0.12917	0.36667	-0.11458	0.53958	0.39583	-0.03125	0.50833	143.191	270.589	351.675	369.656	129.079	120.689	184.830	43.768	125.654	76.412	344.325	36.524	322.599	380.950	50.377	58.295	0.00066558	0.00035126	0.00013869	695.87	4.6884e-06	8.136e-06	593.25	263.39	3.6226e-06	1.3599e-05	228.83	86.771	101.29	44.422	6.1557e-06	36.297	0.00052944	0.00052881	0.00014764	710.24	5.8162e-06	5.8424e-06	604.79	265.02	5.781e-06	5.815e-06	237.63	88.77	101.76	44.358	5.8003e-06	37.119	297.658	138.664	176.743	48.775	330.071	223.829	47.477	54.073	385.199	173.874	50.786	55.966	58.700	62.470	207.360	58.194	-8191	255	
1052.230	1	1	0	0	0.13527	0.24196	0.094548	0.064296	0.11306	0.17474	0.1505	0.20434	0.17804	0.2414	0.25638	0.12835	0.27416	0.068069	0.091401	0.10305	0.56667	0.10208	0.80417	-0.025	0.4875	0.65417	-0.11042	0.50208	0.29375	0.020833	0.775	0.09375	0.21042	0.48125	-0.28958	0.50417	200.450	122.766	89.759	307.790	96.790	341.789	377.647	391.235	303.303	378.169	83.901	285.410	365.159	137.244	56.422	371.976	0.00071344	0.00063313	8.3328e-05	699.2	5.901e-06	2.9205e-06	594.54	264.87	1.6943e-06	4.4477e-06	231.56	86.205	101.27	44.406	8.3404e-06	36.05	0.00052887	0.00052795	0.00014781	711.35	5.8141e-06	5.8533e-06	606.73	265.15	5.8567e-06	5.8488e-06	238.39	88.653	101.91	44.362	5.8286e-06	36.955	306.149	137.487	121.278	48.521	296.295	182.458	47.383	53.879	82.905	191.205	50.806	55.988	58.403	62.349	139.502	58.365	-8191	255	
1052.326	1	1	0	0	0.0094314	0.25966	0.037198	0.11286	0.060084	0.089002	0.042782	0.19917	0.12717	0.076632	0.1543	0.21938	0.16233	0.23709	0.28544	0.075171	0.62292	-0.016667	0.70208	-0.17917	0.14167	0.66875	-0.33125	0.5	0.48958	-0.089583	0.59583	-0.041667	0	0.63958	-0.072917	0.39792	208.877	336.659	126.855	170.873	66.592	238.562	288.165	347.364	144.046	312.969	168.331	378.022	254.567	392.311	384.465	125.617	0.00058086	0.00053096	0.00010879	699.4	9.519e-06	3.3661e-06	591.45	263.24	4.7566e-06	4.3745e-06	230.04	85.273	100.57	44.417	2.8199e-06	35.627	0.00052966	0.00053102	0.00014831	709.82	5.814e-06	5.8384e-06	603.29	264.76	5.8733e-06	5.8105e-06	237.15	88.15	101.44	44.161	5.8065e-06	36.572	281.073	118.264	358.547	48.977	294.749	52.631	47.679	54.007	290.310	67.143	51.561	56.215	58.681	62.224	153.298	58.173	-8191	255	
1052.446	1	1	0	0	0.12565	0.1783	0.097841	0.14736	0.025898	0.041874	0.19158	0.10331	0.15425	0.079333	0.26096	0.28664	0.13096	0.13147	0.2234	0.14871	0.90625	-0.19792	0.7375	-0.072917	0.17083	0.60417	-0.27708	0.29792	0.4625	-0.21667	0.51667	0.19792	0.027083	0.61667	-0.17083	0.16458	340.471	129.380	166.134	335.683	354.287	233.197	338.257	191.011	136.284	82.786	70.844	279.470	202.865	343.165	86.399	53.401	0.00064453	0.00040315	2.3049e-05	694.92	5.7644e-06	3.0114e-06	589.17	261.78	4.0277e-06	1.115e-05	227.28	85.335	100.67	44.054	6.8957e-06	35.83	0.00052937	0.0005332	0.00014723	706.72	5.8043e-06	5.83e-06	600.63	263.59	5.8246e-06	5.7943e-06	236.04	87.809	101.46	44.104	5.8376e-06	36.772	291.503	120.729	45.058	48.740	45.766	152.417	47.483	54.260	106.531	142.877	51.001	56.237	58.680	62.336	227.835	58.123	-8191	255	
1052.541	1	1	0	0	0.18438	0.27413	0.1144	0.11361	0.18954	0.038022	0.076604	0.12357	0.14204	0.21712	0.16728	0.21239	0.33033	0.28166	0.1477	0.30532	0.86875	-0.25417	0.77917	0.26667	-0.1375	0.71667	0.010417	0.1	0.52708	-0.17292	0.53333	0.32083	-0.21667	0.47292	0.0375	0.13125	176.315	195.002	312.674	130.725	74.703	340.119	387.001	111.375	61.170	149.307	151.772	337.364	360.339	385.860	207.325	156.991	0.00039417	0.00061507	7.8517e-05	696.57	4.5763e-06	5.5167e-06	592.94	263.56	6.4957e-06	4.7871e-06	228.11	85.503	100.86	44.275	6.5402e-06	35.848	0.00052613	0.00053288	0.00014703	709.28	5.7832e-06	5.8134e-06	604.6	264.04	5.8097e-06	5.7968e-06	237.4	88.09	101.53	44.157	5.7442e-06	36.911	274.977	52.864	80.589	48.749	240.004	231.111	47.589	53.969	329.695	110.514	50.715	56.468	59.318	62.579	148.945	58.456	-8191	255	
1052.637	1	1	0	0	0.075517	0.15844	0.17744	0.15131	0.21721	0.19561	0.28457	0.1518	0.18192	0.17182	0.094791	0.25185	0.27119	0.1146	0.078206	0.0779	1.0042	-0.2125	0.52292	0.47708	-0.15417	0.53958	0.025	0.0125	0.58542	-0.2875	0.37917	0.48542	-0.14375	0.57292	0.20417	0.10208	304.800	210.695	148.349	304.113	124.774	154.320	350.822	348.528	76.386	241.554	268.277	167.725	87.220	293.529	141.625	271.436	0.00045767	0.0011238	0.00028343	695.49	1.2196e-05	4.0898e-06	597.09	265.07	9.8418e-06	6.9857e-06	230.61	85.817	101.19	44.262	4.057e-06	36.186	0.0005293	0.00052834	0.000147	710.08	5.7506e-06	5.8265e-06	607.92	264.94	5.7958e-06	5.7762e-06	238.51	88.534	101.7	44.178	5.7694e-06	36.884	273.589	134.956	136.560	48.842	170.186	359.436	47.163	53.778	162.452	147.996	50.785	55.663	58.468	62.455	81.552	57.512	-8191	255	
1052.733	1	1	0	0	0.22393	0.16304	0.18104	0.15248	0.15785	0.15126	0.099282	0.20714	0.1977	0.062516	0.19983	0.021633	0.22837	0.26162	0.12965	0.090531	1.0521	-0.27292	0.48125	0.32708	-0.060417	0.60833	-0.0375	-0.17917	0.78333	-0.16042	0.40833	0.51875	-0.085417	0.47708	0.36042	-0.30417	233.337	51.951	157.039	140.990	214.821	215.843	369.080	329.068	316.123	131.866	297.005	249.668	58.719	390.157	339.543	363.408	0.0005249	0.00033885	0.00020329	703.43	3.5245e-06	7.2418e-06	600.05	264.29	3.7685e-07	1.0037e-05	230.52	85.731	100.9	44.369	1.0274e-05	35.788	0.00053137	0.00052357	0.00014644	713.62	5.7919e-06	5.7762e-06	608.72	264.73	5.8108e-06	5.7873e-06	237.91	88.345	101.34	44.01	5.7784e-06	36.634	312.054	234.429	223.318	48.575	268.553	215.681	47.084	53.996	205.713	187.478	50.646	56.331	58.557	62.492	249.294	57.956	-8191	255	
1052.807	1	1	0	0	0.16704	0.20153	0.089787	0.22411	0.19148	0.12842	0.16325	0.21809	0.061311	0.22165	0.17196	0.16371	0.20385	0.11191	0.077842	0.186	1.0354	0.03125	0.20833	0.52083	-0.16875	0.49583	0.15208	-0.30208	0.53958	0.05	-0.045833	0.51458	-0.20208	0.28958	0.4	-0.22083	359.720	341.830	87.471	379.987	138.259	85.535	304.957	98.747	231.563	128.307	367.781	245.845	39.168	72.364	380.585	270.424	0.00046723	0.00090327	0.00033375	702.86	3.3322e-06	1.0021e-05	597.38	263.32	7.3434e-06	2.4931e-06	230.35	85.9	101.25	44.105	1.5153e-05	35.93	0.00052521	0.00052996	0.00014701	711.96	5.7567e-06	5.7843e-06	608.36	264.87	5.8105e-06	5.7537e-06	237.34	88.195	101.39	44.024	5.782e-06	36.696	282.828	149.554	207.542	48.801	327.132	165.509	47.595	54.003	94.353	215.263	50.857	55.895	58.492	62.097	211.594	57.761	-8191	255	
1052.925	1	1	0	0	0.14876	0.26939	0.14788	0.18181	0.089581	0.14907	0.37983	0.32625	0.23194	0.16865	0.10491	0.28757	0.085175	0.114	0.20325	0.16443	1.0708	0.31875	0.275	0.66667	-0.083333	0.40417	0.50833	-0.1625	0.64583	0.13125	-0.085417	0.76458	-0.20625	0.13333	0.65417	-0.18125	252.873	214.405	379.884	58.864	182.228	41.848	344.930	361.073	373.923	65.828	250.369	289.656	295.972	82.133	115.786	339.802	0.00083559	0.00025035	6.9239e-05	700.51	5.1041e-06	9.4631e-06	593.46	262.08	1.0003e-05	3.8582e-06	229.65	86.021	100.77	44.064	1.1527e-05	36.072	0.00052765	0.00052748	0.00014736	709.86	5.8153e-06	5.7889e-06	605.31	264.33	5.7653e-06	5.7651e-06	237.58	88.438	101.51	44.054	5.785e-06	36.855	296.776	92.867	275.959	48.860	197.941	73.367	47.720	54.124	138.364	45.784	51.187	56.162	58.859	62.274	218.018	58.155	-8191	255	
1053.022	1	1	0	0	0.20713	0.084284	0.15905	0.23104	0.3913	0.18127	0.072322	0.49513	0.04434	0.235	0.31376	0.16313	0.090654	0.33696	0.30231	0.27326	0.78542	0.052083	0.0041667	0.73333	-0.039583	0.25	0.60625	-0.28125	0.725	0.225	-0.10208	0.81042	0.11042	0.24167	0.56667	-0.2	262.599	42.782	254.731	123.287	147.024	157.130	391.845	355.188	169.893	317.865	355.568	202.701	124.523	49.409	106.687	336.002	0.00052419	0.0007309	7.0893e-05	698.7	5.8036e-06	2.2904e-06	599.41	263.03	3.8538e-06	7.7044e-06	230.76	86.785	101.5	44.235	4.3118e-06	36.46	0.00052788	0.00052887	0.00014621	711.78	5.7989e-06	5.7994e-06	607.01	265.15	5.8478e-06	5.8297e-06	238.39	88.787	101.71	44.256	5.8404e-06	37.067	288.271	78.568	246.801	48.994	206.710	369.286	47.386	53.897	287.632	115.441	50.947	56.186	58.667	62.030	55.214	58.181	-8191	255	
1053.118	1	1	0	0	0.04818	0.20702	0.15136	0.25693	0.10305	0.05241	0.19187	0.071075	0.17931	0.39328	0.28698	0.22726	0.11888	0.041609	0.18934	0.10095	0.87708	0.24375	-0.15417	0.71667	0.054167	0.075	0.66667	-0.18542	0.52083	0.64375	-0.070833	0.49167	0.064583	0.125	0.72083	-0.03125	85.517	328.303	231.464	59.081	272.217	125.514	278.270	51.565	38.721	276.627	184.701	339.137	137.669	370.722	271.473	270.677	0.0007247	0.00053876	0.00010021	697.94	8.1638e-06	7.9813e-07	595.82	263.47	1.047e-05	8.9957e-06	229.81	85.25	101.55	44.111	3.7373e-06	36.025	0.00052828	0.00052884	0.0001474	708.92	5.8559e-06	5.8169e-06	605.8	264.62	5.7842e-06	5.8023e-06	237.08	88.261	101.65	43.997	5.7966e-06	36.645	301.975	143.986	137.852	48.450	128.080	305.058	47.374	54.232	159.046	89.693	51.128	56.402	58.300	61.793	129.808	57.731	-8191	255	
1053.214	1	1	0	0	0.14846	0.068815	0.19479	0.12375	0.16432	0.15106	0.23412	0.097971	0.13006	0.13112	0.049	0.11624	0.18629	0.23285	0.21017	0.064245	0.59792	0.45625	-0.14167	0.59167	0.22083	0.025	0.54375	-0.21042	0.37292	0.61875	-0.17083	0.57708	0.12917	-0.020833	0.83542	-0.18125	186.433	257.976	111.183	72.678	63.363	184.944	41.772	310.899	268.844	265.438	147.909	87.012	209.990	60.531	225.262	383.991	0.00058502	0.00071616	0.00025618	694.28	6.9423e-06	9.241e-06	589.48	263.38	1.1114e-05	7.1107e-06	228.46	85.719	101.5	44.07	5.9876e-06	35.607	0.00052739	0.00053044	0.00014685	707.94	5.7998e-06	5.7528e-06	602.48	263.78	5.8351e-06	5.8442e-06	236.79	88.091	101.44	44.014	5.8444e-06	36.564	301.853	93.589	210.758	48.423	143.045	93.055	47.117	53.317	122.866	105.429	50.464	55.800	58.219	61.662	150.371	57.650	-8191	255	
1053.333	1	1	0	0	0.3176	0.1649	0.28751	0.099329	0.16214	0.14489	0.13981	0.12947	0.18813	0.16434	0.12543	0.18714	0.087095	0.24162	0.035372	0.19386	0.49375	0.5125	-0.13125	0.59375	0.3375	-0.027083	0.68333	-0.0625	0.25208	0.6375	-0.09375	0.57083	0.29375	-0.18958	0.65417	-0.014583	160.700	210.623	168.014	335.295	70.393	197.242	312.048	361.699	327.497	96.719	357.341	260.847	115.484	360.507	356.982	371.382	0.00044658	0.00055611	0.00036267	698.91	3.8918e-06	2.9342e-06	588.55	262.86	4.671e-06	8.6719e-06	230.41	85.693	101.17	44.378	3.7e-06	36.055	0.00053187	0.00053379	0.00014891	706.78	5.8006e-06	5.8203e-06	600.71	263.68	5.7988e-06	5.8428e-06	237.77	87.861	101.36	44.194	5.8205e-06	36.968	283.999	94.553	92.693	48.514	324.424	151.523	46.913	53.771	167.822	155.526	50.776	55.562	58.474	61.764	46.962	57.951	-8191	255	
1053.406	1	1	0	0	0.20668	0.14194	0.065272	0.33762	0.21305	0.17984	0.11402	0.091033	0.1659	0.073347	0.088034	0.3917	0.21347	0.17057	0.11868	0.12992	0.40208	0.7875	-0.08125	0.25	0.425	-0.125	0.56875	-0.12083	0.1125	0.6875	-0.19167	0.31875	0.25833	-0.12292	0.56667	0.05625	79.300	208.010	67.767	334.052	52.479	127.477	90.066	257.967	191.379	70.543	367.459	390.410	310.944	65.065	192.615	276.274	0.00061138	0.00026228	9.6209e-05	695.72	6.5368e-06	5.3644e-06	590.46	262.53	8.4756e-06	6.3285e-06	229.86	86.291	101.1	44.218	4.8644e-06	36.031	0.00053293	0.00053377	0.00014846	706.14	5.8135e-06	5.8401e-06	602.23	263.37	5.7846e-06	5.8422e-06	237.25	88.256	101.51	44.248	5.7973e-06	36.993	289.612	123.789	59.937	48.530	155.265	111.948	46.572	53.439	158.098	180.162	50.357	55.309	58.383	61.781	203.408	57.550	-8191	255	
1053.527	1	1	0	0	0.2005	0.075669	0.15496	0.18536	0.10926	0.17171	0.093709	0.16695	0.24042	0.17747	0.18284	0.1478	0.17257	0.14436	0.063044	0.077092	0.34167	0.8875	-0.039583	0.29167	0.63125	-0.010417	0.3625	0.22292	-0.054167	0.75208	-0.1125	0.25	0.33958	-0.34375	0.58125	0.33958	151.622	230.412	386.818	365.261	303.595	168.248	352.426	367.278	187.206	72.185	101.100	178.769	51.204	385.958	187.980	68.027	0.0005081	3.0874e-05	0.00019323	696.06	4.495e-06	4.3906e-06	595.36	263.45	3.1754e-06	3.2833e-06	229.25	85.866	101.15	44.231	8.2407e-06	36.009	0.00052617	0.00053449	0.00014762	707.63	5.805e-06	5.8358e-06	604.77	264.09	5.8146e-06	5.8275e-06	237.49	88.196	101.41	44.079	5.8087e-06	36.788	309.268	315.278	176.381	48.139	161.072	175.642	46.618	53.437	192.745	148.984	50.802	55.374	58.315	61.916	147.648	57.779	-8191	255	
1053.621	1	1	0	0	0.11726	0.14334	0.11486	0.29609	0.05198	0.2355	0.10108	0.1168	0.17325	0.051913	0.2125	0.098899	0.061843	0.20749	0.19895	0.13621	0.19583	0.71458	0.11458	0.12292	0.54167	-0.060417	0.34792	0.21042	0.05	0.63125	0.027083	-0.10833	0.62708	-0.19375	0.47292	0.52292	258.836	113.554	54.403	216.143	170.042	126.441	194.005	385.359	268.702	259.789	369.706	267.556	388.675	313.931	291.243	336.978	0.00077065	0.00057748	0.00016016	698.16	4.748e-06	4.6328e-06	591.85	262.98	1.374e-05	3.0125e-06	229.18	86.16	100.71	44.365	3.3309e-06	36.066	0.00052839	0.00053212	0.00014774	707.46	5.8455e-06	5.8523e-06	602.56	263.51	5.839e-06	5.8033e-06	236.18	87.818	101.07	44.028	5.8175e-06	36.699	305.720	156.240	96.120	48.319	342.585	215.877	47.163	54.005	172.821	236.988	51.335	55.595	58.493	61.986	321.433	57.532	-8191	255	
1053.717	1	1	0	0	0.11992	0.082572	0.067278	0.1689	0.095603	0.0099112	0.18102	0.079578	0.032671	0.20955	0.26409	0.22851	0.31712	0.22183	0.31444	0.23093	0.18333	0.58125	0.16875	-0.027083	0.66875	-0.054167	0.26458	0.50625	0.04375	0.61875	0.31458	-0.025	0.58958	-0.35833	0.31667	0.45833	112.218	238.949	63.442	216.753	373.828	229.084	204.641	351.587	345.188	135.404	342.028	357.364	352.956	324.619	41.471	309.794	0.00050092	0.001034	0.00032299	696.05	6.6672e-06	3.7024e-06	589.4	262.67	2.8586e-06	1.2046e-05	228.2	85.658	101.48	44.243	1.2051e-05	35.98	0.00052695	0.00053644	0.00014844	705.45	5.7744e-06	5.832e-06	601.87	263.29	5.7831e-06	5.8153e-06	236.46	87.775	101.33	44.031	5.7829e-06	36.755	299.228	151.551	67.958	48.276	256.884	339.368	47.392	54.118	206.149	189.824	50.989	55.564	58.445	62.287	196.146	57.973	-8191	255	
1053.814	1	1	0	0	0.13498	0.083946	0.1495	0.035346	0.12173	0.18977	0.26761	0.18476	0.09058	0.10338	0.11806	0.23472	0.14827	0.20976	0.16102	0.32898	0.095833	0.44167	0.50208	0.016667	0.69167	0.04375	0.1	0.59792	-0.00625	0.425	0.35625	-0.35208	0.575	0.072917	0.21458	0.62292	373.989	119.719	242.442	157.035	38.181	360.881	313.612	342.451	154.051	335.285	193.676	360.230	294.413	330.652	334.701	58.866	0.00056103	0.00057014	0.00021973	699.3	3.8732e-06	4.4326e-06	592.42	262.52	6.739e-06	6.0183e-06	231.2	86.627	101.25	44.348	2.1143e-06	36.078	0.00052403	0.00052459	0.00014699	705.87	5.7761e-06	5.8026e-06	604.08	263.56	5.804e-06	5.7996e-06	237.77	88.317	101.21	44.137	5.7588e-06	36.874	288.932	127.203	64.590	48.542	252.572	363.736	47.023	53.881	188.608	93.203	50.664	56.115	58.558	62.230	382.125	58.043	-8191	255	
1053.934	1	1	0	0	0.23602	0.19141	0.025069	0.23648	0.21116	0.076375	0.22441	0.08342	0.29049	0.084284	0.2008	0.19156	0.38153	0.12251	0.057991	0.084353	0.24375	0.33125	0.65208	-0.21667	0.88333	0.19167	0.089583	0.73125	0.15208	0.33125	0.44167	-0.17292	0.53958	-0.1	0.2375	0.7125	257.353	141.146	96.780	368.241	197.276	320.421	139.550	318.990	88.681	294.081	337.281	346.405	359.496	81.561	299.514	128.009	0.00074415	0.00079386	0.00014622	695.43	3.0523e-06	2.2584e-06	593.79	263.75	9.4928e-06	5.3274e-06	230.23	85.842	100.66	44.225	8.4426e-06	35.963	0.00052355	0.0005261	0.00014598	708.51	5.804e-06	5.8079e-06	606.41	264.12	5.8146e-06	5.7844e-06	238	88.239	101.12	44.027	5.8004e-06	36.761	295.053	159.455	164.665	48.661	283.779	188.889	46.796	53.634	140.280	191.211	50.308	55.380	58.343	62.196	139.144	58.101	-8191	255	
1054.006	1	1	0	0	0.24684	0.03776	0.15246	0.19089	0.20567	0.16077	0.16943	0.057558	0.2298	0.18254	0.1774	0.08467	0.18878	0.22765	0.36253	0.076205	0.21458	0.40625	0.66042	-0.20417	0.55417	0.12708	-0.077083	0.62708	0.022917	0.066667	0.64167	-0.25	0.36042	0.4	-0.13125	0.56458	246.326	306.655	172.443	287.636	209.628	343.426	351.993	259.680	319.620	154.533	254.644	241.143	226.747	315.229	249.792	123.155	0.00059953	0.00012688	0.00022415	700.86	2.3532e-06	7.4274e-06	597.09	262.71	5.4647e-06	7.6017e-06	230.91	86.259	101.27	44.202	1.0458e-05	35.873	0.00052592	0.00052831	0.00014774	710.51	5.7776e-06	5.8322e-06	605.32	263.48	5.7829e-06	5.7727e-06	237.15	88.116	101.16	43.967	5.7851e-06	36.734	307.898	302.491	228.449	48.293	376.654	149.445	47.000	53.662	106.662	91.675	50.685	55.724	58.206	62.160	151.068	57.670	-8191	255	
#DATA ENDS
