BOXY.EXE: ISS Imagent and Oximeter Data Acquisition Program Version 0.80
Ascii Record File

#ACQ INFORMATION
2  Detector Channels 
16  External MUX Channels 
1  Auxiliary Channels 
5000  Waveform (CCF) Frequency (Hz)
1  Waveforms Skipped 
30  Waveforms Averaged 
1  Cycles Averaged 
16  Acquisitions per Waveform 
10.0806  Updata Rate (Hz) 

#FILE INFORMATION
TRUE -- External MUX Channel results are PARSED.
FALSE -- AC DC and Phase are NOT grouped.
TRUE -- Companion Program Settings File CREATED.
FALSE -- AC data not excluded
FALSE -- DC data not excluded
FALSE -- Phase data not excluded
FALSE -- Auxillary Chn. data not excluded
Tab delimiters

#CALIBRATION STATE
TRUE -- Waveform Calibration Values APPLIED.


#AUX CALIBRATION VALUES
Val Type	aux-1	

Term	1.0000e+00	
Factor	0.0000e+00	


#WF CALIBRATION VALUES
A = Detector Channel
Val Type	A-AC1	A-AC2	A-AC3	A-AC4	A-AC5	A-AC6	A-AC7	A-AC8	A-AC9	A-AC10	A-AC11	A-AC12	A-AC13	A-AC14	A-AC15	A-AC16	A-DC1	A-DC2	A-DC3	A-DC4	A-DC5	A-DC6	A-DC7	A-DC8	A-DC9	A-DC10	A-DC11	A-DC12	A-DC13	A-DC14	A-DC15	A-DC16	A-Ph1	A-Ph2	A-Ph3	A-Ph4	A-Ph5	A-Ph6	A-Ph7	A-Ph8	A-Ph9	A-Ph10	A-Ph11	A-Ph12	A-Ph13	A-Ph14	A-Ph15	A-Ph16	

Term	0.00000e+00	0.00000e+00	0.00000e+00	0.00000e+00	0.00000e+00	0.00000e+00	0.00000e+00	0.00000e+00	0.00000e+00	0.00000e+00	0.00000e+00	0.00000e+00	0.00000e+00	0.00000e+00	0.00000e+00	0.00000e+00	0.00000e+00	0.00000e+00	0.00000e+00	0.00000e+00	0.00000e+00	0.00000e+00	0.00000e+00	0.00000e+00	0.00000e+00	0.00000e+00	0.00000e+00	0.00000e+00	0.00000e+00	0.00000e+00	0.00000e+00	0.00000e+00	0.00000e+00	0.00000e+00	0.00000e+00	0.00000e+00	0.00000e+00	0.00000e+00	0.00000e+00	0.00000e+00	0.00000e+00	0.00000e+00	0.00000e+00	0.00000e+00	0.00000e+00	0.00000e+00	0.00000e+00	0.00000e+00	
Factor	1.00000e+00	1.00000e+00	1.00000e+00	1.00000e+00	1.00000e+00	1.00000e+00	1.00000e+00	1.00000e+00	1.00000e+00	1.00000e+00	1.00000e+00	1.00000e+00	1.00000e+00	1.00000e+00	1.00000e+00	1.00000e+00	1.00000e+00	1.00000e+00	1.00000e+00	1.00000e+00	1.00000e+00	1.00000e+00	1.00000e+00	1.00000e+00	1.00000e+00	1.00000e+00	1.00000e+00	1.00000e+00	1.00000e+00	1.00000e+00	1.00000e+00	1.00000e+00	X	X	X	X	X	X	X	X	X	X	X	X	X	X	X	X	

B = Detector Channel
Val Type	B-AC1	B-AC2	B-AC3	B-AC4	B-AC5	B-AC6	B-AC7	B-AC8	B-AC9	B-AC10	B-AC11	B-AC12	B-AC13	B-AC14	B-AC15	B-AC16	B-DC1	B-DC2	B-DC3	B-DC4	B-DC5	B-DC6	B-DC7	B-DC8	B-DC9	B-DC10	B-DC11	B-DC12	B-DC13	B-DC14	B-DC15	B-DC16	B-Ph1	B-Ph2	B-Ph3	B-Ph4	B-Ph5	B-Ph6	B-Ph7	B-Ph8	B-Ph9	B-Ph10	B-Ph11	B-Ph12	B-Ph13	B-Ph14	B-Ph15	B-Ph16	

Term	0.00000e+00	0.00000e+00	0.00000e+00	0.00000e+00	0.00000e+00	0.00000e+00	0.00000e+00	0.00000e+00	0.00000e+00	0.00000e+00	0.00000e+00	0.00000e+00	0.00000e+00	0.00000e+00	0.00000e+00	0.00000e+00	0.00000e+00	0.00000e+00	0.00000e+00	0.00000e+00	0.00000e+00	0.00000e+00	0.00000e+00	0.00000e+00	0.00000e+00	0.00000e+00	0.00000e+00	0.00000e+00	0.00000e+00	0.00000e+00	0.00000e+00	0.00000e+00	1.75774e+01	-1.46235e+02	-1.17124e+02	-1.81868e+02	-8.91195e+01	-6.48731e+01	-1.55593e+02	-1.62015e+02	-9.75022e+01	-8.17833e+01	-1.72047e+02	-1.70197e+02	-1.80263e+02	-1.76670e+02	-7.13823e+01	-1.48961e+02	
Factor	4.51161e-05	1.29920e-04	3.80509e-05	1.84395e-01	1.28156e-06	1.39230e-06	1.71929e-01	6.00013e-02	1.74208e-06	1.47441e-06	9.93773e-02	3.72057e-02	2.45678e-02	1.02851e-02	1.73701e-06	1.47878e-02	1.01581e-06	1.03816e-06	2.88466e-07	9.16057e-02	1.13405e-08	1.13887e-08	8.04221e-02	2.97712e-02	1.13638e-08	1.13723e-08	4.69853e-02	1.74268e-02	1.22168e-02	5.05173e-03	1.13582e-08	6.97409e-03	X	X	X	X	X	X	X	X	X	X	X	X	X	X	X	X	



#DISTANCE SETTINGS
A = Detector Channel
A-1	A-2	A-3	A-4	A-5	A-6	A-7	A-8	A-9	A-10	A-11	A-12	A-13	A-14	A-15	A-16	

2.5000e+00	3.0000e+00	2.5000e+00	3.0000e+00	2.0000e+00	3.0000e+00	1.5000e+00	3.0000e+00	3.0000e+00	3.0000e+00	3.0000e+00	3.0000e+00	3.0000e+00	3.0000e+00	1.5000e+00	3.0000e+00	

B = Detector Channel
B-1	B-2	B-3	B-4	B-5	B-6	B-7	B-8	B-9	B-10	B-11	B-12	B-13	B-14	B-15	B-16	

1.0000e+01	1.0000e+01	1.0000e+01	1.4400e+00	1.0000e+01	1.0000e+01	1.5100e+00	1.9400e+00	1.0000e+01	1.0000e+01	1.9900e+00	2.4900e+00	2.4100e+00	2.9000e+00	1.0000e+01	2.9800e+00	




#DATA BEGINS
time	group	step	mark	flag	A-AC1	A-AC2	A-AC3	A-AC4	A-AC5	A-AC6	A-AC7	A-AC8	A-AC9	A-AC10	A-AC11	A-AC12	A-AC13	A-AC14	A-AC15	A-AC16	A-DC1	A-DC2	A-DC3	A-DC4	A-DC5	A-DC6	A-DC7	A-DC8	A-DC9	A-DC10	A-DC11	A-DC12	A-DC13	A-DC14	A-DC15	A-DC16	A-Ph1	A-Ph2	A-Ph3	A-Ph4	A-Ph5	A-Ph6	A-Ph7	A-Ph8	A-Ph9	A-Ph10	A-Ph11	A-Ph12	A-Ph13	A-Ph14	A-Ph15	A-Ph16	B-AC1	B-AC2	B-AC3	B-AC4	B-AC5	B-AC6	B-AC7	B-AC8	B-AC9	B-AC10	B-AC11	B-AC12	B-AC13	B-AC14	B-AC15	B-AC16	B-DC1	B-DC2	B-DC3	B-DC4	B-DC5	B-DC6	B-DC7	B-DC8	B-DC9	B-DC10	B-DC11	B-DC12	B-DC13	B-DC14	B-DC15	B-DC16	B-Ph1	B-Ph2	B-Ph3	B-Ph4	B-Ph5	B-Ph6	B-Ph7	B-Ph8	B-Ph9	B-Ph10	B-Ph11	B-Ph12	B-Ph13	B-Ph14	B-Ph15	B-Ph16	aux-1	digaux	

879.304	1	1	0	256	0.27388	0.14441	0.25245	0.19075	0.11471	0.078276	0.40923	0.23884	0.33824	0.26413	0.10736	0.32761	0.17006	0.32198	0.15448	0.23824	0.11458	0.0875	0.35625	-0.46042	0.24375	0.33125	-0.35625	0.46458	-0.11667	-0.13958	0.475	-0.39583	0.097917	-0.089583	-0.24792	0.31875	214.188	225.442	299.410	390.991	352.031	258.617	402.874	377.078	203.697	255.432	226.816	90.038	85.604	350.571	174.564	81.680	0.0012818	0.00042	7.4827e-05	906.74	3.6972e-06	5.9403e-06	742.61	385.59	9.4824e-06	5.9396e-06	320.92	143.88	169.54	94.599	5.3095e-06	79.587	0.00012119	0.00010125	2.8809e-05	842.18	1.1188e-06	1.1034e-06	692.07	356.17	1.1102e-06	1.1148e-06	293.58	130.38	156.18	86.413	1.1196e-06	71.773	294.433	136.597	90.727	57.858	161.555	207.031	55.991	62.492	160.480	175.999	58.441	63.085	65.590	68.572	207.124	64.090	-8191	255	
879.401	1	1	0	0	0.10659	0.15592	0.066946	0.10053	0.14979	0.2715	0.071233	0.13717	0.046538	0.13537	0.045744	0.28965	0.49792	0.51377	0.14059	0.084287	0.41458	-0.027083	0.60208	-0.34375	0.19375	0.40625	-0.32708	0.23333	0.22083	-0.23125	0.31875	-0.37917	0.2375	0.28125	-0.29167	0.16042	151.627	170.297	394.561	241.541	379.671	221.672	196.407	358.122	399.329	114.173	88.852	302.358	54.562	50.187	77.582	95.423	0.0012082	0.00044184	0.00010459	909.43	6.9096e-06	3.5664e-06	746.75	386.46	9.6011e-06	6.8181e-06	325.02	145.53	170.21	94.968	7.4784e-06	80.247	0.00012035	9.9992e-05	2.8527e-05	841.93	1.1224e-06	1.1151e-06	693.79	356.81	1.1219e-06	1.1322e-06	295.48	131.49	156.55	86.815	1.1306e-06	72.484	299.916	146.673	129.208	57.983	160.034	190.250	56.143	62.076	146.920	214.294	58.967	62.279	65.179	68.604	187.924	64.370	-8191	255	
879.497	1	1	0	0	0.19557	0.10194	0.13111	0.18002	0.11275	0.083284	0.13844	0.14088	0.14711	0.21252	0.23562	0.12796	0.19316	0.262	0.16991	0.12257	0.29167	-0.32083	0.71042	-0.38333	0.10625	0.56458	-0.45417	0.20417	0.27292	-0.175	0.29792	-0.11875	-0.39792	0.26042	-0.16667	0.12083	98.387	234.578	334.618	319.614	113.842	136.407	341.299	84.402	338.060	373.240	318.758	371.992	399.188	53.981	401.074	45.851	0.0012499	0.00066212	0.00019546	907.57	5.6493e-06	3.6524e-06	751.38	386.39	8.1546e-06	6.2543e-06	324.49	146.67	171.49	95.096	4.3879e-06	80.63	0.00012115	0.00010251	2.7953e-05	843.82	1.1146e-06	1.0979e-06	699.13	357.6	1.1317e-06	1.1059e-06	295.68	132.25	157.07	86.903	1.1033e-06	72.599	296.665	71.315	155.706	57.761	159.220	223.286	56.037	62.067	167.447	147.323	59.112	62.763	65.557	68.569	222.064	64.205	-8191	255	
879.616	1	1	0	0	0.18864	0.33134	0.2989	0.4381	0.24932	0.18139	0.17354	0.26817	0.089522	0.19839	0.16259	0.18632	0.21863	0.25567	0.13381	0.12104	0.7375	-0.35625	0.33542	-0.21875	-0.26875	0.62083	-0.5125	0.12708	0.38333	-0.22917	0.43958	-0.16667	-0.225	0.35	-0.19583	0.13125	63.498	332.560	305.812	380.155	185.844	307.324	286.091	243.843	156.240	332.978	137.869	92.775	351.823	401.593	164.690	354.312	0.0012349	0.00045171	4.4938e-05	906.18	4.3608e-06	6.2409e-06	750.64	386.53	8.6381e-06	9.1162e-06	323.28	144.83	170.33	94.447	8.3154e-06	80.116	0.00011995	9.8255e-05	2.7828e-05	842.19	1.0818e-06	1.0766e-06	697.18	357.14	1.0999e-06	1.0806e-06	294.47	131.24	156.54	86.575	1.1129e-06	72.266	305.562	89.170	111.698	57.761	163.854	216.873	56.170	62.568	166.589	188.128	58.726	62.926	65.472	68.584	205.015	64.353	-8191	255	
879.712	1	1	0	0	0.1331	0.1422	0.063299	0.18654	0.18887	0.07809	0.4879	0.19161	0.18783	0.17991	0.073871	0.28017	0.24754	0.45604	0.18729	0.23834	0.86042	-0.41875	0.44167	0.15208	-0.29583	0.6625	-0.4	-0.04375	0.55417	-0.44375	0.21875	0.1125	-0.43542	0.31458	-0.21042	-0.225	188.088	156.379	81.395	279.510	314.209	97.338	354.924	337.475	151.657	143.359	60.968	365.918	224.275	362.105	302.084	362.271	0.0012873	0.0004365	0.00016592	906.7	6.0563e-06	5.4511e-06	749.16	387.24	3.9546e-06	3.6912e-06	325.03	145.43	170.64	94.654	1.2351e-05	79.953	0.00011993	9.7929e-05	2.7595e-05	843.24	1.102e-06	1.0729e-06	697.2	357.68	1.0976e-06	1.0677e-06	296.22	132.04	156.77	86.658	1.1158e-06	72.459	296.807	123.234	149.414	57.834	152.154	206.285	56.270	62.163	167.563	198.328	59.167	62.631	65.765	68.668	191.057	64.336	-8191	255	
879.808	1	1	0	0	0.078084	0.26358	0.2413	0.13841	0.2742	0.14083	0.091724	0.226	0.24043	0.33779	0.15082	0.3189	0.31668	0.23283	0.13012	0.23399	0.81875	-0.3875	0.38958	0.047917	-0.35625	0.5125	-0.075	-0.35208	0.60625	-0.22708	0.072917	0.20833	-0.49583	0.35417	-0.0125	-0.24583	79.678	169.970	374.439	214.249	377.490	395.902	224.491	70.755	333.325	340.291	211.681	108.194	364.187	376.561	378.064	359.210	0.0011707	0.00053995	0.00019507	906.36	7.3988e-06	3.4589e-06	748.78	388.37	6.8539e-06	6.4659e-06	324.77	146.13	170.89	95.292	1.1237e-05	80.941	0.00011863	9.7527e-05	2.7344e-05	842.74	1.0815e-06	1.057e-06	698.63	358.32	1.083e-06	1.0773e-06	296.61	132.37	156.89	87.008	1.1019e-06	72.912	302.106	94.207	136.912	58.111	169.876	179.453	56.389	62.137	155.486	179.470	58.799	62.764	65.667	68.749	195.750	64.592	-8191	255	
879.880	1	1	0	0	0.17326	0.24267	0.156	0.28484	0.074474	0.051312	0.20969	0.3649	0.12225	0.076919	0.099439	0.25351	0.26259	0.22483	0.2436	0.26749	0.85	-0.13958	0.18542	0.29792	-0.15417	0.32292	0.0083333	-0.39375	0.46458	-0.27292	-0.097917	0.49792	-0.5625	0.20625	0.072917	-0.54792	328.774	79.415	382.235	341.603	302.645	339.312	314.033	321.725	46.437	390.120	155.902	51.795	70.016	67.371	265.905	389.450	0.0012795	0.00046412	0.00011095	906.99	4.3471e-06	6.7981e-06	755.13	386.67	7.286e-06	3.3702e-06	326.7	146.64	171.05	95.128	8.6446e-06	80.648	0.00011973	9.7209e-05	2.725e-05	844	1.0793e-06	1.077e-06	702.14	357.93	1.0929e-06	1.0604e-06	298.11	132.67	157.41	87.022	1.0962e-06	72.846	302.727	154.482	163.903	58.120	186.569	186.447	56.368	62.322	153.987	132.563	58.499	62.773	65.736	68.775	179.087	64.289	-8191	255	
880.000	1	1	0	0	0.10098	0.31049	0.22145	0.18809	0.058498	0.2367	0.25369	0.34285	0.10425	0.18855	0.20202	0.13422	0.10523	0.13099	0.11316	0.068952	0.89583	-0.26042	0.15417	0.14375	-0.13542	0.43958	0.060417	-0.30208	0.73542	-0.26875	0.0041667	0.51875	-0.47083	0.15417	0.43333	-0.45208	398.402	305.845	289.129	374.969	241.410	70.492	312.218	347.733	289.156	189.759	358.734	323.817	325.319	374.794	295.907	93.409	0.0012011	0.00075079	0.00021828	904.98	3.4469e-06	6.4417e-06	751.26	386.02	8.3173e-06	6.0122e-06	323.21	146.11	170.99	94.908	7.6964e-06	79.624	0.00011743	9.8658e-05	2.7355e-05	842.72	1.0755e-06	1.0564e-06	699.81	357.78	1.1044e-06	1.0609e-06	295.82	131.8	157.1	86.757	1.1057e-06	72.12	303.989	79.395	141.134	57.723	181.759	195.304	56.288	62.202	145.140	157.590	58.869	62.836	65.656	68.536	188.331	64.288	-8191	255	
880.096	1	1	0	0	0.15815	0.068143	0.27969	0.25496	0.085934	0.11019	0.040597	0.23469	0.19011	0.13379	0.16964	0.28467	0.2803	0.28828	0.31915	0.27602	1.0208	0.0125	-0.054167	0.39792	-0.22083	0.30208	0.13958	-0.39583	0.50208	-0.045833	-0.15208	0.5375	-0.53333	-0.060417	0.43958	-0.28542	83.630	298.897	79.805	329.381	272.325	250.734	55.335	355.588	176.013	76.113	358.548	300.915	358.682	95.298	285.125	364.611	0.0012409	0.00056107	0.00013236	905.31	4.8098e-06	7.8348e-06	749.09	385.64	5.2668e-06	5.9268e-06	324.33	146.46	171.05	94.804	5.4912e-06	80.138	0.00011714	9.7103e-05	2.7588e-05	842.57	1.0781e-06	1.0664e-06	696.05	356.98	1.0793e-06	1.0483e-06	295.39	131.98	157.12	86.657	1.093e-06	72.373	299.350	112.419	149.022	57.873	156.603	161.575	56.380	62.206	151.528	173.948	59.154	62.844	65.804	68.711	207.832	64.442	-8191	255	
880.192	1	1	0	0	0.31314	0.1176	0.18739	0.12559	0.30108	0.14809	0.22273	0.12427	0.098664	0.11297	0.088869	0.13524	0.3011	0.21859	0.26976	0.37214	0.57083	0.10208	-0.23125	0.56875	-0.19792	0.2125	0.375	-0.52292	0.51042	0.1375	-0.35	0.41875	-0.26458	-0.20417	0.6375	-0.61458	145.643	49.033	156.405	257.462	352.894	284.416	373.967	339.663	225.766	236.556	297.900	250.715	393.894	394.458	245.477	392.047	0.0011048	0.00053256	0.0001377	903.14	5.4257e-06	9.8621e-06	753.77	386.16	8.6789e-06	6.052e-06	326.58	146.04	170.3	94.389	9.4246e-06	80.889	0.00011701	9.3757e-05	2.6362e-05	841.46	1.0485e-06	1.0276e-06	699.55	357.23	1.0356e-06	1.0388e-06	297.02	132.44	157.06	86.719	1.0757e-06	72.728	294.039	147.375	134.727	58.106	156.749	181.262	56.269	62.677	189.213	196.757	59.137	62.827	65.945	68.832	202.996	64.481	-8191	255	
880.289	1	1	0	0	0.31192	0.1479	0.061255	0.25207	0.27399	0.304	0.18416	0.19844	0.29839	0.10436	0.18447	0.099461	0.31608	0.03101	0.065739	0.37504	0.71875	0.32083	-0.14375	0.47083	-0.14167	0.064583	0.40208	-0.31458	0.44375	0.25417	-0.33958	0.5125	-0.39375	-0.26667	0.43542	-0.32708	117.252	81.080	274.349	375.066	388.904	207.185	124.351	341.664	96.925	116.968	344.160	233.101	382.384	101.765	185.517	364.608	0.0012578	0.00073444	0.00020131	906.76	6.8969e-06	2.7921e-06	754.91	388.39	9.0872e-06	3.9573e-06	327.61	146.61	171.3	95.343	6.7818e-06	81.075	0.00011344	9.3651e-05	2.5711e-05	843.33	1.0254e-06	1.0048e-06	700.86	358.23	1.0275e-06	9.8224e-07	298.59	132.73	157.58	87.098	1.0213e-06	73.123	294.585	128.073	148.966	58.431	168.677	229.131	56.369	62.351	184.197	198.315	59.124	62.987	65.708	68.662	209.204	64.539	-8191	255	
880.407	1	1	0	0	0.20096	0.25385	0.24207	0.19832	0.34494	0.2501	0.28401	0.15006	0.15998	0.15393	0.082097	0.016865	0.080099	0.13923	0.20536	0.26502	0.64583	0.30208	-0.24583	0.32292	0.225	-0.01875	0.44792	-0.33333	0.17708	0.38333	-0.48542	0.34167	-0.18333	-0.17708	0.53542	-0.325	369.237	394.533	113.032	375.370	309.909	353.606	294.712	49.611	128.460	328.319	335.395	108.100	205.892	192.839	383.802	312.363	0.0012869	0.00027806	8.7644e-05	905.11	4.2188e-06	4.0659e-06	751.11	386.99	7.1099e-06	6.3733e-06	325.1	146.35	170.56	95.018	7.8353e-06	80.139	0.00011058	9.2386e-05	2.5089e-05	841.21	9.8093e-07	1.0162e-06	700.62	357.44	1.0283e-06	9.9766e-07	296.29	131.99	156.95	86.813	1.022e-06	72.373	300.769	100.421	177.065	57.898	136.347	174.458	56.518	62.229	183.021	181.336	58.922	62.263	65.759	68.802	214.502	64.611	-8191	255	
880.481	1	1	0	0	0.37869	0.14497	0.14994	0.024041	0.15227	0.045331	0.22433	0.26081	0.082745	0.13417	0.093622	0.1969	0.042722	0.19893	0.23014	0.087109	0.48125	0.50417	-0.38542	0.3	-0.0041667	-0.2125	0.45625	-0.29792	0.13542	0.47292	-0.39583	0.33125	0.14167	-0.51042	0.48958	-0.19583	156.170	109.509	151.859	93.498	122.880	58.184	260.560	389.465	363.325	135.562	153.565	331.556	278.095	87.916	400.330	72.221	0.0012914	0.00045241	0.0001339	903	7.2024e-06	7.4788e-06	750.12	383.99	7.6699e-06	5.3902e-06	324.56	145.88	170.36	94.465	1.0057e-05	80.066	0.00011052	8.9444e-05	2.5286e-05	839.14	1.0102e-06	9.9919e-07	696.83	355.93	1.0084e-06	9.8567e-07	295.71	131.42	156.64	86.513	1.014e-06	72.051	298.770	139.387	130.347	57.813	172.080	211.355	56.144	62.244	173.727	172.487	58.761	62.626	65.714	68.511	184.145	64.242	-8191	255	
880.577	1	1	0	0	0.23629	0.22755	0.26349	0.40557	0.18227	0.18643	0.16663	0.22279	0.16481	0.31716	0.12376	0.28471	0.19338	0.30198	0.098963	0.31817	0.33333	0.67292	-0.23958	0.32708	0.32083	-0.41042	0.33542	-0.25417	-0.10417	0.60208	-0.37292	0.27917	0.097917	-0.39375	0.59583	0.022917	118.814	201.622	403.111	365.929	50.099	79.423	303.520	50.233	304.392	342.511	75.695	89.397	338.504	341.006	312.235	282.233	0.0011597	0.00044198	0.00014576	900.25	5.1207e-06	3.4461e-06	755.52	385.32	6.0177e-06	5.3841e-06	323.21	145.95	171.41	94.658	5.8219e-06	80.033	0.00011006	9.0108e-05	2.4621e-05	839.02	9.7986e-07	9.8045e-07	697.94	356.84	1.0155e-06	9.9458e-07	294.72	131.61	157.01	86.632	1.0161e-06	72.379	296.007	129.904	105.445	57.840	186.040	192.583	56.024	62.273	173.692	155.988	58.876	62.452	65.652	68.611	193.807	64.432	-8191	255	
880.696	1	1	0	0	0.11481	0.087691	0.20622	0.18018	0.22509	0.10367	0.19625	0.12728	0.34916	0.14105	0.20019	0.030109	0.2103	0.40461	0.059434	0.0448	0.25417	0.72917	0.08125	0.11042	0.38958	-0.24583	0.39792	-0.19792	-0.14583	0.62083	-0.36458	0.15417	0.28333	-0.52083	0.23333	0.060417	100.466	332.598	122.305	133.503	361.339	188.393	57.024	392.730	280.109	329.265	69.514	387.141	389.865	379.871	135.051	251.374	0.0012711	0.0002937	0.00021687	910.8	4.2022e-06	4.8179e-06	754.16	386.22	8.8983e-06	4.8034e-06	324.76	146.68	170.85	94.881	9.6045e-06	81.063	0.00011122	9.0422e-05	2.505e-05	843.05	9.9177e-07	9.5895e-07	699.67	357.53	1.0016e-06	9.7361e-07	296.99	132.31	156.99	86.804	9.8196e-07	72.99	297.175	80.495	145.936	57.984	157.029	180.051	56.231	62.369	197.139	178.576	58.817	62.890	65.691	68.648	202.567	64.761	-8191	255	
880.792	1	1	0	0	0.067955	0.12484	0.1998	0.20842	0.11132	0.23796	0.4212	0.27077	0.088275	0.16367	0.12772	0.27784	0.36208	0.11061	0.20718	0.15013	0.10208	0.51667	-0.24792	-0.12083	0.64792	-0.22708	0.22917	0.00625	-0.08125	0.46875	-0.14375	0.05	0.47292	-0.4875	0.17083	0.10208	115.978	178.287	378.940	389.669	372.234	379.415	47.318	142.881	106.303	400.670	304.703	338.472	372.393	399.566	122.058	327.796	0.0012174	9.16e-05	0.00014092	908.31	4.3999e-06	6.1346e-06	753.24	385.04	1.0363e-05	4.9128e-06	325.36	146.98	170.61	94.724	7.2757e-06	80.133	0.00011026	8.9213e-05	2.4366e-05	842.33	1.0011e-06	9.5262e-07	699.29	355.74	9.9644e-07	9.7847e-07	296.7	132.34	156.79	86.692	1.0142e-06	72.235	295.645	79.657	141.370	58.072	182.413	195.587	56.434	62.401	152.098	140.235	59.173	62.592	65.753	68.599	178.631	64.368	-8191	255	
880.888	1	1	0	0	0.14544	0.20839	0.12497	0.13322	0.14037	0.047788	0.27841	0.2073	0.27109	0.15681	0.01974	0.088583	0.47674	0.054094	0.19091	0.35481	0.0083333	0.61667	-0.035417	-0.175	0.64167	-0.33125	0.24167	0.29792	-0.29792	0.46667	0.029167	-0.33542	0.27917	-0.61458	0.06875	0.27708	68.153	382.414	130.628	363.480	143.433	168.333	74.028	378.279	220.250	368.469	112.752	153.219	385.104	222.088	375.240	348.912	0.001349	0.00066433	3.3915e-05	901.28	3.7147e-06	5.9915e-06	749.39	385.04	9.67e-06	3.894e-06	324.5	145	170.64	94.244	9.5347e-06	79.815	0.00011044	8.9561e-05	2.4478e-05	836.79	1.0127e-06	9.4949e-07	695.58	356.19	9.9774e-07	9.9496e-07	295.25	130.94	156.06	86.321	9.9924e-07	72.011	302.332	117.107	172.832	57.992	176.696	165.777	56.373	62.304	145.281	192.317	58.775	62.751	65.746	69.046	188.697	64.461	-8191	255	
881.009	1	1	0	0	0.3764	0.12992	0.16717	0.41996	0.30307	0.20726	0.37249	0.21725	0.25052	0.10044	0.29327	0.13425	0.14342	0.027904	0.12677	0.15089	-0.039583	0.30417	0.08125	-0.25208	0.43958	-0.18333	-0.27708	0.25208	-0.38542	0.18542	0.041667	-0.45208	0.44583	-0.49583	0.025	0.37708	244.405	292.711	178.959	305.239	85.923	200.052	310.031	363.105	136.174	403.676	400.694	50.278	389.541	158.260	208.142	354.605	0.0012418	0.00036302	0.00016415	900.81	2.9386e-06	2.2364e-06	748.97	387.44	3.1201e-06	4.4467e-06	322.26	145.56	170.89	94.543	6.2813e-06	80.164	0.00010912	8.9113e-05	2.4597e-05	837.8	9.8029e-07	9.506e-07	696.52	356.37	9.9002e-07	9.534e-07	294.8	131.22	156.56	86.559	9.8707e-07	72.33	295.797	113.625	130.917	58.115	173.665	208.359	56.109	62.509	154.491	161.526	59.190	62.834	65.993	68.835	197.711	64.623	-8191	255	
881.105	1	1	0	0	0.053602	0.1329	0.21396	0.13533	0.27542	0.2935	0.14302	0.48899	0.10991	0.33994	0.23879	0.311	0.09948	0.26641	0.072512	0.11522	-0.1625	0.48333	0.125	-0.50417	0.53333	-0.18542	-0.1125	0.32917	-0.16458	0.16042	0.1125	-0.5	0.36458	-0.13333	-0.27083	0.30625	262.391	388.986	288.635	119.222	91.831	397.659	149.427	382.685	148.405	96.066	400.959	358.660	363.971	369.043	247.873	349.970	0.0011536	0.00064203	0.00020744	911.42	3.7582e-06	5.2238e-06	751.93	386.78	1.297e-05	2.4708e-06	327.11	145.77	170.53	94.95	8.4135e-06	80.503	0.00010781	8.7753e-05	2.5198e-05	842.64	9.7982e-07	9.5255e-07	698.82	356.48	9.8643e-07	9.4843e-07	296.43	132.01	156.68	86.711	9.9476e-07	72.667	300.393	113.726	138.175	57.813	153.609	147.610	56.590	62.452	178.068	226.191	59.267	62.843	65.744	68.686	185.316	64.556	-8191	255	
881.177	1	1	0	0	0.17016	0.039986	0.31141	0.20776	0.20993	0.12944	0.21644	0.26817	0.15475	0.10699	0.20151	0.31591	0.04481	0.20941	0.19015	0.23925	-0.0875	0.28958	0.40417	-0.5375	0.33125	0.010417	-0.28125	0.34167	-0.13333	0.32292	0.45	-0.35	0.34583	0.022917	-0.32083	0.70417	225.400	63.823	158.063	359.584	159.978	344.821	303.359	328.719	127.622	353.497	352.450	366.170	372.862	363.039	95.800	48.630	0.0013366	0.0006117	0.00015053	907.18	5.1294e-06	2.7701e-06	758.73	385.6	8.0038e-06	3.3207e-06	326.84	146.72	169.95	94.243	4.7462e-06	80.419	0.0001092	8.8873e-05	2.5038e-05	841.67	1.0045e-06	9.8244e-07	702.88	357.25	1.0148e-06	9.5568e-07	297.82	132.47	156.83	86.544	1.0162e-06	72.568	295.021	140.002	119.146	57.956	171.730	134.244	56.186	62.278	168.913	158.863	59.073	62.547	65.877	68.804	248.463	64.583	-8191	255	
881.297	1	1	0	0	0.22969	0.091662	0.11416	0.20572	0.051453	0.17997	0.17863	0.2635	0.20052	0.049324	0.33325	0.16404	0.1368	0.19954	0.32361	0.35015	0.12292	-0.01875	0.49583	-0.55625	0.225	0.1875	-0.33958	0.36458	-0.19583	-0.18333	0.48333	-0.27708	0.045833	-0.17083	-0.24792	0.38542	215.546	50.686	300.262	403.005	164.323	86.574	262.689	365.190	240.158	372.190	256.813	321.650	378.587	359.360	331.922	324.547	0.0011702	0.00051875	0.00014135	902.82	4.2686e-06	6.3718e-06	757.4	384.78	7.3194e-06	7.2735e-06	325.58	145.71	170.36	94.509	5.3829e-06	80.009	0.00010918	8.9963e-05	2.4763e-05	839.37	9.8518e-07	9.7079e-07	699.98	355.73	9.7319e-07	9.4784e-07	296.09	131.47	156.11	86.617	9.9458e-07	72.383	301.710	100.612	139.173	57.992	206.241	232.066	56.473	62.644	159.389	154.124	58.937	62.894	65.643	68.711	211.600	64.448	-8191	255	
881.393	1	1	0	0	0.24256	0.031995	0.097574	0.24497	0.26509	0.15411	0.40649	0.08589	0.41403	0.10883	0.25047	0.18783	0.23205	0.057172	0.12724	0.099152	0.2375	0.083333	0.64167	-0.21875	0.34583	0.39375	-0.54792	0.39792	0.1125	-0.15417	0.38542	-0.22708	0.075	0.21458	-0.29583	0.40208	191.950	174.505	258.942	349.128	313.853	62.831	365.428	372.440	104.652	246.820	250.121	331.485	348.606	377.879	228.982	319.104	0.0012411	0.00070966	0.00017755	906.56	4.9541e-06	3.9178e-06	758.08	386.37	3.7762e-06	5.6639e-06	325.8	146.01	170.68	94.743	6.5955e-06	80.516	0.00010743	8.6898e-05	2.4464e-05	841.62	9.7837e-07	9.5603e-07	700.49	356.34	9.7172e-07	9.6328e-07	296.74	132.09	156.72	86.617	9.9294e-07	72.658	294.525	88.115	127.295	58.073	178.640	230.846	56.536	62.505	183.252	171.337	59.016	63.183	65.775	69.135	165.283	64.699	-8191	255	
881.488	1	1	0	0	0.2352	0.16732	0.1109	0.17304	0.13156	0.11529	0.16326	0.17205	0.11988	0.10708	0.029002	0.32863	0.14233	0.099248	0.14573	0.21984	0.28333	-0.052083	0.58125	-0.26458	0.10625	0.42292	-0.35417	0.19375	0.14167	-0.38542	0.49583	-0.014583	-0.24375	0.1375	-0.47708	0.2375	86.936	366.793	312.151	236.485	217.936	386.285	176.533	293.087	231.050	209.062	156.872	338.060	353.673	345.620	160.364	372.983	0.0011951	0.00057627	0.00013627	908.16	4.4303e-06	3.4677e-06	756.85	384.91	8.5143e-06	4.4824e-06	326.02	146.39	170.93	94.543	1.3035e-05	80.773	0.00010854	8.8194e-05	2.5218e-05	842.79	9.9068e-07	9.8007e-07	702.4	356.61	9.8891e-07	9.8397e-07	297.99	132.46	156.8	86.651	1.0046e-06	73.016	302.323	124.255	153.335	58.221	174.969	167.366	56.571	62.663	157.040	182.218	59.202	63.113	65.614	68.871	202.255	64.491	-8191	255	
881.584	1	1	0	0	0.22632	0.1673	0.027521	0.43227	0.267	0.39009	0.058762	0.069298	0.15998	0.12687	0.24069	0.34909	0.24902	0.31474	0.10985	0.27077	0.54792	-0.36458	0.52917	-0.275	-0.09375	0.41875	-0.51667	0.13542	0.35208	-0.29792	0.30417	-0.25833	-0.091667	0.35833	-0.22708	-0.022917	93.351	331.260	87.690	381.440	392.979	83.553	183.936	157.931	143.684	60.060	393.959	347.011	47.461	101.070	375.549	390.648	0.0011774	0.00034736	0.00013352	905.64	6.4668e-06	3.6785e-06	764.34	386.75	7.2727e-06	1.834e-06	328.63	147.42	170.57	94.708	6.4067e-06	81.045	0.00010643	8.7872e-05	2.5172e-05	842.48	9.8352e-07	9.6351e-07	706.85	356.84	9.8072e-07	9.5194e-07	299.14	132.98	156.92	86.817	9.8199e-07	73.094	300.838	101.336	136.691	58.279	180.857	193.403	56.157	62.437	153.544	112.515	59.169	62.808	65.583	68.708	219.767	64.450	-8191	255	
881.705	1	1	0	0	0.17488	0.16519	0.028831	0.23862	0.14566	0.066101	0.14418	0.3223	0.054382	0.16277	0.23409	0.106	0.19364	0.2903	0.10562	0.090717	0.64375	-0.44583	0.3875	-0.12292	0.010417	0.47083	-0.275	0.06875	0.40833	-0.26875	0.30417	0.0375	-0.47083	0.30208	-0.21042	0.066667	89.114	166.558	398.292	366.432	241.585	374.211	197.302	371.270	304.138	362.263	320.684	72.115	402.232	394.802	239.705	304.093	0.0012788	0.00057683	0.00019252	906.95	5.151e-06	7.6141e-06	757.77	385.12	7.0632e-06	2.9926e-06	325.48	146.58	170.73	94.507	7.1555e-06	80.722	0.00010943	8.811e-05	2.4138e-05	843.36	9.7287e-07	9.4251e-07	702.84	355.87	9.8534e-07	9.5971e-07	296.71	132	156.31	86.417	1.0099e-06	72.516	299.975	125.734	133.757	57.920	197.548	201.794	56.359	62.353	167.011	177.533	59.013	63.233	66.009	68.898	164.614	64.630	-8191	255	
881.776	1	1	0	0	0.22247	0.10623	0.20354	0.41871	0.19141	0.31773	0.14089	0.16321	0.058518	0.45592	0.19949	0.1814	0.39679	0.38907	0.28803	0.1017	0.69583	-0.63333	0.56667	0.075	-0.21042	0.64375	-0.34792	-0.014583	0.51667	-0.26458	0.26667	0.12292	-0.49792	0.45	-0.31458	-0.075	398.533	291.232	92.209	372.583	277.061	306.108	60.809	70.192	375.266	387.179	119.541	311.835	65.024	328.757	176.943	389.137	0.001325	0.00085061	0.00018529	909.38	6.2593e-06	4.5643e-06	759.69	386.47	4.1012e-06	6.3291e-06	325.84	146.36	170.42	94.752	6.9985e-06	80.613	0.00010912	8.7383e-05	2.4318e-05	842.25	9.5135e-07	9.5957e-07	703.23	356.47	9.8472e-07	9.4694e-07	297.22	131.94	156.45	86.626	1.0125e-06	72.552	298.007	132.658	119.387	58.227	172.717	165.499	56.671	62.500	212.165	164.557	59.287	63.136	65.846	68.634	186.010	64.543	-8191	255	
881.872	1	1	0	0	0.10721	0.09207	0.14882	0.31803	0.091458	0.059361	0.15417	0.28632	0.12194	0.14892	0.27539	0.11852	0.19045	0.26599	0.083838	0.13908	1.0021	-0.23333	0.33125	0.083333	-0.34792	0.45625	-0.2125	-0.275	0.46042	-0.51667	0.060417	0.29375	-0.50208	0.45833	-0.052083	-0.1375	366.365	287.017	250.586	270.290	238.613	119.441	95.695	325.416	306.786	207.472	226.497	244.662	299.494	349.031	184.683	389.334	0.0013439	0.00066508	0.00011474	907.32	8.3011e-06	6.2682e-06	760.3	385.45	8.8375e-06	5.8095e-06	327.18	146.96	170.68	94.789	8.6852e-06	81.073	0.00011127	8.7774e-05	2.3532e-05	842.41	9.4936e-07	9.9269e-07	705.24	356.46	9.8823e-07	9.381e-07	297.92	132.46	156.85	86.784	9.6722e-07	73.068	295.391	103.649	164.006	58.241	167.411	185.501	56.355	62.219	163.707	155.524	58.869	63.002	65.785	68.681	208.413	64.473	-8191	255	
881.969	1	1	0	0	0.079929	0.058363	0.15192	0.19783	0.085024	0.050663	0.13358	0.12021	0.08065	0.2405	0.24969	0.2556	0.19725	0.22856	0.34454	0.24101	0.94792	-0.14583	0.052083	0.33125	-0.29167	0.53125	-0.23542	-0.6	0.54375	-0.19167	-0.12083	0.40833	-0.4125	-0.060417	0.12917	-0.31042	53.068	141.225	103.273	381.324	73.457	49.164	314.651	323.293	193.742	341.097	269.259	317.876	54.670	63.748	269.432	329.026	0.001166	0.00031437	0.0001281	905.46	7.7786e-06	4.9434e-06	759.44	386.14	9.7784e-06	4.6844e-06	328.44	147.67	170.98	95.048	9.7422e-06	81.318	0.00010694	8.8417e-05	2.4446e-05	841.82	9.5102e-07	9.6849e-07	705.75	357.43	9.868e-07	9.4971e-07	299.03	133.06	157.08	86.896	9.8114e-07	73.359	297.506	155.443	130.005	58.156	182.303	243.077	56.409	62.179	163.331	201.926	58.727	62.684	65.681	68.714	195.882	64.466	-8191	255	
882.089	1	1	0	0	0.14289	0.15401	0.052713	0.18812	0.3009	0.19269	0.35933	0.20839	0.051727	0.25744	0.16457	0.058108	0.54477	0.44556	0.20298	0.057951	0.82708	-0.17083	-0.025	0.3625	-0.225	0.25833	0.047917	-0.575	0.72083	-0.095833	-0.20833	0.50833	-0.4375	-0.0625	0.3625	-0.57917	300.815	271.091	188.748	102.301	178.780	286.426	357.278	253.483	226.948	61.947	390.806	338.524	401.238	354.076	71.962	153.993	0.0012271	0.00041669	0.00013232	905.38	6.8773e-06	3.2197e-06	760.67	385.34	4.8275e-06	8.0425e-06	326.47	146	169.74	94.912	1.0704e-05	80.697	0.00010924	8.7777e-05	2.3752e-05	844.29	9.6285e-07	9.5549e-07	705.21	356.1	9.7854e-07	9.4585e-07	296.59	131.87	156.27	86.669	1.0018e-06	72.705	297.738	99.069	148.329	58.104	189.129	223.472	56.402	62.557	132.028	184.461	58.879	62.897	65.849	68.762	210.813	64.384	-8191	255	
882.185	1	1	0	0	0.13767	0.2636	0.2027	0.34004	0.23412	0.39341	0.094097	0.25395	0.28002	0.18713	0.098387	0.046458	0.1923	0.55151	0.14696	0.14355	0.69375	-0.03125	-0.077083	0.52708	-0.32708	0.14375	0.1875	-0.63125	0.40208	-0.022917	-0.27708	0.43542	-0.38542	-0.010417	0.42708	-0.5125	401.101	288.100	217.023	322.140	281.283	346.060	313.023	366.008	183.158	343.864	384.243	262.017	354.126	362.946	98.018	327.341	0.0012768	0.00060028	0.00012968	908.07	5.5351e-06	5.8232e-06	757.56	383.82	6.6995e-06	5.2578e-06	322.35	145.55	169.57	94.373	7.1334e-06	80.396	0.00010729	8.5421e-05	2.3849e-05	841.05	9.5709e-07	9.5724e-07	700.16	355.16	9.8515e-07	9.4161e-07	295.41	131.47	156	86.466	9.9476e-07	72.472	295.972	128.582	151.207	57.995	181.266	211.775	56.337	62.324	142.825	184.648	58.986	62.597	65.528	68.636	186.306	64.012	-8191	255	
882.282	1	1	0	0	0.12038	0.18006	0.079144	0.22141	0.075255	0.16575	0.12867	0.051654	0.098614	0.24641	0.21084	0.106	0.18717	0.26147	0.2047	0.061703	0.75833	0.091667	-0.26875	0.53333	-0.23125	-0.077083	0.51458	-0.4	0.37292	0.18542	-0.39167	0.30833	-0.42917	-0.1	0.52083	-0.42917	383.584	168.807	204.985	272.190	238.810	96.769	52.160	320.874	68.546	213.929	368.014	367.309	336.279	51.351	74.567	392.016	0.0013831	0.00037458	0.00012717	910.44	5.3931e-06	7.1582e-06	755.94	385.71	3.7356e-06	4.1804e-06	326.98	145.45	170.8	94.569	6.5928e-06	80.277	0.00010768	8.8097e-05	2.4209e-05	842.29	9.5298e-07	9.5575e-07	701.07	356.17	1.0029e-06	9.6184e-07	296.06	131.59	156.37	86.56	9.9467e-07	72.615	305.194	114.919	114.490	58.002	208.402	165.331	56.405	62.209	173.371	151.293	58.763	62.974	65.747	68.491	200.595	64.258	-8191	255	
882.378	1	1	0	0	0.11224	0.15474	0.24136	0.23713	0.12624	0.17403	0.27259	0.04941	0.073627	0.45407	0.26107	0.060639	0.18418	0.33872	0.18981	0.17634	0.725	0.31667	-0.37917	0.46458	-0.052083	-0.1	0.30208	-0.37917	0.2	0.43125	-0.39167	0.48958	-0.15833	-0.21042	0.55625	-0.37917	54.566	92.274	139.876	69.935	123.742	331.411	82.530	357.391	128.084	273.124	106.909	64.694	355.678	57.379	377.469	225.462	0.0012075	0.00057864	9.2089e-05	908.65	7.5249e-06	4.7403e-06	757.44	386.35	1.0002e-05	3.9605e-06	327.07	146.93	170.57	94.865	7.9731e-06	81.174	0.00010789	8.7716e-05	2.4338e-05	843.15	9.5884e-07	9.5625e-07	704.07	357.07	9.8917e-07	9.4315e-07	298.57	132.49	156.61	86.713	9.9181e-07	73.232	299.701	138.695	125.377	57.863	152.842	184.037	56.315	62.328	185.531	171.738	59.107	63.113	65.816	68.521	170.702	64.575	-8191	255	
882.474	1	1	0	0	0.112	0.12296	0.0045741	0.17349	0.16501	0.18818	0.15172	0.23423	0.20258	0.060648	0.21679	0.19108	0.25746	0.3074	0.048479	0.21294	0.64167	0.3875	-0.35625	0.39792	0.083333	-0.13958	0.25625	-0.38958	0.21875	0.46458	-0.40833	0.32083	-0.0125	-0.33333	0.57292	-0.29375	137.845	170.795	308.523	320.990	59.304	77.034	384.046	358.841	110.964	291.400	274.902	179.788	401.810	76.809	98.976	340.164	0.0012446	0.00063784	6.1525e-05	908.06	5.2809e-06	5.7619e-06	753.45	387.74	6.7148e-06	6.2883e-06	324.55	146.15	170.19	94.54	8.4963e-06	80.521	0.000108	8.9442e-05	2.4425e-05	841.88	9.7353e-07	9.5893e-07	702.77	356.25	1.007e-06	9.48e-07	296.1	131.73	156.29	86.4	9.8987e-07	72.578	300.707	132.874	120.461	58.128	177.559	167.147	56.287	62.213	169.921	165.038	58.978	62.975	65.870	68.895	176.046	64.789	-8191	255	
882.570	1	1	0	0	0.13918	0.12068	0.11635	0.36329	0.12898	0.1934	0.081257	0.4535	0.29852	0.096077	0.091501	0.22275	0.098228	0.12225	0.32131	0.36671	0.2	0.41042	-0.072917	0.30833	0.2	-0.26667	0.42708	-0.24167	-0.15208	0.33125	-0.37292	0.26458	0.11042	-0.59792	0.60417	-0.2375	89.206	186.041	151.316	341.117	373.926	103.778	130.350	368.331	216.451	174.528	366.225	198.680	68.435	399.756	205.156	74.537	0.0013347	0.0004069	0.00022106	907.55	5.3101e-06	5.2633e-06	749.66	385.66	7.8806e-06	4.7675e-06	325.01	145.15	169.75	94.215	3.961e-06	80.095	0.00010874	8.8655e-05	2.4851e-05	840.66	9.8367e-07	9.6353e-07	698.09	355.87	9.8306e-07	9.7928e-07	294.57	130.98	155.77	86.323	9.8892e-07	72.402	299.540	130.263	168.031	57.781	193.900	223.297	56.428	62.686	182.113	183.094	59.060	62.953	65.743	68.789	186.998	64.790	-8191	255	
882.689	1	1	0	0	0.18292	0.01312	0.12765	0.0973	0.19759	0.4114	0.23289	0.30293	0.1902	0.29773	0.17668	0.16535	0.16807	0.23625	0.25669	0.19848	0.23333	0.51875	-0.475	0.020833	0.29375	-0.4	0.35	0.0083333	-0.42292	0.52292	-0.25	0.00625	0.35208	-0.6125	0.21875	0.10833	95.675	272.061	206.971	111.449	284.420	249.978	97.956	370.872	349.599	328.709	373.910	73.800	378.640	313.159	158.177	270.807	0.0011377	0.00061142	6.5849e-05	902.85	5.8026e-06	2.9862e-06	753.42	385.37	5.5685e-06	3.9524e-06	323.75	144.86	169.73	94.854	4.6565e-06	80.789	0.00010832	8.9215e-05	2.4691e-05	840.36	9.8159e-07	9.7302e-07	700.18	355.85	9.8486e-07	9.7527e-07	295.89	131.18	156.13	86.657	1.0012e-06	72.844	297.320	74.620	169.394	58.041	165.830	218.505	56.493	62.540	153.840	184.314	59.415	62.978	65.884	68.805	192.949	64.608	-8191	255	
882.785	1	1	0	0	0.018512	0.11946	0.17996	0.095737	0.056153	0.18075	0.14692	0.082552	0.070934	0.032128	0.14137	0.10308	0.23302	0.3702	0.17005	0.21768	0.19375	0.75625	-0.0875	-0.0125	0.43333	-0.30208	0.22917	-0.10208	-0.27083	0.63958	-0.05625	0.091667	0.3125	-0.47083	0.35833	0.18333	58.522	316.780	317.945	315.022	207.198	337.791	387.221	251.996	253.593	147.173	88.305	331.126	345.983	388.396	44.919	327.035	0.001242	0.00064712	0.00023115	905.79	5.4489e-06	6.4022e-06	757.37	385.61	5.1792e-06	6.8613e-06	325.83	146.94	170.49	95.309	8.8146e-06	81.641	0.00010849	8.7815e-05	2.4651e-05	841.45	9.8993e-07	9.5297e-07	701.64	355.45	9.9291e-07	9.8631e-07	297.29	132.24	156.65	86.848	9.8277e-07	73.405	302.842	123.779	132.362	58.026	186.419	191.121	56.618	62.781	187.645	170.889	59.557	63.408	66.221	69.163	192.236	64.943	-8191	255	
882.881	1	1	0	0	0.30306	0.13009	0.057751	0.15431	0.1691	0.15382	0.26757	0.14001	0.091211	0.16687	0.22877	0.2002	0.20906	0.35602	0.17819	0.21582	0.020833	0.43125	-0.24583	-0.016667	0.42917	-0.38125	0.12292	0.31875	-0.11875	0.49375	-0.045833	-0.066667	0.52292	-0.41458	0.22083	0.16875	280.348	207.928	262.765	61.757	389.845	224.354	284.513	57.414	222.894	323.971	50.769	97.704	297.006	375.872	341.329	351.394	0.0013091	0.00055611	9.7346e-05	903.36	5.6506e-06	7.6809e-06	758.62	385.43	6.3187e-06	5.3376e-06	325.82	146.77	170.43	94.806	8.9856e-06	81.14	0.0001099	8.7493e-05	2.4469e-05	842.15	9.96e-07	9.7836e-07	705.08	356.36	1.0029e-06	9.7174e-07	297.6	132.47	156.49	86.869	9.9273e-07	73.095	301.412	103.953	162.349	58.317	166.998	162.479	56.353	62.690	198.289	174.683	59.205	62.925	65.843	68.686	202.593	64.621	-8191	255	
882.977	1	1	0	0	0.021802	0.34494	0.15661	0.25409	0.26935	0.10214	0.080804	0.18265	0.26743	0.10335	0.2021	0.107	0.31447	0.29703	0.1728	0.42617	-0.041667	0.49375	0.020833	-0.16458	0.63125	-0.26875	0	0.2375	-0.50625	0.54792	0.05	-0.2875	0.2625	-0.2625	0.0125	0.37708	151.310	382.457	337.567	338.261	335.481	265.501	205.003	308.875	115.795	189.437	336.613	133.587	74.907	46.217	50.364	328.433	0.0012468	0.00052668	0.00022245	910.73	5.1004e-06	5.6238e-06	756.16	384.26	6.5547e-06	6.3103e-06	327.63	146.02	170.02	94.55	8.7302e-06	80.858	0.00010909	9.1244e-05	2.4801e-05	843.58	1.0074e-06	9.7473e-07	700.31	355.27	9.7788e-07	9.7456e-07	297.15	131.85	156.15	86.662	9.9529e-07	72.893	299.049	128.750	137.660	58.334	187.727	163.169	56.519	62.480	157.694	152.272	59.430	62.820	65.822	68.941	186.370	64.823	-8191	255	
883.073	1	1	0	0	0.018062	0.20751	0.12544	0.1241	0.026868	0.17508	0.16798	0.23385	0.16234	0.12664	0.11208	0.078863	0.207	0.33493	0.32007	0.38479	-0.064583	0.23542	0.15833	-0.24792	0.64583	-0.32083	-0.32917	0.26042	-0.38125	0.32083	0.21458	-0.4625	0.46667	-0.34583	-0.035417	0.22083	152.723	69.250	317.830	360.723	278.664	278.860	170.193	402.836	361.340	127.878	330.857	344.868	394.505	384.620	107.157	329.516	0.0012797	0.00031686	0.00013433	910.91	4.2755e-06	6.5923e-06	752.84	383.85	6.8343e-06	4.1537e-06	324.15	146.95	171.1	95.16	6.7624e-06	80.967	0.00010854	8.9273e-05	2.4848e-05	841.77	1.0111e-06	9.5404e-07	701.23	355.32	9.8136e-07	9.6494e-07	297.26	132.51	156.55	86.882	1.011e-06	73.121	299.921	97.927	163.779	57.939	141.773	172.541	56.221	62.559	141.758	178.683	58.935	63.045	65.927	68.945	208.742	64.696	-8191	255	
883.170	1	1	0	0	0.20566	0.028821	0.096477	0.39083	0.19236	0.046091	0.17031	0.26592	0.078921	0.32043	0.12864	0.063682	0.19913	0.41702	0.1755	0.28676	0.13125	0.18958	0.26667	-0.25208	0.48958	-0.25625	-0.15208	0.32708	-0.26667	0.0041667	0.35833	-0.6	0.14167	-0.31042	-0.2125	0.29792	362.518	129.893	361.446	323.596	155.886	84.952	317.325	328.880	182.034	340.017	389.677	48.554	385.188	390.647	81.892	352.095	0.0012186	0.00050105	0.00016375	909.73	4.8585e-06	6.5719e-06	759.09	383.48	8.5126e-06	6.7731e-06	328.54	147.09	170.54	94.715	6.3565e-06	81.58	0.00010966	8.6509e-05	2.4455e-05	843.07	1.0003e-06	9.6918e-07	703.69	355.71	9.7868e-07	9.4914e-07	298.81	132.76	156.8	86.872	9.8322e-07	73.583	295.753	135.064	128.773	58.098	212.894	185.560	56.591	62.465	171.999	205.008	59.426	63.178	66.031	69.040	208.458	64.958	-8191	255	
883.266	1	1	0	0	0.30437	0.13405	0.1856	0.19074	0.11756	0.19056	0.19609	0.16712	0.019024	0.23538	0.14305	0.095756	0.37375	0.15802	0.3324	0.079755	0.11458	0.32083	0.57708	-0.38542	0.33542	0.029167	-0.27292	0.325	-0.33125	0.00625	0.12083	-0.4	0.28542	-0.18125	-0.32708	0.47083	199.414	284.264	222.719	130.421	303.466	126.150	110.176	63.660	394.493	287.304	274.100	86.190	307.365	79.633	121.329	268.527	0.0012384	0.00059066	0.00018567	909.19	2.3045e-06	4.5668e-06	760.4	385.4	5.2613e-06	4.4518e-06	328.28	147.72	169.73	94.971	6.0261e-06	81.289	0.00010789	8.6068e-05	2.4285e-05	842.04	9.7606e-07	9.4892e-07	704.75	356.27	9.7056e-07	9.3628e-07	298.65	133.02	156.29	86.847	9.9583e-07	73.403	296.850	81.317	112.332	58.142	178.548	202.630	56.426	62.543	170.160	211.244	59.154	63.109	65.795	69.006	196.415	64.539	-8191	255	
883.385	1	1	0	0	0.11805	0.11256	0.087071	0.21269	0.1629	0.29995	0.18862	0.22546	0.062924	0.19034	0.42606	0.1246	0.17533	0.1556	0.29862	0.16835	0.1625	0.025	0.60208	-0.4625	0.17083	0.47083	-0.51875	0.38542	0.00625	-0.18125	0.46458	-0.125	0.029167	0.275	-0.44167	0.33333	218.217	334.855	134.613	267.834	55.658	255.883	325.983	308.944	322.660	382.488	303.247	370.819	403.995	400.825	366.216	359.238	0.0012077	0.00069695	0.00013038	904.25	6.3947e-06	4.0758e-06	754.82	384.76	6.5642e-06	4.7882e-06	326.87	146.6	169.78	94.537	8.0046e-06	80.357	0.00010835	8.6723e-05	2.4537e-05	838.99	9.4967e-07	9.525e-07	700.23	355.2	9.6152e-07	9.235e-07	296.8	132.33	156.24	86.594	9.7643e-07	72.979	297.247	133.944	124.704	57.851	169.170	198.409	56.407	62.349	203.266	196.395	58.455	62.257	65.182	68.442	205.946	64.190	-8191	255	
883.481	1	1	0	0	0.17611	0.17501	0.2195	0.091038	0.18992	0.17002	0.17856	0.19543	0.3379	0.17402	0.073706	0.24919	0.15677	0.13965	0.17754	0.34803	0.31875	-0.11458	0.45833	-0.25417	0.33958	0.375	-0.43125	0.37292	0.22917	-0.03125	0.52292	-0.42708	-0.052083	0.48958	-0.30625	0.1125	286.462	159.676	207.758	217.563	365.111	70.336	387.087	373.640	159.070	116.089	58.202	54.829	392.216	331.648	319.371	348.525	0.0012422	0.00044563	0.00014132	903.09	6.3021e-06	4.687e-06	751.75	384.82	6.3788e-06	4.3903e-06	326.22	146.75	170.31	94.79	4.8468e-06	81.316	0.00010658	8.6356e-05	2.3673e-05	838.17	9.5083e-07	9.487e-07	698.67	355.35	9.4784e-07	9.1431e-07	296.98	132.66	156.17	86.695	9.4848e-07	73.221	298.263	103.610	165.018	57.697	199.473	221.054	56.272	62.276	173.145	173.562	58.703	62.711	65.340	68.400	184.017	64.178	-8191	255	
883.577	1	1	0	0	0.06653	0.31289	0.19981	0.22424	0.1941	0.33753	0.18184	0.19762	0.28294	0.22955	0.10077	0.12257	0.1776	0.15867	0.12597	0.17714	0.675	-0.085417	0.5	-0.38333	0.17083	0.35417	-0.62292	0.079167	0.25833	-0.32917	0.42083	-0.1375	-0.22083	0.27917	-0.34792	0.18542	227.406	219.269	275.785	344.259	362.996	275.624	243.774	329.474	250.487	364.984	115.200	353.189	322.221	329.313	292.228	189.489	0.0012294	0.00053584	0.00010662	905.25	5.637e-06	7.4452e-06	756.15	385.18	5.2589e-06	5.5495e-06	327.5	147.29	170.3	94.457	7.2758e-06	81.526	0.00010617	8.5218e-05	2.4029e-05	839.8	9.3528e-07	9.2026e-07	701.3	355.46	9.7686e-07	9.1621e-07	298.78	132.79	156.59	86.685	9.7475e-07	73.22	300.244	144.549	108.885	57.721	213.899	184.166	55.927	62.005	157.215	158.617	58.775	62.658	65.361	68.401	212.993	64.064	-8191	255	
883.650	1	1	0	0	0.23583	0.14292	0.18431	0.12375	0.12579	0.26608	0.17055	0.36105	0.14111	0.29553	0.22599	0.20188	0.071731	0.11117	0.13697	0.19121	0.60417	-0.21667	0.41667	-0.16458	-0.1625	0.62292	-0.35625	0.16042	0.27917	-0.3	0.49375	-0.20625	-0.35	0.35	-0.35417	-0.027083	348.244	290.498	271.528	351.417	160.822	231.441	318.066	46.869	316.051	56.981	351.433	229.703	99.148	309.095	205.028	52.803	0.0012098	0.00052229	0.0001603	903.35	5.3157e-06	6.598e-06	756.31	384.53	3.9558e-06	7.0435e-06	328.7	148.59	170.32	94.859	7.0411e-06	81.646	0.0001072	8.5079e-05	2.3705e-05	839.86	9.3601e-07	9.2695e-07	701.64	355.46	9.7e-07	9.0974e-07	299.91	133.71	156.77	86.947	9.525e-07	73.565	300.859	142.328	131.606	57.925	175.532	221.037	55.756	62.236	172.632	195.126	58.950	62.309	65.367	68.597	184.806	64.410	-8191	255	
883.769	1	1	0	0	0.22239	0.22941	0.26535	0.081758	0.28708	0.14362	0.4153	0.13852	0.17082	0.025409	0.17368	0.081813	0.13656	0.29912	0.28606	0.087241	0.62708	-0.32917	0.48542	-0.035417	-0.27083	0.725	-0.3875	0.0625	0.38542	-0.28958	0.35625	0.13542	-0.28125	0.525	-0.091667	-0.17292	332.840	206.672	188.857	126.389	173.264	136.191	369.836	352.124	394.475	401.937	374.204	376.012	403.292	387.266	394.524	87.353	0.0013332	0.00045086	0.00010029	900.45	4.3114e-06	6.4245e-06	755.84	386.6	8.571e-06	2.9144e-06	325.28	146.43	170.26	94.679	5.9531e-06	80.933	0.00010716	8.615e-05	2.4035e-05	838.1	9.3252e-07	9.2953e-07	699.82	355.84	9.1666e-07	9.154e-07	296.6	132.24	156.47	86.513	9.4169e-07	72.902	298.405	93.810	147.705	57.819	156.566	204.940	56.050	62.217	176.095	193.791	58.927	62.613	65.119	68.371	190.606	64.377	-8191	255	
883.865	1	1	0	0	0.081097	0.059151	0.26985	0.2327	0.22973	0.11865	0.22851	0.19656	0.20799	0.14815	0.15535	0.37082	0.29316	0.12461	0.13264	0.28331	0.87708	-0.23958	0.33542	0.10625	-0.10833	0.55833	-0.325	-0.34375	0.48958	-0.20417	0.22292	0.1125	-0.43333	0.34375	0.0375	-0.24792	289.423	403.625	167.824	403.451	192.790	388.094	342.357	343.520	373.325	177.284	104.175	60.154	366.194	399.478	312.555	366.646	0.0012294	0.00044978	0.00021632	899.29	4.7628e-06	5.5815e-06	749.37	382.15	7.6373e-06	5.3045e-06	326.67	146.24	170.03	94.627	6.6048e-06	80.867	0.00010614	8.4526e-05	2.3193e-05	835.58	9.2238e-07	9.4365e-07	695.88	354.1	9.5054e-07	9.0026e-07	296.06	132.06	156.11	86.496	9.3852e-07	73.015	302.445	135.266	120.853	57.837	192.072	177.242	56.372	61.934	149.981	189.597	58.469	62.535	65.403	68.524	181.177	64.257	-8191	255	
883.962	1	1	0	0	0.2528	0.27754	0.088239	0.19175	0.29331	0.13261	0.17499	0.21578	0.0884	0.21425	0.093702	0.16511	0.29826	0.39009	0.066371	0.46452	0.75	-0.23958	0.11875	0.3625	-0.36875	0.4625	-0.28542	-0.32292	0.29375	-0.37083	0.1375	0.32292	-0.44167	0.3375	0.17708	-0.31667	241.359	333.406	201.541	50.471	317.771	393.074	244.700	386.147	259.111	394.862	55.813	61.050	380.809	402.888	281.355	393.759	0.0011642	0.00041519	0.00012044	897.6	5.2096e-06	7.2392e-06	751.25	385.17	6.0319e-06	4.4932e-06	327.92	146.59	170.6	94.65	6.3893e-06	80.8	0.00010525	8.495e-05	2.3368e-05	835.33	9.1085e-07	9.1212e-07	697.63	355.28	9.3941e-07	9.0765e-07	297.56	132.38	156.42	86.488	9.2853e-07	73.12	302.477	151.940	84.065	57.944	187.763	186.257	56.404	62.185	179.806	181.171	58.678	62.816	65.578	68.378	189.954	64.475	-8191	255	
884.058	1	1	0	0	0.10596	0.19384	0.18578	0.20668	0.19147	0.35268	0.23601	0.13328	0.19104	0.086034	0.21319	0.13895	0.28281	0.1781	0.057788	0.16409	0.77708	-0.1875	0.1875	0.28125	-0.32708	0.16667	-0.027083	-0.47292	0.49583	-0.20208	0.05	0.38958	-0.53125	0.0375	0.16458	-0.5375	355.686	149.205	233.170	118.788	147.157	389.045	370.142	310.818	58.745	284.699	226.317	277.743	371.854	360.168	213.689	101.856	0.0011912	0.00049007	0.00017335	904.14	5.0731e-06	7.5671e-06	752.31	385.36	9.1831e-06	5.5308e-06	328.15	147.43	170.75	94.785	5.3062e-06	81.353	0.0001049	8.3293e-05	2.3053e-05	836.45	9.2396e-07	9.2443e-07	698.92	355.6	9.4743e-07	9.0081e-07	297.98	133.24	156.62	86.633	9.4477e-07	73.465	297.493	128.674	145.701	58.045	141.269	183.435	56.422	62.217	175.103	154.670	59.021	62.804	65.490	68.418	153.068	64.369	-8191	255	
884.178	1	1	0	0	0.19573	0.39979	0.01025	0.064498	0.19074	0.050074	0.10938	0.059344	0.27227	0.26337	0.36994	0.20243	0.30306	0.30953	0.14843	0.22234	0.65	-0.13125	0.066667	0.27708	-0.31875	0.22917	0.089583	-0.45417	0.325	-0.025	-0.0083333	0.44375	-0.44583	0.0041667	0.26875	-0.50417	182.884	162.844	359.289	392.584	374.618	152.270	252.467	339.101	251.419	78.308	54.305	157.972	305.625	380.576	340.958	332.024	0.0012319	0.00040995	9.6816e-05	905.24	8.7292e-06	3.0542e-06	755.9	384.89	4.308e-06	5.3769e-06	325.16	146.78	170.72	94.097	5.3558e-06	80.926	0.00010521	8.471e-05	2.3133e-05	837.59	9.2307e-07	9.2986e-07	699.76	355.04	9.5042e-07	9.05e-07	297.08	132.7	156.13	86.319	9.5411e-07	72.966	299.614	83.964	132.324	57.872	193.810	202.252	56.463	62.317	188.050	196.509	58.946	62.657	65.511	68.657	166.461	64.341	-8191	255	
884.274	1	1	0	0	0.27334	0.13867	0.39791	0.21207	0.31597	0.082009	0.091339	0.21736	0.26007	0.1382	0.12032	0.20851	0.075683	0.21969	0.22002	0.16187	0.8125	-0.0375	-0.066667	0.3375	-0.10208	0.05	0.27292	-0.3375	0.38542	-0.1	-0.2875	0.19375	-0.575	-0.12917	0.40208	-0.61042	193.130	356.498	399.088	53.643	354.079	81.222	362.316	387.180	198.002	390.049	152.805	284.605	364.311	389.326	210.772	371.765	0.0013032	0.0004396	0.00019975	903.85	4.8177e-06	5.2905e-06	750.43	381.84	6.6322e-06	7.5523e-06	324.82	145.77	169.6	94.435	8.161e-06	80.98	0.00010501	8.3036e-05	2.3377e-05	835.8	9.474e-07	9.1466e-07	696.07	353.57	9.4201e-07	9.2848e-07	296.44	131.98	155.9	86.497	9.4122e-07	73.07	299.092	109.796	126.086	57.639	160.892	211.331	56.535	62.246	155.662	177.887	58.582	62.694	65.688	68.503	200.694	64.510	-8191	255	
884.371	1	1	0	0	0.23522	0.080947	0.22566	0.17029	0.081205	0.39081	0.18553	0.1494	0.09555	0.019827	0.44383	0.037908	0.22905	0.16233	0.014458	0.16486	0.71667	0.022917	-0.22917	0.39375	-0.27917	-0.10625	0.31667	-0.66875	0.41667	0.1	-0.22708	0.33958	-0.14583	-0.21458	0.46458	-0.48542	304.791	146.231	176.171	392.849	47.610	246.448	400.900	312.710	142.654	253.689	313.274	281.935	330.308	347.945	233.561	61.519	0.0011638	0.00055991	0.00021648	897.55	3.611e-06	2.0965e-06	755.23	383.38	6.1621e-06	8.0766e-06	326.68	147.43	170.1	94.374	8.0425e-06	81.507	0.00010609	8.4329e-05	2.3053e-05	834.02	9.2729e-07	9.1347e-07	697.77	354.37	9.3619e-07	9.1076e-07	297.45	132.58	156.36	86.417	9.3816e-07	73.493	299.131	98.450	132.119	57.641	202.741	227.493	56.239	62.412	163.451	165.013	58.689	62.344	65.601	68.614	199.387	64.194	-8191	255	
884.465	1	1	0	0	0.1953	0.1794	0.22388	0.21009	0.21018	0.051883	0.23476	0.17898	0.12098	0.35792	0.15761	0.18792	0.29122	0.10759	0.098043	0.13993	0.62917	0.3875	-0.14583	0.41042	-0.077083	-0.05	0.4375	-0.28333	0.25417	0.24583	-0.37708	0.49792	-0.27917	-0.475	0.34583	-0.425	125.050	362.230	396.147	372.419	191.247	372.624	322.894	323.954	363.465	205.905	49.218	141.441	367.736	236.222	88.021	341.942	0.001212	0.00034337	0.00013328	899.03	3.3128e-06	6.6086e-06	751.67	384.26	9.7117e-06	3.6136e-06	329.75	147.08	170.7	95.195	8.8257e-06	82.294	0.00010386	8.4961e-05	2.3339e-05	834.3	9.5567e-07	9.0991e-07	699.03	355.54	9.3941e-07	9.25e-07	298.93	132.64	156.76	86.839	9.5014e-07	73.892	304.249	117.103	115.857	57.578	191.357	210.844	56.437	62.249	182.963	178.791	58.797	62.955	65.766	68.537	181.415	64.368	-8191	255	
884.561	1	1	0	0	0.19275	0.32866	0.058203	0.31608	0.13675	0.10276	0.19797	0.28345	0.054514	0.23234	0.23298	0.28877	0.32471	0.31714	0.27571	0.084618	0.43125	0.32083	-0.15	0.49583	0.26667	-0.25833	0.33125	-0.36875	-0.17292	0.32708	-0.525	0.36875	0	-0.67083	0.42708	-0.36458	77.427	347.549	368.096	325.474	214.267	285.137	79.876	380.450	166.707	339.610	303.832	53.678	366.763	378.474	223.766	158.375	0.0011814	0.00035077	0.00014847	901.72	6.7773e-06	5.2318e-06	753.66	385.41	8.2999e-06	4.6927e-06	328.89	147.13	170.89	94.915	4.5405e-06	81.309	0.00010247	8.3922e-05	2.2763e-05	836	9.2727e-07	9.1458e-07	699.61	355.64	9.2362e-07	8.977e-07	298.95	133.2	156.77	86.796	9.2768e-07	73.556	299.327	112.516	143.366	57.918	177.697	187.630	56.108	62.244	157.565	186.288	58.651	62.554	65.824	68.570	207.774	64.647	-8191	255	
884.657	1	1	0	0	0.07395	0.4031	0.1957	0.15167	0.10424	0.09129	0.18439	0.25487	0.2308	0.23101	0.13978	0.13064	0.14341	0.40365	0.057201	0.28231	0.25625	0.475	-0.14583	0.18125	0.10208	-0.3125	0.45	-0.34792	0.083333	0.48958	-0.32083	0.42292	0.11458	-0.51875	0.63333	0.0020833	385.786	371.250	114.459	371.800	320.664	83.136	295.913	293.960	217.849	110.951	125.025	87.569	394.038	385.487	260.010	250.296	0.0012511	0.00043492	0.00014114	901.89	4.2956e-06	3.9759e-06	751.32	384.86	5.0712e-06	6.0714e-06	327.16	146.83	170.47	94.828	7.2608e-06	81.237	0.00010443	8.3059e-05	2.2982e-05	835.11	9.0958e-07	8.985e-07	698.38	355.3	9.2236e-07	9.122e-07	297.96	132.76	156.51	86.753	9.5141e-07	73.516	298.321	114.092	170.273	57.845	193.028	199.459	56.392	62.433	205.300	191.677	59.195	62.790	65.772	68.691	216.741	64.330	-8191	255	
884.778	1	1	0	0	0.12181	0.18012	0.0908	0.19353	0.25426	0.13692	0.2888	0.10215	0.08313	0.33571	0.18237	0.27903	0.11643	0.33686	0.13889	0.29039	0.23542	0.64167	-0.21042	0.26458	0.45208	-0.25	0.32083	0.1125	-0.2375	0.46875	-0.35417	0.14792	0.29167	-0.725	0.40625	0.014583	321.156	291.817	360.243	364.826	323.784	84.140	272.686	379.847	168.323	189.409	390.544	336.270	45.916	389.421	138.272	308.876	0.0012807	0.00044769	0.00015389	898.51	5.8615e-06	6.018e-06	754.65	384.37	5.5914e-06	5.3703e-06	330.5	147.84	170.11	94.579	9.1413e-06	81.693	0.00010159	8.3989e-05	2.2363e-05	836.01	9.0015e-07	8.9888e-07	698.94	355.2	9.1865e-07	9.1111e-07	299.66	133.13	156.47	86.666	9.371e-07	73.687	297.053	112.615	142.813	57.872	222.855	173.082	56.354	62.344	160.797	202.073	59.232	62.515	65.822	68.556	164.184	64.433	-8191	255	
884.874	1	1	0	0	0.14964	0.12047	0.091807	0.30319	0.045784	0.39384	0.25609	0.18196	0.21413	0.26055	0.083788	0.13401	0.42382	0.09793	0.20829	0.13427	0.28542	0.29583	-0.30833	-0.089583	0.53333	-0.41875	0.2	0.13542	-0.46042	0.49792	-0.2125	-0.25417	0.21042	-0.61042	0.41042	0.22917	49.806	66.049	185.116	336.733	180.318	71.709	349.422	255.053	278.249	137.081	297.182	103.182	398.622	346.362	191.856	345.460	0.0012821	0.00057687	0.00023035	899.92	5.5053e-06	5.2377e-06	751.29	384.25	8.7137e-06	6.5855e-06	330.64	148.05	170.89	95.18	8.6726e-06	82.27	0.00010447	8.2711e-05	2.2841e-05	835.73	9.3833e-07	8.8668e-07	699.49	355.71	9.2608e-07	9.0415e-07	300.58	133.47	156.88	86.798	9.2508e-07	74.139	300.799	112.875	132.336	57.766	146.411	208.227	56.719	62.510	176.846	171.503	59.180	62.797	65.686	68.607	206.658	64.812	-8191	255	
884.946	1	1	0	0	0.24327	0.13667	0.069945	0.32459	0.14447	0.047348	0.43824	0.29524	0.096314	0.13757	0.18466	0.14381	0.13374	0.22798	0.029519	0.35946	-0.039583	0.4625	-0.12708	-0.34375	0.38958	-0.29167	0.19792	0.089583	-0.0875	0.4375	-0.03125	-0.24583	0.29167	-0.59792	-0.027083	0.39792	253.069	115.013	126.235	404.355	161.792	253.207	401.761	363.015	366.666	177.273	315.289	68.737	100.212	364.619	331.444	312.072	0.0012741	0.00073966	0.00013443	899.65	6.5179e-06	5.4234e-06	753.23	386.28	6.3113e-06	9.5361e-06	331.39	148.88	170.69	95.12	9.1942e-06	82.188	0.00010363	8.5415e-05	2.3011e-05	837.95	9.4095e-07	8.9688e-07	701.55	356.53	9.2435e-07	9.163e-07	301.91	134.32	156.68	86.93	9.3648e-07	74.092	300.032	119.310	147.712	57.940	164.469	192.852	56.272	62.652	180.471	211.641	59.415	62.872	65.731	68.805	170.921	64.920	-8191	255	
885.042	1	1	0	0	0.089838	0.21436	0.22132	0.31924	0.21199	0.15022	0.27026	0.091001	0.099494	0.12482	0.20843	0.2788	0.13491	0.28499	0.16191	0.097815	-0.14167	0.47292	0.00625	-0.31458	0.52083	-0.27292	-0.18958	0.13542	-0.052083	0.35625	-0.010417	-0.31458	0.34792	-0.2125	-0.016667	0.31458	321.333	176.625	110.889	71.742	326.545	136.065	362.525	81.930	364.472	349.293	282.661	101.129	366.838	45.111	61.290	168.160	0.0012023	0.0003923	0.00014104	901.46	4.4051e-06	7.5025e-06	753.13	386.56	5.1147e-06	5.6778e-06	329.02	147.22	170.73	95.192	8.8107e-06	81.737	0.00010367	8.4266e-05	2.3259e-05	835.08	9.3356e-07	9.2808e-07	698.33	356.09	9.3732e-07	9.0699e-07	299.16	133.09	156.62	86.758	9.5617e-07	73.71	300.003	120.250	140.437	57.842	167.083	194.555	56.252	62.401	191.199	203.998	59.159	62.825	65.592	68.749	204.126	64.478	-8191	255	
885.163	1	1	0	0	0.20198	0.10313	0.035603	0.48887	0.047057	0.095398	0.17564	0.21817	0.31669	0.22164	0.13578	0.13382	0.1356	0.25758	0.36286	0.22477	0.0125	0.48958	0.16875	-0.3625	0.4375	-0.11458	-0.014583	0.35625	-0.4625	0.34167	0.11042	-0.32917	0.27917	-0.53958	-0.025	0.53542	373.746	300.992	330.413	404.054	230.919	114.506	353.247	292.543	70.640	364.194	400.530	277.030	328.620	347.759	361.432	323.473	0.0012389	0.00039398	0.00017099	898.36	2.7009e-06	8.3918e-06	748.97	384.9	7.2217e-06	4.7849e-06	328.43	148.09	170.32	95.049	9.851e-06	82.249	0.00010282	8.4031e-05	2.3482e-05	833.01	9.3193e-07	9.1964e-07	697.4	355.15	9.4092e-07	9.1986e-07	299.11	133.65	156.65	87.016	9.6535e-07	73.985	308.395	116.086	150.681	57.915	179.095	188.331	56.035	62.394	172.582	189.255	58.992	62.727	65.739	68.770	187.352	64.530	-8191	255	
885.259	1	1	0	0	0.12145	0.10981	0.077048	0.26063	0.10963	0.17167	0.21515	0.26033	0.11664	0.16216	0.14424	0.32559	0.29345	0.26371	0.2573	0.086609	0.041667	0.1875	0.30208	-0.59792	0.52917	0.029167	-0.2875	0.29583	-0.23542	0.15833	0.26667	-0.39375	0.34792	-0.047917	-0.31042	0.53333	192.349	162.131	112.195	72.268	385.862	211.137	368.700	398.031	83.936	150.914	327.678	344.894	82.457	73.755	335.860	324.287	0.0012222	0.00073238	7.5958e-05	897.38	6.4997e-06	4.3401e-06	751.24	384.26	5.8743e-06	6.2019e-06	327.53	148.27	170.2	95.076	7.3354e-06	82.27	0.00010396	8.2925e-05	2.3349e-05	833.59	9.3908e-07	9.2066e-07	697.09	355.05	9.4682e-07	9.0519e-07	300.07	134.46	156.68	86.98	9.4708e-07	74.21	299.973	92.064	112.277	58.125	232.715	192.386	56.459	62.514	168.407	178.091	58.948	63.206	65.685	68.756	205.897	64.489	-8191	255	
885.355	1	1	0	0	0.24612	0.27636	0.067433	0.20378	0.38778	0.2541	0.065061	0.12326	0.19146	0.1367	0.31834	0.28421	0.096509	0.27551	0.32325	0.26971	0.2125	0.010417	0.3375	-0.45	0.39583	0.15417	-0.22292	0.30833	-0.225	0.29583	0.375	-0.72917	0.060417	-0.054167	-0.23125	0.49792	398.959	88.203	257.621	82.408	159.521	206.660	93.516	370.793	243.041	125.792	71.735	46.136	162.554	62.643	108.599	76.230	0.0012199	0.00060184	7.6401e-05	899.35	4.4505e-06	9.2318e-06	754.96	385.39	6.1572e-06	7.0651e-06	332.39	149.17	171.48	95.097	1.0216e-05	82.228	0.00010448	8.4679e-05	2.382e-05	836.46	9.5083e-07	9.162e-07	700.44	355.83	9.627e-07	9.341e-07	301.67	134.64	157.08	87.052	9.5922e-07	74.314	296.519	115.845	126.412	57.935	134.707	212.839	56.442	62.345	162.034	171.448	58.752	62.880	65.784	68.836	204.945	64.704	-8191	255	
885.451	1	1	0	0	0.036951	0.091412	0.11102	0.14909	0.15715	0.23008	0.21868	0.27494	0.2463	0.31608	0.12101	0.27291	0.20028	0.30695	0.37403	0.044221	0.0375	-0.058333	0.4875	-0.39375	0.32917	0.39792	-0.6125	0.26667	-0.11667	-0.041667	0.46667	-0.46875	0.14167	-0.014583	-0.13958	0.31875	55.434	228.473	316.878	321.528	378.633	127.886	309.458	50.576	263.509	201.973	194.345	319.383	63.258	379.755	271.355	400.171	0.0012602	0.00051851	0.00021507	901.69	4.0306e-06	5.3231e-06	749.64	385.93	3.5215e-06	6.4979e-06	325.56	147.4	169.75	94.971	1.1093e-05	81.61	0.00010583	8.6734e-05	2.4218e-05	834.97	9.5366e-07	9.0334e-07	696.9	354.78	9.4128e-07	9.1993e-07	298.54	133.16	156.17	86.704	9.5503e-07	73.722	297.087	148.385	133.376	58.310	168.950	176.014	56.108	62.412	170.517	154.740	59.156	62.548	65.682	68.763	198.369	64.759	-8191	255	
885.547	1	1	0	0	0.083572	0.08776	0.15914	0.26906	0.26853	0.10063	0.14783	0.070494	0.27691	0.39495	0.12836	0.18326	0.1858	0.1723	0.1892	0.16957	0.36458	-0.21042	0.75833	-0.40417	0.15	0.2375	-0.44167	0.37708	-0.060417	-0.28125	0.50417	-0.34792	0	0.13125	-0.12083	0.175	135.721	123.181	216.280	369.256	251.825	237.692	251.106	140.650	109.296	380.622	257.686	316.004	378.679	393.903	234.623	397.607	0.0012661	0.0006918	0.00010561	893.62	9.2589e-06	5.69e-06	752.7	381.58	7.2878e-06	6.5563e-06	327.39	146.3	170.41	94.648	6.1057e-06	81.478	0.00010628	8.3183e-05	2.3911e-05	833.57	9.5558e-07	9.236e-07	695.62	353.5	9.534e-07	9.2924e-07	296.67	132.71	156	86.643	9.6786e-07	73.393	303.159	112.898	161.686	58.434	184.767	224.479	56.302	62.050	135.036	168.670	59.396	62.843	65.730	68.631	186.717	64.275	-8191	255	
885.642	1	1	0	0	0.19019	0.17789	0.187	0.20828	0.098764	0.21842	0.19063	0.31341	0.049512	0.21461	0.26504	0.093944	0.47699	0.0951	0.17231	0.3052	0.36458	-0.14167	0.63542	-0.23333	0.25	0.56875	-0.2875	0.24792	0.28125	-0.34583	0.52917	-0.20208	-0.08125	0.33542	-0.22292	0.28542	188.997	186.267	371.173	377.618	283.638	95.972	105.351	341.460	116.707	200.801	200.879	381.494	51.167	302.963	331.011	340.086	0.0013877	0.00043718	0.00018758	895.09	6.1207e-06	5.1462e-06	747.6	383.45	9.1398e-06	7.6568e-06	327	147.4	169.41	94.82	7.9765e-06	81.449	0.00010821	8.4405e-05	2.3367e-05	832.27	9.2805e-07	9.3591e-07	696.02	353.8	9.7322e-07	9.3701e-07	297.67	133.21	156.2	86.542	9.6644e-07	73.648	299.279	110.806	153.369	58.210	194.407	184.027	56.689	62.221	172.904	152.460	59.004	62.897	65.642	68.880	185.933	64.575	-8191	255	
885.739	1	1	0	0	0.027191	0.13326	0.26419	0.27287	0.53777	0.16397	0.18317	0.14649	0.29674	0.060106	0.14554	0.15584	0.21337	0.31752	0.2381	0.099632	0.62083	-0.50417	0.75	-0.325	-0.03125	0.33333	-0.3125	-0.03125	0.35833	-0.31667	0.26875	-0.12083	-0.51042	0.30417	-0.30833	-0.029167	139.150	50.411	110.037	381.172	377.246	286.927	376.532	147.098	311.044	237.514	332.148	375.890	379.698	384.615	107.879	379.547	0.001302	0.0002624	0.00017547	898.73	3.6272e-06	4.5737e-06	755.18	384.82	9.7454e-06	7.8064e-06	328.88	147.61	170.29	94.92	7.6213e-06	81.902	0.00010675	8.5397e-05	2.3802e-05	833.51	9.5387e-07	9.506e-07	698.1	354.6	9.5039e-07	9.3071e-07	299.14	133.35	156.26	86.611	9.5002e-07	73.879	297.643	108.957	137.310	58.324	179.659	217.910	56.452	62.586	152.213	168.109	59.141	63.083	65.857	68.692	223.224	64.735	-8191	255	
885.858	1	1	0	0	0.2526	0.11587	0.17077	0.062697	0.33972	0.1129	0.13019	0.22016	0.21029	0.11846	0.18522	0.18638	0.19302	0.23202	0.28437	0.036485	0.7125	-0.425	0.35625	-0.10417	-0.18333	0.43333	-0.55417	0.060417	0.48542	-0.4125	0.19167	0.175	-0.52083	0.23125	-0.15625	-0.1125	252.371	355.129	345.227	128.290	375.257	74.804	306.700	399.169	95.545	187.539	382.646	390.750	69.471	377.254	324.676	265.038	0.0012832	0.00039659	0.0002215	897.99	7.0243e-06	7.0747e-06	749.57	382.97	1.1035e-05	2.4281e-06	325.72	146.55	169.9	94.192	9.0838e-06	81.391	0.0001074	8.277e-05	2.3616e-05	832.81	9.2373e-07	9.4211e-07	696.32	353.78	9.3751e-07	9.095e-07	297.13	132.68	155.73	86.32	9.6107e-07	73.359	298.557	65.691	125.581	57.989	165.633	181.517	56.607	62.431	168.709	156.320	59.236	63.279	65.675	68.684	187.904	64.781	-8191	255	
885.954	1	1	0	0	0.047586	0.22638	0.33474	0.20936	0.21008	0.20244	0.163	0.22802	0.35539	0.19997	0.19213	0.13541	0.2674	0.23327	0.25254	0.29091	0.725	-0.38333	0.41042	0.08125	-0.45625	0.36458	-0.19583	-0.25208	0.43125	-0.48542	0.079167	0.20208	-0.50208	0.35625	-0.32708	-0.1875	262.373	306.115	73.369	125.177	200.577	193.511	356.492	356.489	252.653	337.260	119.850	374.435	67.007	382.864	210.869	352.403	0.0012676	0.00078469	0.00012571	891.15	4.7519e-06	5.2933e-06	748.25	381.65	5.1343e-06	8.2643e-06	324.53	146.45	169.63	94.074	7.1593e-06	80.66	0.00010535	8.4506e-05	2.3824e-05	829.18	9.2841e-07	9.226e-07	692.41	352.52	9.6e-07	9.1069e-07	295.13	131.87	155.38	86.092	9.5215e-07	72.973	302.347	99.004	124.047	58.054	169.811	216.668	56.345	62.682	129.334	178.325	59.190	63.010	65.836	68.748	175.117	64.569	-8191	255	
886.051	1	1	0	0	0.2404	0.12979	0.17665	0.059721	0.070164	0.029753	0.39063	0.37184	0.058479	0.15759	0.43274	0.080131	0.32058	0.50859	0.34995	0.16205	0.79167	-0.2625	0.16458	0.18958	-0.25417	0.28125	-0.20417	-0.31458	0.63333	-0.2	-0.047917	0.22083	-0.73958	0.016667	0.2	-0.52917	279.724	245.462	364.317	48.338	101.232	63.522	357.958	373.538	54.163	381.180	389.764	277.689	373.430	366.039	214.716	50.937	0.0012685	0.00030648	0.00016865	897.54	4.9908e-06	6.1158e-06	746.16	381.43	7.797e-06	4.1819e-06	324.98	146.89	169.43	94.213	8.8696e-06	80.883	0.00010427	8.4493e-05	2.4062e-05	830.46	9.2566e-07	9.3836e-07	691.46	352.71	9.8337e-07	9.2059e-07	295.79	132.51	155.49	86.085	9.6348e-07	73.047	295.381	113.349	121.324	58.397	183.751	200.742	56.528	62.512	204.146	174.424	59.257	62.946	65.805	68.815	186.837	64.745	-8191	255	
886.171	1	1	0	0	0.33106	0.1075	0.26188	0.26299	0.084813	0.10797	0.09801	0.1676	0.23226	0.038843	0.12539	0.18052	0.15773	0.23298	0.14459	0.25751	0.64167	-0.3875	0.22083	0.39792	-0.22708	0.28333	0.0875	-0.57917	0.59167	-0.11875	-0.020833	0.50625	-0.56042	0.075	0.24167	-0.46458	359.298	203.270	239.283	292.306	273.170	309.956	320.577	154.832	332.021	236.338	208.228	374.595	338.253	374.191	161.156	340.356	0.0013386	0.00067044	0.00015714	895.75	2.9802e-06	3.784e-06	744.84	382.66	5.7759e-06	2.5638e-06	325.66	146.55	170.56	94.104	6.4836e-06	81.249	0.00010537	8.5445e-05	2.3662e-05	831.31	9.3885e-07	9.3587e-07	692.67	352.95	9.5162e-07	9.046e-07	296.98	132.86	156.1	86.175	9.5574e-07	73.418	301.055	117.163	124.447	58.219	181.538	199.726	56.975	62.658	162.311	172.746	59.093	63.388	65.954	68.791	199.662	64.910	-8191	255	
886.243	1	1	0	0	0.094415	0.11814	0.048976	0.15322	0.19961	0.18544	0.21975	0.26795	0.1104	0.056997	0.23401	0.068753	0.15975	0.30383	0.37839	0.13229	0.69583	0.020833	-0.01875	0.63542	-0.32083	0.09375	0.28333	-0.55833	0.56667	-0.060417	-0.27917	0.41875	-0.44792	0.00625	0.29792	-0.42292	127.848	376.773	65.088	304.511	334.459	123.850	57.578	89.788	364.608	89.037	74.012	65.427	364.445	334.424	370.617	48.023	0.001252	0.00041986	0.00010647	894.15	6.6968e-06	6.2792e-06	747.42	382.11	7.4103e-06	4.9626e-06	323.37	146.7	169.26	94.089	9.3705e-06	80.846	0.00010496	8.6918e-05	2.3078e-05	829.91	9.3311e-07	9.1207e-07	693.38	352.76	9.4286e-07	9.2244e-07	294.93	132.49	155.28	85.948	9.7524e-07	72.882	299.064	121.779	124.736	58.252	161.867	187.565	56.682	62.625	172.478	188.270	59.157	63.161	66.077	68.979	192.269	64.829	-8191	255	
886.339	1	1	0	0	0.32977	0.17939	0.19611	0.27529	0.19416	0.17489	0.11344	0.10212	0.23282	0.048396	0.31224	0.18994	0.16836	0.28368	0.25701	0.27389	0.79167	0.066667	-0.1125	0.20417	-0.375	0.19167	0.15208	-0.65417	0.30417	0.047917	-0.22083	0.44792	-0.59583	-0.091667	0.49375	-0.49583	307.176	210.041	82.479	347.546	348.923	274.207	350.478	314.807	104.879	265.633	65.997	322.228	356.605	404.077	277.891	393.548	0.0011271	0.00032136	0.00017453	888.99	3.2676e-06	5.4255e-06	743.17	379.96	7.8716e-06	4.2033e-06	321.8	145.68	169.32	93.332	9.2107e-06	80.67	0.00010399	8.2188e-05	2.3247e-05	826.12	9.014e-07	9.1245e-07	688.07	351.27	9.4343e-07	9.3658e-07	293.54	131.61	155.11	85.597	9.3589e-07	72.654	299.514	115.191	132.520	58.246	197.349	193.771	56.557	62.708	163.079	177.655	59.320	63.071	65.933	68.827	193.956	64.894	-8191	255	
886.460	1	1	0	0	0.15928	0.18169	0.096264	0.37738	0.078848	0.17568	0.17748	0.25784	0.073604	0.1131	0.076687	0.14171	0.18742	0.36091	0.20138	0.16332	0.8875	0.2375	-0.12708	0.5125	-0.20417	0.022917	0.41042	-0.53125	0.38958	0.13125	-0.45	0.40833	-0.54375	-0.40833	0.42917	-0.32917	306.950	61.789	385.763	367.182	298.074	128.530	348.764	319.051	134.778	301.531	146.930	102.821	87.839	379.263	239.545	360.959	0.0011623	0.00050251	0.00012077	887.5	6.4703e-06	5.2791e-06	741.45	381.98	6.9194e-06	4.8417e-06	321.82	145.92	168.26	93.729	1.0242e-05	80.709	0.00010472	8.3663e-05	2.2914e-05	826.31	9.3228e-07	9.0554e-07	686.93	351.85	9.3953e-07	9.1164e-07	293.45	131.68	154.83	85.784	9.398e-07	72.716	301.799	98.793	154.174	58.263	159.146	191.775	56.801	62.863	177.072	183.660	59.398	62.796	65.863	68.786	211.919	64.828	-8191	255	
886.554	1	1	0	0	0.17766	0.066205	0.24946	0.072988	0.17601	0.055467	0.21716	0.025501	0.10994	0.033379	0.18175	0.28928	0.10989	0.42174	0.41159	0.12289	0.54792	0.28958	-0.175	0.35833	0.12292	-0.11667	0.37708	-0.47708	0.12083	0.47917	-0.34583	0.375	-0.15	-0.36458	0.55833	-0.30417	284.165	167.245	84.374	362.280	57.911	152.985	318.015	301.663	192.370	80.884	347.101	390.767	346.901	377.544	331.705	299.612	0.0012302	0.00041094	0.00013624	889.4	4.3442e-06	8.1677e-06	742.59	379.44	7.185e-06	4.7854e-06	325.22	146.52	168.75	93.935	9.1709e-06	81.001	0.00010475	8.1917e-05	2.2919e-05	825.6	9.1747e-07	8.9264e-07	688.42	351.63	9.1971e-07	9.0484e-07	295.21	132.16	155.15	85.996	9.4285e-07	73.029	298.867	115.073	121.414	58.172	155.069	231.852	56.899	62.531	186.927	196.802	59.194	63.318	66.296	68.921	179.192	65.206	-8191	255	
886.650	1	1	0	0	0.2	0.22891	0.26795	0.047552	0.19242	0.10608	0.22311	0.078107	0.055348	0.18066	0.18973	0.04749	0.2495	0.2333	0.21288	0.29351	0.55417	0.31875	-0.36875	0.4375	0.014583	-0.23125	0.4125	-0.19167	0.0375	0.54167	-0.49375	0.25208	0.00625	-0.51875	0.55208	-0.21042	70.017	235.423	46.209	345.295	198.176	395.003	364.827	335.866	129.932	292.548	289.962	170.699	352.271	402.489	249.275	349.346	0.001313	0.00090346	0.00010113	888.69	5.4482e-06	6.4695e-06	743.55	381.43	9.0932e-06	7.196e-06	324.98	146.13	169.47	93.754	8.6803e-06	81.314	0.00010258	8.2854e-05	2.2462e-05	826.06	9.1277e-07	8.9292e-07	689.87	351.99	9.106e-07	9.0308e-07	295.64	132.17	155.2	85.883	9.2117e-07	73.078	304.110	126.975	154.835	58.420	176.038	199.993	57.051	63.130	181.661	158.907	59.800	63.540	66.204	69.195	183.010	65.033	-8191	255	
886.746	1	1	0	0	0.24514	0.096882	0.34094	0.14297	0.040977	0.18608	0.10111	0.33539	0.15476	0.14703	0.14099	0.31314	0.08284	0.24887	0.16908	0.23943	0.12292	0.56458	-0.25625	0.35417	0.16875	-0.4375	0.47292	-0.32292	0.00625	0.59375	-0.36042	0.19583	0.2125	-0.46042	0.52917	-0.14167	166.304	246.710	118.844	123.000	270.550	402.264	228.531	302.401	251.043	190.130	382.869	51.934	191.548	85.432	48.690	350.500	0.0012451	0.00071953	0.00016174	890.08	5.6807e-06	3.3185e-06	739.83	382.37	8.2761e-06	4.1249e-06	324.82	145.82	168.38	93.967	4.3185e-06	80.69	0.00010234	8.224e-05	2.2854e-05	826.32	9.0561e-07	8.5847e-07	686.78	351.5	9.2106e-07	8.9451e-07	294.46	131.35	154.87	85.688	9.3326e-07	72.602	297.421	105.504	151.306	58.695	196.985	239.860	57.193	63.311	153.687	166.622	59.903	63.314	66.493	69.416	220.082	65.270	-8191	255	
886.843	1	1	0	0	0.16258	0.19791	0.26336	0.04169	0.10468	0.2917	0.20644	0.22837	0.2414	0.028394	0.28402	0.1587	0.41384	0.26611	0.12744	0.05126	0.27292	0.71458	0.020833	0.035417	0.425	-0.125	0.5375	-0.13125	-0.30417	0.60208	-0.36458	0.014583	0.11667	-0.57917	0.575	-0.020833	55.323	182.745	288.386	117.016	340.037	378.481	53.457	339.976	401.815	308.653	321.357	114.651	386.860	55.003	280.078	337.333	0.0011804	0.00049095	0.00020465	892.84	5.8135e-06	6.5633e-06	735.65	380.71	7.3519e-06	2.8226e-06	323.93	146.71	168.25	93.603	5.8234e-06	80.767	0.00010183	8.2212e-05	2.2726e-05	824.84	9.0861e-07	8.766e-07	683.77	351.11	9.0546e-07	9.0474e-07	294.81	131.76	154.51	85.676	9.2725e-07	72.868	298.292	103.220	123.395	58.868	157.596	191.907	56.698	63.302	164.496	193.464	60.191	63.661	66.509	69.188	192.984	65.096	-8191	255	
886.939	1	1	0	0	0.059178	0.25233	0.31554	0.034628	0.23828	0.12103	0.1724	0.31133	0.30294	0.14828	0.16363	0.28363	0.18511	0.039564	0.13713	0.28391	0.23333	0.47917	-0.05625	-0.18125	0.57708	-0.48958	0.37917	-0.045833	-0.097917	0.43958	-0.275	-0.2625	0.45208	-0.60417	0.58542	0.091667	172.259	45.926	155.723	373.451	392.137	94.820	279.820	380.678	296.480	104.501	59.072	383.793	66.517	346.086	160.161	349.607	0.0011467	0.00063446	0.00019018	887.52	4.3061e-06	3.3545e-06	740.8	379.63	7.2393e-06	5.3405e-06	323.67	146.2	168.88	93.694	7.5973e-06	81.192	0.00010199	8.1279e-05	2.2686e-05	824.57	9.0235e-07	8.6998e-07	687.14	350.76	9.0996e-07	8.8477e-07	295.13	131.8	154.89	85.642	9.0418e-07	73.034	297.131	113.750	134.943	58.825	167.201	176.443	57.029	63.168	159.822	200.317	60.033	63.540	66.636	69.457	227.927	65.393	-8191	255	
887.035	1	1	0	0	0.16101	0.074441	0.28719	0.21494	0.16845	0.15912	0.21558	0.049026	0.068558	0.10555	0.18716	0.37691	0.11916	0.32961	0.24451	0.070231	-0.079167	0.55208	-0.072917	-0.27292	0.49792	-0.14167	0.23125	-0.016667	-0.21667	0.36875	-0.16042	-0.20625	0.59583	-0.3625	0.19792	0.12917	344.847	224.593	364.824	99.204	238.106	260.928	351.731	198.873	68.020	393.862	248.358	347.399	350.161	49.625	144.698	130.631	0.0012168	0.00052914	9.3121e-05	894.31	6.5075e-06	4.8187e-06	739.37	379.83	9.3986e-06	6.5645e-06	324.62	145.98	168.17	93.432	7.7448e-06	81.083	0.00010056	8.2499e-05	2.238e-05	826.32	9.0506e-07	8.701e-07	687.63	351.55	9.1512e-07	9.2571e-07	295.63	132.09	154.66	85.815	9.1973e-07	72.982	300.090	152.997	142.789	58.755	188.772	208.140	57.092	63.205	176.504	155.602	59.887	63.841	66.487	69.408	180.510	65.212	-8191	255	
887.131	1	1	0	0	0.21015	0.25702	0.12208	0.29944	0.11976	0.1578	0.020635	0.1763	0.30788	0.20556	0.40603	0.40239	0.26642	0.25242	0.088891	0.12666	0.13333	0.45833	-0.079167	-0.33542	0.58125	-0.28125	0.066667	0.2	-0.44583	0.50208	0.1	-0.3	0.34167	-0.30208	0.17292	0.275	397.115	309.832	52.506	58.058	322.382	268.719	271.597	324.932	401.248	146.591	373.780	63.293	54.154	56.471	169.361	314.949	0.0012457	0.0002771	0.00013798	886.69	8.1617e-06	5.2716e-06	740.24	381.07	7.6681e-06	6.01e-06	319.42	144.72	168.03	93.085	1.0132e-05	80.193	0.00010228	8.2936e-05	2.2168e-05	823.32	8.976e-07	8.7408e-07	686.23	350.89	9.2731e-07	8.7726e-07	292.79	131.33	154.3	85.33	9.0738e-07	72.303	293.937	67.976	170.757	58.579	187.067	175.225	57.041	63.147	170.201	204.940	60.298	63.971	66.257	69.573	209.105	65.119	-8191	255	
887.252	1	1	0	0	0.30922	0.39042	0.14145	0.22069	0.33183	0.15015	0.19989	0.33425	0.081111	0.31189	0.16289	0.022459	0.09781	0.087405	0.21827	0.086947	-0.077083	0.46042	0.10417	-0.3625	0.56667	-0.14375	-0.1	0.30833	-0.26458	0.375	0.33542	-0.34375	0.48333	-0.31667	-0.075	0.22917	380.280	163.361	211.373	360.322	248.051	300.734	206.047	368.824	131.856	292.016	79.286	184.849	264.974	344.906	358.566	382.656	0.0012886	0.00073229	0.00012083	886.77	6.0892e-06	6.849e-06	735.91	378.38	6.8036e-06	3.5757e-06	322.62	145.12	167.62	93.207	6.8656e-06	80.406	0.00010118	8.2899e-05	2.2124e-05	823.33	9.1463e-07	8.9024e-07	683.2	349.87	9.0096e-07	8.9088e-07	292.97	131.11	154.37	85.362	9.1852e-07	72.503	294.176	117.237	120.449	58.784	166.382	184.824	57.162	63.139	174.153	160.770	59.770	63.743	66.563	69.313	197.407	65.340	-8191	255	
887.348	1	1	0	0	0.13891	0.17564	0.090935	0.31143	0.052934	0.19727	0.095576	0.18333	0.093386	0.069563	0.29632	0.17386	0.1994	0.54827	0.20088	0.19507	0.0125	0.33333	0.37708	-0.65208	0.60208	0.0041667	-0.39583	0.53958	-0.21458	0.0020833	0.23125	-0.37083	0.20417	-0.11458	-0.15208	0.54792	199.569	72.221	294.519	63.066	351.123	244.869	366.703	71.128	378.647	76.973	375.544	74.991	57.104	373.796	138.196	331.721	0.0013418	0.00046791	0.00010262	886.07	5.9343e-06	5.7927e-06	732.81	377.84	6.2568e-06	7.7745e-06	321.63	145.11	168.39	93.315	5.7603e-06	80.758	0.0001031	8.0587e-05	2.2217e-05	822.98	9.0922e-07	8.7247e-07	683.44	349.86	8.833e-07	8.9595e-07	293.84	131.49	154.59	85.533	8.923e-07	72.846	296.078	113.274	164.925	58.850	187.268	197.052	57.621	63.313	178.428	178.635	59.901	63.654	66.685	69.624	204.920	64.791	-8191	255	
887.444	1	1	0	0	0.13778	0.080779	0.076985	0.27341	0.036085	0.067411	0.27056	0.14628	0.18203	0.21492	0.23359	0.056877	0.065538	0.32735	0.060618	0.10383	0.22083	0.275	0.33333	-0.64792	0.4875	0.097917	-0.30417	0.33333	-0.20417	0.15625	0.44167	-0.65833	0.2	-0.06875	-0.45	0.28333	227.339	250.280	315.821	356.897	101.022	353.315	385.497	158.881	265.273	267.957	273.945	384.059	104.592	359.987	201.500	337.002	0.0012463	0.0002487	0.00012921	890.24	4.7446e-06	3.3426e-06	738.24	379.7	7.465e-06	3.3423e-06	322.41	146.7	168.52	93.829	9.1687e-06	81.055	0.00010195	8.0434e-05	2.2214e-05	824.66	8.9944e-07	8.7807e-07	685.46	350.61	9.0688e-07	8.8998e-07	294.91	132.52	154.85	85.783	9.358e-07	73.027	298.237	106.811	152.156	58.402	136.737	216.227	56.628	62.821	194.417	220.199	59.282	63.145	66.099	69.040	197.485	64.674	-8191	255	
887.540	1	1	0	0	0.31605	0.20541	0.05183	0.2557	0.16882	0.32715	0.40964	0.33868	0.073702	0.20736	0.45002	0.19362	0.27578	0.052627	0.24457	0.066778	0.18333	-0.31667	0.6125	-0.60833	0.13333	0.22083	-0.43542	0.079167	-0.11458	-0.12292	0.43333	-0.66667	0.17708	-0.016667	-0.30833	0.38542	228.036	210.962	310.592	368.486	358.102	226.478	109.819	367.450	94.732	314.900	326.734	330.565	351.245	326.729	132.923	329.193	0.0011818	0.00058271	0.0001808	889.07	3.7516e-06	4.6841e-06	737.59	379.21	3.131e-06	2.5634e-06	321.43	145.38	167.43	93.362	9.2997e-06	80.251	9.9977e-05	8.2157e-05	2.2586e-05	825.1	9.0131e-07	8.565e-07	684.08	349.66	9.1741e-07	8.8038e-07	292.63	131.37	153.96	85.331	9.1982e-07	72.384	297.503	131.288	141.866	58.740	148.355	186.952	56.805	62.696	141.180	129.670	59.565	63.225	66.162	69.141	198.579	64.872	-8191	255	
887.634	1	1	0	0	0.30034	0.20186	0.21788	0.27764	0.2209	0.056898	0.19412	0.17979	0.12923	0.17502	0.21189	0.21132	0.27001	0.10305	0.16802	0.15004	0.27292	-0.0020833	0.52083	-0.39583	0.2	0.41042	-0.34375	0.29583	0.16458	-0.14583	0.32083	-0.43333	0.027083	0.12292	-0.24792	0.22708	158.221	342.847	296.204	66.149	378.107	319.933	160.705	81.700	287.886	150.773	135.405	309.645	362.302	101.494	86.237	329.650	0.0012557	0.00040095	6.3241e-05	889.12	5.6607e-06	6.6209e-06	733.61	377.13	7.6186e-06	4.5231e-06	320.98	145.13	167.81	93.383	6.7378e-06	80.48	0.00010193	7.9562e-05	2.1958e-05	822.36	9.0679e-07	8.8011e-07	680.69	348.6	8.8292e-07	8.457e-07	292.05	130.89	154.04	85.352	9.2543e-07	72.395	299.026	118.375	114.792	58.394	174.179	157.740	56.736	62.792	173.098	183.281	59.705	63.452	66.172	69.434	199.272	65.041	-8191	255	
887.732	1	1	0	0	0.1737	0.10557	0.19572	0.41897	0.38628	0.1097	0.10563	0.12458	0.26552	0.21816	0.082637	0.1745	0.17857	0.17178	0.12202	0.38217	0.35625	-0.17083	0.53542	-0.26875	0.089583	0.53958	-0.50417	0.24375	0.30625	-0.3875	0.48333	-0.2625	-0.34167	0.12917	-0.51458	0.05625	157.712	303.372	348.493	404.001	157.174	228.035	377.130	138.272	153.328	60.905	123.064	55.902	389.664	369.793	104.648	326.849	0.0012924	0.00027049	0.0001063	887.28	3.448e-06	3.9336e-06	731.86	376.17	9.4097e-06	5.3767e-06	321.17	145.52	166.95	92.833	8.443e-06	80.334	0.00010067	8.0756e-05	2.2328e-05	822.25	8.6936e-07	8.8955e-07	681.13	348.28	8.89e-07	8.4608e-07	292.27	131.36	153.69	85.154	8.8894e-07	72.619	301.200	140.962	132.682	58.858	171.216	209.564	56.929	63.160	170.870	217.818	59.848	63.705	66.279	69.506	195.988	65.349	-8191	255	
887.851	1	1	0	0	0.20553	0.057291	0.13061	0.18554	0.3161	0.069568	0.080654	0.2509	0.12617	0.22315	0.32081	0.11579	0.11902	0.087333	0.34451	0.094209	0.5375	-0.33333	0.43542	-0.27083	-0.10833	0.47708	-0.56667	0.05	0.2375	-0.5	0.37083	0.079167	-0.3125	0.39792	-0.25	0.0875	61.641	395.303	247.220	66.016	231.960	282.900	120.624	386.910	360.970	362.144	53.376	306.655	45.181	114.788	198.695	335.915	0.0012689	0.00041375	0.00021341	881.33	6.1044e-06	6.7395e-06	734.22	377.78	5.325e-06	7.1922e-06	323.44	146.64	167.65	93.281	7.6387e-06	80.708	0.00010048	8.0308e-05	2.2493e-05	822.79	9.0031e-07	8.855e-07	683.37	348.88	8.9902e-07	8.6288e-07	293.67	131.9	154.37	85.364	9.0996e-07	72.84	294.324	112.859	143.335	58.922	169.062	210.235	57.301	63.111	145.919	184.245	59.695	63.537	66.375	69.782	213.622	65.219	-8191	255	
887.947	1	1	0	0	0.12249	0.055994	0.16796	0.14319	0.15315	0.18307	0.16921	0.27659	0.059004	0.19805	0.25266	0.068753	0.18275	0.096165	0.14826	0.36667	0.72708	-0.43958	0.5125	0.0041667	-0.29167	0.40417	-0.30417	-0.1875	0.36875	-0.28125	0.029167	0.091667	-0.44792	0.44375	-0.25833	-0.30833	190.159	101.471	290.283	204.984	238.060	78.662	194.644	392.806	364.762	153.659	381.138	330.831	257.684	101.077	293.056	337.671	0.0012519	0.0005782	0.00013998	888.35	7.183e-06	5.8106e-06	739.04	376.85	4.9759e-06	3.3459e-06	319.92	145.22	168.31	93.324	8.6451e-06	80.033	0.00010233	7.9696e-05	2.2363e-05	823.85	9.0383e-07	8.849e-07	682.67	348.72	9.0806e-07	8.7489e-07	291.9	130.83	154.1	85.227	9.2077e-07	72.171	298.219	132.161	170.143	58.832	182.318	193.449	57.202	63.008	161.773	151.353	59.584	63.666	66.180	69.361	176.335	64.940	-8191	255	
888.044	1	1	0	0	0.099434	0.12035	0.12174	0.080875	0.22131	0.11725	0.29177	0.40691	0.073154	0.35249	0.12774	0.061892	0.29894	0.40982	0.24964	0.15341	0.95	-0.34375	0.47917	0.18125	-0.44792	0.52917	-0.25625	-0.14583	0.48958	-0.26042	0.13333	0.22083	-0.4375	0.16042	-0.066667	-0.1625	386.817	143.505	372.265	303.300	298.270	302.852	373.229	51.159	158.651	121.658	404.136	121.552	377.665	62.050	264.763	173.994	0.0012285	0.00038344	0.00020022	887.35	4.8336e-06	1.8604e-06	733.73	377.23	8.9042e-06	1.3015e-06	319.66	145.31	167.23	92.86	1.1022e-05	80.165	0.00010338	7.8965e-05	2.2597e-05	821.24	8.9342e-07	8.8569e-07	679.24	348.07	9.2461e-07	8.7096e-07	290.42	130.67	153.79	84.98	9.1147e-07	72.072	298.411	124.180	143.546	58.574	187.217	129.768	56.952	63.058	162.921	201.046	59.431	63.446	66.502	69.202	191.542	65.214	-8191	255	
888.140	1	1	0	0	0.20156	0.1347	0.15738	0.23561	0.12306	0.18367	0.094137	0.13266	0.16794	0.28817	0.12303	0.11165	0.21158	0.24461	0.15664	0.2641	0.92083	-0.23958	0.10417	0.33958	-0.43542	0.60833	-0.077083	-0.3625	0.5875	-0.45625	-0.0020833	0.40833	-0.60833	0.022917	0.1375	-0.25833	80.483	326.365	296.916	49.809	339.065	172.089	184.001	358.252	81.973	134.384	352.635	263.237	353.926	377.058	169.365	335.844	0.0012468	0.00058486	0.00011441	885.67	4.149e-06	6.0866e-06	734.95	376.79	6.4657e-06	4.7445e-06	321.74	144.52	168.17	92.957	8.2282e-06	80.388	0.00010178	8.014e-05	2.2512e-05	821.17	8.9453e-07	8.6962e-07	680.61	347.99	8.8709e-07	8.7986e-07	292	130.67	154.11	85.04	8.9455e-07	72.484	301.327	90.971	126.089	58.949	168.294	200.914	56.950	63.074	201.880	188.313	59.471	63.558	66.397	69.463	209.934	65.132	-8191	255	
888.236	1	1	0	0	0.14858	0.21589	0.30599	0.41656	0.22452	0.087705	0.17677	0.16999	0.27313	0.22597	0.1125	0.16233	0.19657	0.19605	0.17444	0.28611	0.82917	-0.4125	0.13542	0.34583	-0.29167	0.45417	0.09375	-0.39375	0.33125	-0.13958	-0.17917	0.45417	-0.48125	-0.010417	0.21875	-0.59375	295.077	131.538	193.018	402.935	245.694	305.907	321.152	61.335	135.835	148.937	281.727	382.984	364.054	336.031	211.833	325.283	0.0012127	0.00040049	0.00012536	886.94	5.9776e-06	6.2383e-06	736.42	378.54	1.1107e-05	4.9127e-06	319.48	146.39	168.45	92.841	5.8988e-06	80.821	0.00010189	8.0414e-05	2.2081e-05	821.26	8.9018e-07	8.7548e-07	682.3	348.8	9.0276e-07	8.4783e-07	292.13	131.42	154.34	85.179	9.106e-07	72.712	296.680	107.721	132.360	58.892	154.492	196.271	57.243	63.128	165.943	179.685	59.303	63.515	66.387	69.388	174.470	64.993	-8191	255	
888.332	1	1	0	0	0.10033	0.24828	0.42012	0.24033	0.26164	0.039762	0.13274	0.078492	0.1847	0.12466	0.30786	0.093405	0.32475	0.23988	0.26394	0.34601	0.85417	-0.10208	-0.15625	0.36667	-0.17708	0.18542	0.12083	-0.675	0.50208	-0.089583	-0.24792	0.51458	-0.4625	-0.04375	0.28542	-0.575	376.463	285.495	362.693	330.423	208.937	312.626	66.072	67.822	275.069	391.260	347.797	348.876	51.772	364.226	52.968	351.195	0.0013257	0.00065876	6.5773e-05	888.23	4.3102e-06	2.1493e-06	734.1	377.61	5.2602e-06	8.2459e-06	320.3	145	168	92.674	7.2216e-06	80.245	0.00010154	8.086e-05	2.2364e-05	822.25	8.8678e-07	8.8215e-07	681.86	348.37	8.9166e-07	8.7001e-07	291.07	130.88	154.06	85.035	9.1019e-07	72.242	298.232	128.015	157.324	58.649	192.501	225.804	57.057	63.033	172.212	184.423	59.614	63.542	66.585	69.315	179.722	65.322	-8191	255	
888.428	1	1	0	0	0.10277	0.26488	0.01121	0.068893	0.27157	0.37246	0.17412	0.44094	0.16499	0.1002	0.048847	0.17572	0.21254	0.072835	0.11175	0.098171	0.59375	0.13542	-0.25417	0.47083	-0.34375	-0.041667	0.23958	-0.68958	0.40625	-0.0125	-0.48333	0.41875	-0.47917	-0.22917	0.6125	-0.45833	140.486	273.272	358.175	382.453	294.694	166.575	262.048	397.810	195.259	162.764	290.565	52.527	347.447	153.291	211.731	339.519	0.0012475	0.00015271	0.00013286	879.73	6.2367e-06	5.701e-06	731.67	376.8	6.5897e-06	6.0301e-06	315.97	143.5	167.23	92.142	5.4973e-06	79.403	0.00010157	8.1087e-05	2.1804e-05	817.59	8.9124e-07	8.6288e-07	677.49	346.97	9.1377e-07	8.7098e-07	288.74	129.81	153.46	84.62	9.1287e-07	71.738	299.273	387.919	165.226	58.555	179.255	162.782	57.234	63.101	198.310	179.791	59.612	63.307	66.489	69.357	220.413	65.337	-8191	255	
888.547	1	1	0	0	0.10916	0.11425	0.26335	0.35848	0.091831	0.11254	0.21548	0.09651	0.17193	0.11822	0.18196	0.22118	0.33569	0.38038	0.12449	0.43491	0.66667	0.20625	-0.29167	0.4375	-0.14167	-0.060417	0.35417	-0.375	0.32083	0.26667	-0.39583	0.33958	-0.17292	-0.13333	0.7125	-0.40208	48.617	144.812	224.122	373.383	215.846	277.506	345.132	389.016	124.550	80.154	362.720	317.530	384.807	400.378	48.357	296.695	0.0011507	0.00051984	0.00011307	880.33	5.5214e-06	3.4375e-06	730.44	377.52	9.5121e-06	4.2786e-06	320.72	144.18	167.15	92.668	7.0682e-06	79.507	0.00010054	8.1617e-05	2.2443e-05	817.3	8.929e-07	8.519e-07	676.72	347.94	8.8616e-07	8.4601e-07	289.85	129.96	153.57	84.805	9.1393e-07	71.844	298.548	105.890	118.174	59.026	189.527	168.303	57.231	63.362	191.781	159.739	59.646	63.433	66.478	69.384	189.602	65.257	-8191	255	
888.643	1	1	0	0	0.21861	0.069072	0.16758	0.36495	0.16801	0.10795	0.056506	0.12825	0.13218	0.10253	0.32006	0.23278	0.36588	0.34043	0.18062	0.37907	0.59583	0.38333	-0.28125	0.31458	0.020833	-0.23958	0.225	-0.34792	0.08125	0.24792	-0.43333	0.225	0.014583	-0.43542	0.54167	-0.48958	355.459	259.727	144.796	363.097	214.645	154.757	309.875	396.382	295.573	373.925	386.706	202.622	359.271	389.439	366.698	45.486	0.0012652	0.0005951	0.00015527	880.19	7.441e-06	2.5205e-06	726.45	375.57	5.7084e-06	6.4295e-06	316.1	144.98	166.74	92.72	4.0469e-06	80.232	0.00010027	7.9861e-05	2.246e-05	819.62	8.855e-07	8.7321e-07	679.01	347.9	8.9857e-07	8.9053e-07	290.23	130.74	153.4	85.007	9.211e-07	72.385	306.077	106.075	132.158	58.992	195.733	218.442	57.303	63.199	154.927	179.244	59.697	63.861	66.602	69.591	159.707	65.401	-8191	255	
888.715	1	1	0	0	0.091482	0.31814	0.1277	0.17036	0.18313	0.3353	0.22319	0.15076	0.23404	0.069748	0.15704	0.28911	0.24317	0.47771	0.19856	0.13696	0.51667	0.4	-0.4125	0.27917	0.19583	-0.25417	0.4875	-0.20208	0.18333	0.45625	-0.3125	0.29167	0.1375	-0.50417	0.7375	-0.27917	391.800	400.931	385.646	396.435	346.322	395.605	376.115	346.855	344.845	108.210	62.191	109.487	296.305	74.498	353.515	175.151	0.0011808	0.00048653	0.00022206	879.75	4.4045e-06	4.1012e-06	729.39	374.22	6.4932e-06	5.044e-06	322.03	145.15	167.43	92.667	8.6571e-06	80.05	9.9632e-05	7.9975e-05	2.2047e-05	820.65	8.9226e-07	8.7176e-07	681.09	348.04	8.8025e-07	8.616e-07	292.17	130.63	153.66	84.957	9.1081e-07	72.189	301.851	138.953	145.073	58.826	147.102	192.257	57.562	63.659	156.483	181.965	59.626	63.233	65.470	68.320	187.097	64.147	-8191	255	
888.813	1	1	0	0	0.27831	0.1252	0.20596	0.29043	0.16838	0.13393	0.31891	0.3623	0.11614	0.17915	0.34817	0.211	0.15608	0.091479	0.023169	0.13863	0.41875	0.34792	-0.24167	0.22708	0.18542	-0.4625	0.33542	-0.27083	-0.10625	0.61875	-0.43333	0.1375	0.10833	-0.44792	0.44792	0	252.932	197.456	300.262	345.790	317.012	354.221	360.733	351.563	239.322	279.743	386.526	59.416	305.546	67.676	312.614	223.995	0.0012807	0.00040871	0.0001628	879.54	7.7202e-06	3.8289e-06	735.95	376.34	7.3921e-06	4.8566e-06	317.78	143.64	167.5	92.555	5.8928e-06	79.355	0.00010096	7.8732e-05	2.2016e-05	817.57	9.0658e-07	8.6146e-07	678.02	347.75	9.0579e-07	8.7527e-07	289.17	129.49	153.15	84.699	8.9285e-07	71.679	302.926	98.313	136.985	57.687	168.931	182.492	56.102	62.229	166.441	142.992	59.059	62.576	65.498	68.217	171.025	64.567	-8191	255	
888.932	1	1	0	0	0.035653	0.082947	0.16952	0.085552	0.10226	0.14533	0.34483	0.28754	0.18799	0.19963	0.061889	0.07206	0.073721	0.33334	0.32195	0.14157	0.33958	0.49583	-0.45833	0.0020833	0.50833	-0.34375	0.28125	-0.083333	-0.275	0.61458	-0.36042	0	0.19167	-0.71875	0.35417	0.022917	339.736	234.627	301.674	370.485	196.218	258.056	51.805	309.035	385.089	116.544	144.268	60.223	152.008	357.904	183.198	342.168	0.0012803	0.00067343	8.8234e-05	886.31	3.6796e-06	5.4518e-06	732.9	377.72	9.5294e-06	7.5358e-06	318.46	144.12	167.56	92.851	6.5224e-06	79.901	9.8889e-05	8.0836e-05	2.1899e-05	820.07	9.1017e-07	8.8407e-07	679.17	347.85	8.9464e-07	8.9754e-07	288.96	129.7	153.32	84.745	9.0608e-07	71.874	299.197	95.880	167.519	57.799	176.161	173.180	56.429	62.619	154.674	185.913	59.448	62.877	66.257	68.911	201.594	64.510	-8191	255	
889.028	1	1	0	0	0.25403	0.1526	0.20825	0.42056	0.16261	0.20013	0.12276	0.046799	0.20901	0.1509	0.16669	0.1189	0.28855	0.10143	0.34224	0.1601	0.03125	0.6125	-0.1	-0.064583	0.38333	-0.43958	0.30833	0.029167	-0.34167	0.59375	-0.20208	-0.05	0.23333	-0.40833	0.225	0.25833	154.403	297.969	53.393	361.061	208.630	293.320	210.181	145.573	46.584	97.170	159.855	151.425	317.912	381.465	327.436	384.516	0.0014015	0.00036929	0.00012979	883.2	4.1974e-06	3.7224e-06	732.91	376.85	5.6306e-06	4.7735e-06	318.88	144.37	167.29	92.639	7.8809e-06	80.266	0.00010081	8.113e-05	2.1963e-05	821.59	8.8576e-07	8.5228e-07	678.23	348.04	9.0643e-07	8.9422e-07	289.55	130.35	153.49	84.78	9.0397e-07	72.137	297.170	120.875	145.620	58.125	188.614	176.950	55.883	62.231	163.042	163.662	58.795	62.643	65.653	68.562	188.474	64.220	-8191	255	
889.124	1	1	0	0	0.11102	0.082288	0.069824	0.15611	0.30586	0.13452	0.12094	0.18728	0.12994	0.086188	0.30435	0.17064	0.16285	0.31806	0.21572	0.21298	-0.0083333	0.49375	-0.029167	-0.25625	0.47917	-0.31875	0.20417	0.14375	-0.18542	0.40208	-0.36458	-0.33333	0.34583	-0.36875	0.23125	0.19583	119.620	152.418	276.576	401.714	130.487	121.857	350.237	48.528	265.238	342.008	400.509	289.606	377.406	313.273	281.512	371.147	0.0012032	0.00053578	0.00011089	880.84	2.8317e-06	3.2625e-06	729.07	378.24	1.0208e-05	5.7263e-06	320.77	144.21	167.14	93.106	5.8958e-06	79.903	9.9402e-05	8.0163e-05	2.2238e-05	819.06	8.8479e-07	8.7377e-07	679.5	348.9	8.8957e-07	8.6098e-07	290.8	130.18	153.44	85.007	8.888e-07	71.957	297.508	131.164	136.321	58.018	184.323	187.525	56.216	62.347	188.934	168.837	58.364	62.064	65.111	67.865	205.446	63.865	-8191	255	
#DATA ENDS
