BOXY.EXE: ISS Imagent and Oximeter Data Acquisition Program Version 0.80
Ascii Record File

#ACQ INFORMATION
2  Detector Channels 
16  External MUX Channels 
1  Auxiliary Channels 
5000  Waveform (CCF) Frequency (Hz)
1  Waveforms Skipped 
30  Waveforms Averaged 
1  Cycles Averaged 
16  Acquisitions per Waveform 
10.0806  Updata Rate (Hz) 

#FILE INFORMATION
TRUE -- External MUX Channel results are PARSED.
FALSE -- AC DC and Phase are NOT grouped.
TRUE -- Companion Program Settings File CREATED.
FALSE -- AC data not excluded
FALSE -- DC data not excluded
FALSE -- Phase data not excluded
FALSE -- Auxillary Chn. data not excluded
Tab delimiters

#CALIBRATION STATE
TRUE -- Waveform Calibration Values APPLIED.


#AUX CALIBRATION VALUES
Val Type	aux-1	

Term	1.0000e+00	
Factor	0.0000e+00	


#WF CALIBRATION VALUES
A = Detector Channel
Val Type	A-AC1	A-AC2	A-AC3	A-AC4	A-AC5	A-AC6	A-AC7	A-AC8	A-AC9	A-AC10	A-AC11	A-AC12	A-AC13	A-AC14	A-AC15	A-AC16	A-DC1	A-DC2	A-DC3	A-DC4	A-DC5	A-DC6	A-DC7	A-DC8	A-DC9	A-DC10	A-DC11	A-DC12	A-DC13	A-DC14	A-DC15	A-DC16	A-Ph1	A-Ph2	A-Ph3	A-Ph4	A-Ph5	A-Ph6	A-Ph7	A-Ph8	A-Ph9	A-Ph10	A-Ph11	A-Ph12	A-Ph13	A-Ph14	A-Ph15	A-Ph16	

Term	0.00000e+00	0.00000e+00	0.00000e+00	0.00000e+00	0.00000e+00	0.00000e+00	0.00000e+00	0.00000e+00	0.00000e+00	0.00000e+00	0.00000e+00	0.00000e+00	0.00000e+00	0.00000e+00	0.00000e+00	0.00000e+00	0.00000e+00	0.00000e+00	0.00000e+00	0.00000e+00	0.00000e+00	0.00000e+00	0.00000e+00	0.00000e+00	0.00000e+00	0.00000e+00	0.00000e+00	0.00000e+00	0.00000e+00	0.00000e+00	0.00000e+00	0.00000e+00	0.00000e+00	0.00000e+00	0.00000e+00	0.00000e+00	0.00000e+00	0.00000e+00	0.00000e+00	0.00000e+00	0.00000e+00	0.00000e+00	0.00000e+00	0.00000e+00	0.00000e+00	0.00000e+00	0.00000e+00	0.00000e+00	
Factor	1.00000e+00	1.00000e+00	1.00000e+00	1.00000e+00	1.00000e+00	1.00000e+00	1.00000e+00	1.00000e+00	1.00000e+00	1.00000e+00	1.00000e+00	1.00000e+00	1.00000e+00	1.00000e+00	1.00000e+00	1.00000e+00	1.00000e+00	1.00000e+00	1.00000e+00	1.00000e+00	1.00000e+00	1.00000e+00	1.00000e+00	1.00000e+00	1.00000e+00	1.00000e+00	1.00000e+00	1.00000e+00	1.00000e+00	1.00000e+00	1.00000e+00	1.00000e+00	X	X	X	X	X	X	X	X	X	X	X	X	X	X	X	X	

B = Detector Channel
Val Type	B-AC1	B-AC2	B-AC3	B-AC4	B-AC5	B-AC6	B-AC7	B-AC8	B-AC9	B-AC10	B-AC11	B-AC12	B-AC13	B-AC14	B-AC15	B-AC16	B-DC1	B-DC2	B-DC3	B-DC4	B-DC5	B-DC6	B-DC7	B-DC8	B-DC9	B-DC10	B-DC11	B-DC12	B-DC13	B-DC14	B-DC15	B-DC16	B-Ph1	B-Ph2	B-Ph3	B-Ph4	B-Ph5	B-Ph6	B-Ph7	B-Ph8	B-Ph9	B-Ph10	B-Ph11	B-Ph12	B-Ph13	B-Ph14	B-Ph15	B-Ph16	

Term	0.00000e+00	0.00000e+00	0.00000e+00	0.00000e+00	0.00000e+00	0.00000e+00	0.00000e+00	0.00000e+00	0.00000e+00	0.00000e+00	0.00000e+00	0.00000e+00	0.00000e+00	0.00000e+00	0.00000e+00	0.00000e+00	0.00000e+00	0.00000e+00	0.00000e+00	0.00000e+00	0.00000e+00	0.00000e+00	0.00000e+00	0.00000e+00	0.00000e+00	0.00000e+00	0.00000e+00	0.00000e+00	0.00000e+00	0.00000e+00	0.00000e+00	0.00000e+00	1.75774e+01	-1.46235e+02	-1.17124e+02	-1.81868e+02	-8.91195e+01	-6.48731e+01	-1.55593e+02	-1.62015e+02	-9.75022e+01	-8.17833e+01	-1.72047e+02	-1.70197e+02	-1.80263e+02	-1.76670e+02	-7.13823e+01	-1.48961e+02	
Factor	4.51161e-05	1.29920e-04	3.80509e-05	1.84395e-01	1.28156e-06	1.39230e-06	1.71929e-01	6.00013e-02	1.74208e-06	1.47441e-06	9.93773e-02	3.72057e-02	2.45678e-02	1.02851e-02	1.73701e-06	1.47878e-02	1.01581e-06	1.03816e-06	2.88466e-07	9.16057e-02	1.13405e-08	1.13887e-08	8.04221e-02	2.97712e-02	1.13638e-08	1.13723e-08	4.69853e-02	1.74268e-02	1.22168e-02	5.05173e-03	1.13582e-08	6.97409e-03	X	X	X	X	X	X	X	X	X	X	X	X	X	X	X	X	



#DISTANCE SETTINGS
A = Detector Channel
A-1	A-2	A-3	A-4	A-5	A-6	A-7	A-8	A-9	A-10	A-11	A-12	A-13	A-14	A-15	A-16	

2.5000e+00	3.0000e+00	2.5000e+00	3.0000e+00	2.0000e+00	3.0000e+00	1.5000e+00	3.0000e+00	3.0000e+00	3.0000e+00	3.0000e+00	3.0000e+00	3.0000e+00	3.0000e+00	1.5000e+00	3.0000e+00	

B = Detector Channel
B-1	B-2	B-3	B-4	B-5	B-6	B-7	B-8	B-9	B-10	B-11	B-12	B-13	B-14	B-15	B-16	

1.0000e+01	1.0000e+01	1.0000e+01	1.4400e+00	1.0000e+01	1.0000e+01	1.5100e+00	1.9400e+00	1.0000e+01	1.0000e+01	1.9900e+00	2.4900e+00	2.4100e+00	2.9000e+00	1.0000e+01	2.9800e+00	




#DATA BEGINS
time	group	step	mark	flag	A-AC1	A-AC2	A-AC3	A-AC4	A-AC5	A-AC6	A-AC7	A-AC8	A-AC9	A-AC10	A-AC11	A-AC12	A-AC13	A-AC14	A-AC15	A-AC16	A-DC1	A-DC2	A-DC3	A-DC4	A-DC5	A-DC6	A-DC7	A-DC8	A-DC9	A-DC10	A-DC11	A-DC12	A-DC13	A-DC14	A-DC15	A-DC16	A-Ph1	A-Ph2	A-Ph3	A-Ph4	A-Ph5	A-Ph6	A-Ph7	A-Ph8	A-Ph9	A-Ph10	A-Ph11	A-Ph12	A-Ph13	A-Ph14	A-Ph15	A-Ph16	B-AC1	B-AC2	B-AC3	B-AC4	B-AC5	B-AC6	B-AC7	B-AC8	B-AC9	B-AC10	B-AC11	B-AC12	B-AC13	B-AC14	B-AC15	B-AC16	B-DC1	B-DC2	B-DC3	B-DC4	B-DC5	B-DC6	B-DC7	B-DC8	B-DC9	B-DC10	B-DC11	B-DC12	B-DC13	B-DC14	B-DC15	B-DC16	B-Ph1	B-Ph2	B-Ph3	B-Ph4	B-Ph5	B-Ph6	B-Ph7	B-Ph8	B-Ph9	B-Ph10	B-Ph11	B-Ph12	B-Ph13	B-Ph14	B-Ph15	B-Ph16	aux-1	digaux	

861.153	1	1	0	512	0.22934	0.041771	0.13629	0.14948	0.15869	0.11721	0.11907	0.035747	0.063945	0.22582	0.30246	0.3012	0.3103	0.13817	0.31351	0.11904	0.14583	0.097917	0.49583	-0.525	0.10833	0.2	-0.74375	0.2	-0.1625	-0.30625	0.22083	-0.2375	0.13333	-0.077083	-0.40833	0.29583	189.432	180.724	73.339	325.549	48.249	390.494	303.438	108.565	234.758	271.754	392.282	76.175	308.653	305.031	351.689	328.143	0.0013037	0.00064374	0.00014309	962.41	6.3265e-06	2.4826e-06	792.43	405.53	5.4086e-06	5.7268e-06	339.7	153.57	182.14	102.53	6.8976e-06	88.558	0.00012188	9.5643e-05	2.7497e-05	895.1	1.0658e-06	1.0673e-06	737.05	374.94	1.0723e-06	1.067e-06	311.1	138.66	167.48	93.602	1.088e-06	79.759	298.174	105.748	156.897	58.222	192.320	154.370	56.281	62.497	189.166	192.462	59.266	62.591	65.916	68.755	192.516	64.120	-8191	255	
861.249	1	1	0	0	0.048884	0.1144	0.16541	0.21115	0.063712	0.017387	0.31488	0.078878	0.15697	0.10911	0.24157	0.41035	0.24973	0.22087	0.07985	0.23092	0.17292	-0.15417	0.50833	-0.49375	0.15625	0.19167	-0.64583	0.15625	-0.15417	-0.15417	0.3375	-0.44583	0.0125	0.19375	-0.41458	0.24583	57.269	358.288	93.738	372.530	303.832	239.941	305.769	117.723	105.288	294.086	309.541	368.968	377.160	58.267	117.101	350.413	0.0011917	0.00053857	1.9323e-05	961.79	5.9692e-06	7.993e-06	788.25	402.99	4.2041e-06	6.361e-06	341.1	153.02	182.51	101.9	7.7711e-06	88.37	0.00011826	9.6376e-05	2.6972e-05	894.67	1.0774e-06	1.0618e-06	733.44	373.13	1.0867e-06	1.0308e-06	310.54	138.48	167.62	93.372	1.0822e-06	79.683	295.344	100.221	77.964	58.260	166.237	152.790	56.136	62.474	171.844	155.917	59.186	63.007	65.740	68.567	198.536	64.183	-8191	255	
861.345	1	1	0	0	0.1529	0.097313	0.15145	0.24463	0.25162	0.14295	0.32566	0.069828	0.2049	0.069553	0.18672	0.057782	0.38928	0.40289	0.25714	0.23458	0.26875	-0.18333	0.41042	-0.27292	-0.054167	0.3125	-0.48542	0.11042	0.022917	-0.43125	0.25208	-0.33542	-0.21042	0.21667	-0.18958	0.16875	352.128	152.338	140.124	106.674	347.957	295.837	369.102	343.966	333.507	263.754	98.297	303.967	73.106	367.109	383.951	341.968	0.0012943	0.00061499	0.00013094	964.75	4.6113e-06	3.0521e-06	792.79	402.88	6.9732e-06	3.95e-06	342.07	154	182.41	102.09	8.8586e-06	88.827	0.00011987	9.5972e-05	2.7119e-05	892.54	1.0801e-06	1.0657e-06	734.61	373	1.079e-06	1.0634e-06	311.55	139.06	167.46	93.458	1.0832e-06	79.977	297.330	141.475	160.863	58.450	184.976	220.720	56.521	62.478	190.150	172.139	59.358	62.963	65.888	68.885	183.582	64.427	-8191	255	
861.441	1	1	0	0	0.14435	0.16361	0.047334	0.22327	0.051195	0.21451	0.10631	0.016421	0.12688	0.12199	0.28135	0.34262	0.21788	0.39151	0.37286	0.31222	0.51875	-0.35417	0.54167	-0.26458	-0.052083	0.19375	-0.30625	-0.041667	0.41042	-0.39583	0.35	-0.26042	-0.26458	0.083333	-0.39792	-0.0375	160.753	200.460	247.500	297.999	360.577	220.708	343.304	227.572	271.498	369.616	48.077	349.773	240.936	391.374	150.551	294.894	0.0013323	0.00041246	7.5812e-05	961.6	6.1795e-06	7.0726e-06	794.25	404.73	4.6527e-06	9.4227e-06	343.67	154.34	182.04	101.87	9.2855e-06	88.732	0.00012064	9.6354e-05	2.7124e-05	891.66	1.103e-06	1.0535e-06	737.26	373.8	1.1156e-06	1.0478e-06	312.23	139.3	167.58	93.384	1.1158e-06	80.257	301.670	112.495	130.416	58.334	155.011	184.588	56.569	62.734	145.308	163.982	59.190	63.220	65.881	68.941	194.865	64.425	-8191	255	
861.538	1	1	0	0	0.0076724	0.12783	0.092676	0.39628	0.11852	0.10822	0.35287	0.28533	0.068051	0.21715	0.082687	0.16926	0.19054	0.4984	0.16859	0.15304	0.59167	-0.48958	0.37083	-0.11667	-0.20208	0.425	-0.36042	-0.32292	0.25417	-0.49792	0.34167	-0.13125	-0.42708	0.25208	-0.047917	-0.10208	350.757	224.968	84.502	325.186	320.601	90.132	360.960	326.164	311.961	278.975	402.326	100.476	357.590	365.941	98.989	318.057	0.0012594	0.00048464	0.00020043	959.44	4.4419e-06	8.4131e-06	794.98	404.92	1.1726e-05	8.687e-06	342.29	154.7	182.39	102.14	7.6826e-06	88.506	0.00012015	9.8013e-05	2.772e-05	892.97	1.0854e-06	1.0801e-06	739.41	374.29	1.1079e-06	1.0511e-06	311.91	139.35	167.43	93.515	1.082e-06	79.789	297.052	108.889	150.428	58.450	158.074	208.763	56.656	62.636	157.723	165.747	59.254	62.922	66.088	68.984	180.923	64.720	-8191	255	
861.634	1	1	0	0	0.19227	0.1528	0.18045	0.25477	0.3138	0.083249	0.073681	0.28336	0.212	0.23871	0.15487	0.037749	0.14482	0.3407	0.13601	0.17742	0.69583	-0.48333	0.3625	0.091667	-0.28125	0.43958	-0.46458	-0.31458	0.16875	-0.24375	0.029167	0.070833	-0.675	0.13333	-0.28333	-0.65	197.875	213.704	314.447	263.835	66.096	140.579	152.915	384.335	141.320	313.106	361.142	72.831	50.458	75.266	296.039	254.413	0.0013182	0.00064709	0.00015655	958.42	5.9391e-06	8.9333e-07	794.34	403.41	8.1568e-06	3.9061e-06	340.12	152.27	181.78	101.81	4.671e-06	87.703	0.00012044	9.7669e-05	2.7122e-05	892.1	1.0624e-06	1.0635e-06	733.69	372.47	1.0952e-06	1.0589e-06	308.99	137.92	166.9	93.055	1.0673e-06	79.203	299.522	101.694	185.221	58.548	174.380	152.291	56.598	62.633	163.716	182.161	59.160	63.264	66.175	69.041	152.181	64.827	-8191	255	
861.730	1	1	0	0	0.21936	0.060453	0.09995	0.11302	0.10512	0.091418	0.18882	0.15385	0.36641	0.17986	0.15185	0.30569	0.42615	0.25944	0.15632	0.066328	0.7125	-0.36042	-0.041667	0.11667	-0.50833	0.34792	-0.29167	-0.30833	0.4625	-0.49167	-0.0020833	0.23333	-0.53958	0.10208	-0.16458	-0.3875	177.359	282.796	173.633	319.528	379.192	154.832	399.848	62.399	98.336	398.635	68.673	278.577	374.028	49.687	338.478	278.830	0.001336	0.00048772	0.0001441	960.72	4.4351e-06	4.4809e-06	790.86	402.38	8.2524e-06	6.8555e-06	338.93	153.54	182.01	101.79	4.533e-06	88.185	0.00012077	9.7587e-05	2.6484e-05	891.03	1.053e-06	1.064e-06	733.09	372.27	1.1122e-06	1.075e-06	309.37	138.07	166.75	92.979	1.109e-06	79.409	299.289	121.376	111.547	58.972	195.202	211.604	56.728	62.711	122.560	188.041	59.384	63.432	66.258	68.923	216.432	64.788	-8191	255	
861.850	1	1	0	0	0.10179	0.14581	0.044512	0.2359	0.20855	0.29362	0.24654	0.23818	0.038569	0.23949	0.2299	0.1467	0.16221	0.083207	0.10593	0.28312	0.90833	-0.23958	0.058333	0.14583	-0.425	0.34792	0.14583	-0.54792	0.38542	-0.42708	0.052083	0.57083	-0.7	-0.072917	0.10833	-0.39167	323.872	213.531	403.744	389.200	158.009	144.572	53.732	323.249	148.021	125.618	210.639	383.250	340.312	394.227	247.208	60.198	0.0014486	0.00048141	0.00012242	961.2	4.9732e-06	5.131e-06	791.36	402.58	4.4355e-06	8.4594e-06	340.22	153.48	181.62	102.24	8.5985e-06	88.525	0.00012092	9.9834e-05	2.6574e-05	892.65	1.0842e-06	1.0668e-06	733.16	372.88	1.1212e-06	1.055e-06	310.32	138.41	166.79	93.276	1.1055e-06	79.793	300.961	140.034	143.842	58.618	179.162	172.946	57.058	63.048	153.320	188.875	59.610	63.617	66.273	68.890	213.257	64.702	-8191	255	
861.945	1	1	0	0	0.063538	0.34636	0.21958	0.18537	0.14429	0.13385	0.12017	0.42967	0.15862	0.070601	0.38439	0.26187	0.21009	0.19996	0.13542	0.1144	0.8875	-0.025	-0.041667	0.26875	-0.45208	0.16042	0.12708	-0.61042	0.27917	-0.2875	-0.23125	0.43125	-0.55208	-0.0375	0.30625	-0.64583	225.872	105.563	379.869	362.172	167.396	377.636	241.085	135.025	285.040	301.367	75.655	350.964	346.101	355.298	331.865	75.860	0.0013969	0.0004079	0.00011825	958.64	6.8563e-06	6.4088e-06	793.04	403.27	8.3097e-06	5.9837e-06	340.75	153.58	181.81	101.43	9.2532e-06	88.522	0.0001234	9.8759e-05	2.7358e-05	891.66	1.0932e-06	1.0661e-06	736.48	372.46	1.1021e-06	1.0587e-06	310.92	138.7	167.04	93.042	1.0864e-06	79.681	293.122	97.692	148.191	58.854	176.377	198.282	57.044	63.185	147.556	156.310	59.707	63.412	66.248	68.967	204.384	64.753	-8191	255	
862.043	1	1	0	0	0.052075	0.089416	0.21139	0.12824	0.12916	0.11781	0.29061	0.37663	0.28204	0.026278	0.33448	0.046461	0.28306	0.28901	0.082534	0.34633	0.65208	0.022917	-0.30208	0.41458	-0.45208	0.14792	0.20208	-0.74792	0.38333	-0.095833	-0.21042	0.36042	-0.40833	-0.1375	0.42292	-0.65417	346.566	98.441	218.754	136.558	206.641	155.303	320.082	301.618	342.108	185.746	403.947	342.920	378.817	360.056	298.545	347.903	0.0013947	0.00056319	2.7874e-05	957.4	4.5686e-06	4.8298e-06	787.06	402.5	6.8821e-06	7.8718e-06	338.24	153.25	180.92	101.3	9.1412e-06	87.736	0.00012112	9.9025e-05	2.7152e-05	890.32	1.0965e-06	1.0697e-06	731.47	371.36	1.1075e-06	1.0606e-06	308.19	137.83	166	92.666	1.1104e-06	78.972	300.720	103.832	136.051	58.607	177.965	196.089	57.162	63.279	205.815	161.265	58.957	63.493	66.194	68.940	205.930	64.534	-8191	255	
862.139	1	1	0	0	0.16476	0.23064	0.11073	0.10182	0.28666	0.15546	0.066701	0.20832	0.10176	0.22692	0.15945	0.026337	0.20232	0.096183	0.14537	0.22618	0.725	0.1	-0.10417	0.3875	-0.36667	-0.12917	0.2375	-0.58125	0.25208	-0.010417	-0.5625	0.16667	-0.40833	-0.35	0.31667	-0.70417	162.539	383.112	312.656	322.942	373.932	326.743	89.909	364.708	226.599	192.925	285.777	335.608	374.554	50.250	69.116	57.000	0.0014558	0.00019902	0.00016559	953.2	4.5635e-06	4.2257e-06	787.95	401.59	9.0479e-06	2.7759e-06	338.05	152.85	181.12	101.28	8.5896e-06	87.404	0.00012204	9.9756e-05	2.7485e-05	887.91	1.0916e-06	1.0827e-06	732.17	371.06	1.0922e-06	1.0681e-06	307.83	137.96	166.37	92.708	1.0977e-06	79.185	299.367	107.301	135.984	58.889	176.684	197.383	56.932	62.976	161.548	140.709	59.530	63.113	66.053	69.086	202.829	64.629	-8191	255	
862.233	1	1	0	0	0.076364	0.19439	0.15738	0.23101	0.21641	0.14345	0.059742	0.29076	0.25394	0.11282	0.056055	0.12719	0.35271	0.24549	0.08441	0.29665	0.54375	0.35	-0.30208	0.20625	-0.027083	-0.26458	0.20833	-0.60208	0.23125	0.32708	-0.66458	0.37708	-0.18958	-0.4125	0.52292	-0.27083	199.300	316.516	183.652	344.616	198.548	293.998	104.795	50.037	84.310	326.382	64.459	70.655	319.868	379.940	212.894	321.432	0.0013447	0.00074652	0.00017745	960.7	5.7254e-06	4.983e-06	787.77	400.11	7.0599e-06	6.4418e-06	340.28	153.39	180.82	101.53	7.9469e-06	88.741	0.00012006	9.8385e-05	2.7838e-05	890.45	1.0663e-06	1.0536e-06	732.68	370.67	1.0978e-06	1.0584e-06	309.48	138.27	166.07	92.784	1.1071e-06	79.684	299.777	115.594	155.767	58.577	175.828	201.484	56.962	63.029	170.701	147.427	59.209	63.321	66.329	68.795	185.990	64.548	-8191	255	
862.329	1	1	0	0	0.1268	0.29154	0.33549	0.21253	0.10441	0.065215	0.22001	0.43274	0.19639	0.0579	0.23812	0.15793	0.18068	0.41241	0.18277	0.3655	0.23542	0.31875	-0.38333	0.083333	-0.054167	-0.40833	0.41667	-0.49792	-0.10625	0.30833	-0.64167	0.083333	-0.085417	-0.37292	0.46042	-0.33333	368.783	86.857	223.888	122.302	391.715	144.116	354.451	317.530	356.261	310.719	297.351	392.183	89.601	386.194	308.199	369.011	0.0013365	0.00058842	0.00021824	959.04	5.485e-06	5.539e-06	793.05	402.8	8.5867e-06	5.3327e-06	343.63	153.98	181.57	101.25	8.6903e-06	88.552	0.00012172	9.9248e-05	2.6871e-05	890.71	1.0865e-06	1.0327e-06	736.09	371.55	1.0974e-06	1.0897e-06	311.82	138.8	166.4	92.774	1.1172e-06	79.84	296.276	100.839	166.112	58.483	207.526	158.980	56.348	62.687	149.394	188.154	59.095	62.851	65.957	68.710	199.808	64.837	-8191	255	
862.450	1	1	0	0	0.3305	0.055283	0.19516	0.10157	0.096414	0.14467	0.17197	0.20085	0.19379	0.1095	0.061229	0.15979	0.2124	0.18348	0.25563	0.20561	0.47708	0.20417	-0.34167	0.091667	0.22917	-0.35	0.43125	-0.37917	-0.15	0.51458	-0.59583	-0.0020833	0.11667	-0.66458	0.33958	-0.25833	64.211	390.411	154.702	195.663	121.184	230.508	366.949	379.731	361.719	57.990	335.214	283.148	330.809	381.407	45.173	347.259	0.0014151	0.00088388	0.00019912	956.26	1.8935e-06	5.4217e-06	789.59	402.69	1.1297e-05	4.9359e-06	338.12	152.74	180.76	100.99	9.0731e-06	87.588	0.00011983	9.7581e-05	2.6696e-05	889.85	1.0658e-06	1.0619e-06	734.63	371.61	1.079e-06	1.0849e-06	308.69	137.66	165.82	92.422	1.0998e-06	79.1	297.905	114.443	153.554	58.506	129.285	193.587	56.663	62.761	166.470	200.739	59.236	63.151	65.949	68.816	215.467	64.559	-8191	255	
862.546	1	1	0	0	0.18227	0.13024	0.098216	0.2681	0.17613	0.18072	0.051428	0.20696	0.20084	0.31005	0.09771	0.27895	0.38988	0.3507	0.090845	0.25654	0.19792	0.59167	-0.37708	-0.054167	0.58958	-0.54375	0.06875	-0.25208	-0.34167	0.4	-0.39583	-0.089583	0.22292	-0.49583	0.36042	0.10208	232.787	52.116	278.539	69.993	211.070	139.692	301.430	336.021	55.509	165.708	233.603	55.550	377.216	311.191	230.746	329.308	0.0012312	0.00066007	0.00012526	955.26	4.2674e-06	6.9065e-06	790.29	400.65	9.6296e-06	6.2248e-06	338.16	152.51	180.35	101.19	8.4744e-06	87.829	0.00012005	9.7479e-05	2.6864e-05	887.56	1.0671e-06	1.0703e-06	731.7	370.81	1.0787e-06	1.0659e-06	308.03	137.79	165.76	92.551	1.0759e-06	79.212	301.547	122.010	132.241	58.461	205.154	213.552	56.761	62.909	154.513	184.508	59.401	62.867	65.792	68.674	189.912	64.517	-8191	255	
862.642	1	1	0	0	0.27889	0.26697	0.063736	0.066778	0.056575	0.2219	0.28045	0.16485	0.11431	0.091709	0.15628	0.31322	0.30224	0.28773	0.094922	0.4149	0.12708	0.45833	-0.26875	-0.14375	0.38125	-0.30833	0.19583	0.079167	-0.44583	0.55833	-0.30417	-0.0375	0.18333	-0.62708	0.20833	0.05625	279.756	172.352	258.152	385.298	393.676	312.358	332.094	321.902	73.806	171.535	362.464	298.803	66.798	122.551	345.357	348.799	0.0014675	0.00031786	0.00017286	958.78	4.7838e-06	8.1909e-06	792	403.27	7.6164e-06	6.3323e-06	339.27	154.14	181.14	101.12	8.0192e-06	88.629	0.00011782	9.6711e-05	2.6886e-05	889.32	1.0758e-06	1.0367e-06	733.26	371.52	1.0765e-06	1.0458e-06	310.04	138.29	166.03	92.566	1.0657e-06	79.643	297.835	161.250	128.496	58.298	203.364	197.316	56.665	62.881	166.716	178.592	58.732	62.699	65.948	68.637	230.518	64.529	-8191	255	
862.714	1	1	0	0	0.13669	0.33275	0.26971	0.053867	0.12314	0.16086	0.058545	0.38188	0.23168	0.040548	0.32279	0.36698	0.25455	0.45543	0.28716	0.19201	-0.15833	0.62708	0.05625	-0.33333	0.59167	-0.2	0.052083	0.27917	-0.35208	0.22708	-0.3	-0.43958	0.18125	-0.44792	0.016667	-0.03125	254.395	194.628	128.339	378.384	255.920	341.396	183.128	366.067	227.643	76.372	323.207	352.721	400.234	343.869	354.860	131.152	0.0013698	0.00049069	0.00025927	959.92	5.0906e-06	1.95e-06	790.8	401.75	7.563e-06	1.7127e-06	343.85	153.66	181.33	101.34	7.7622e-06	89.07	0.0001196	9.6932e-05	2.6425e-05	889.46	1.0598e-06	1.0526e-06	735.1	371.54	1.0698e-06	1.0382e-06	311.7	138.99	166.38	92.874	1.0737e-06	80.084	299.816	104.362	127.685	58.169	193.302	129.055	56.371	62.786	157.298	202.728	58.838	62.810	65.921	68.799	200.517	64.280	-8191	255	
862.810	1	1	0	0	0.24381	0.15716	0.084951	0.21143	0.33055	0.34288	0.10141	0.24241	0.21866	0.17711	0.19305	0.25244	0.39111	0.41261	0.14279	0.28068	-0.12083	0.38958	0.05	-0.55833	0.43542	-0.54167	-0.11667	0.25208	-0.35208	0.44583	-0.0875	-0.48125	0.2	-0.32292	-0.070833	0.26458	49.207	220.761	284.399	378.814	310.545	173.728	312.804	391.844	167.452	299.990	377.217	70.358	400.067	365.390	400.563	338.007	0.0014741	0.00058395	0.00014007	957.93	4.3679e-06	6.243e-06	790	401.79	7.1952e-06	6.0529e-06	340.21	152.76	180.64	101.3	9.7511e-06	87.886	0.00011714	9.693e-05	2.6317e-05	887.87	1.035e-06	1.0397e-06	732.76	371.09	1.0743e-06	1.0405e-06	309.41	137.97	165.74	92.508	1.0751e-06	79.15	296.686	106.816	119.363	58.455	193.573	186.466	56.599	62.615	176.074	160.007	58.984	62.822	65.749	68.816	172.788	64.752	-8191	255	
862.931	1	1	0	0	0.28896	0.051508	0.078133	0.11809	0.093517	0.20286	0.18602	0.35873	0.14488	0.19346	0.12935	0.18635	0.15714	0.30714	0.15778	0.016388	0.03125	0.1625	0.14167	-0.38542	0.52083	-0.23333	-0.21458	0.39167	-0.5	0.21667	0.20208	-0.57917	0.22292	-0.44792	-0.066667	0.275	317.713	55.673	273.292	380.859	179.786	129.198	350.432	363.679	335.255	182.214	329.263	369.749	76.569	375.050	130.562	139.026	0.0013209	0.00045167	0.00023369	956.81	2.9881e-06	5.7094e-06	786.25	400.49	9.3798e-06	7.122e-06	337.63	152.39	180.19	100.57	7.4084e-06	87.152	0.00011655	9.5165e-05	2.6053e-05	888.13	1.0348e-06	1.0381e-06	728.69	369.99	1.0674e-06	1.066e-06	307.95	137.25	165.17	92.17	1.0899e-06	78.683	299.921	157.542	168.248	58.388	167.282	183.806	56.445	62.424	158.902	177.190	59.114	62.675	65.597	68.684	194.644	64.108	-8191	255	
863.025	1	1	0	0	0.14395	0.14331	0.3054	0.17825	0.15784	0.15072	0.12153	0.19639	0.21266	0.20465	0.25139	0.080661	0.28838	0.15646	0.37426	0.20079	0.21458	0.2125	0.43542	-0.57917	0.34167	0.0083333	-0.51667	0.275	-0.2375	0.13958	0.41458	-0.5375	0.24583	-0.17917	-0.3375	0.32708	115.378	260.632	278.248	292.399	229.860	229.360	401.274	348.450	258.157	254.391	327.645	59.014	68.727	400.812	368.314	334.146	0.0012877	0.00051886	0.00012901	957.61	5.246e-06	4.9553e-06	791.16	401.05	7.5811e-06	4.9327e-06	340.02	152.09	179.19	100.58	8.921e-06	87.884	0.00011863	9.7092e-05	2.672e-05	886.86	1.0468e-06	1.0529e-06	732.17	370.27	1.0689e-06	1.0467e-06	308.71	137.45	165.08	92.144	1.0896e-06	79.189	295.216	65.424	162.547	57.764	185.542	165.874	56.288	62.586	131.405	185.364	59.161	62.825	65.403	68.504	206.958	64.399	-8191	255	
863.123	1	1	0	0	0.14911	0.14457	0.18344	0.46958	0.18289	0.091011	0.24593	0.30681	0.2186	0.16228	0.067285	0.26326	0.083137	0.18588	0.18066	0.24234	-0.070833	0.1	0.49375	-0.53542	0.45417	0.016667	-0.46042	0.5125	-0.42083	-0.10625	0.525	-0.4875	0.17292	0.016667	-0.24167	0.2	175.168	189.967	93.501	291.964	130.530	244.739	302.800	359.599	114.508	71.195	111.558	345.136	311.986	340.423	382.322	362.128	0.0013686	0.00069554	0.00016889	952.85	4.6045e-06	7.3244e-06	793.12	399.99	7.2151e-06	7.0258e-06	339.97	152.03	180.58	101.1	9.1167e-06	88.393	0.00011854	9.5113e-05	2.6323e-05	886.36	1.0872e-06	1.0524e-06	732.51	369.74	1.0494e-06	1.0589e-06	309.38	137.8	165.47	92.321	1.0863e-06	79.504	297.287	108.056	141.387	58.466	213.971	185.842	56.543	62.431	189.291	169.484	59.155	62.956	65.948	68.612	188.725	64.096	-8191	255	
863.242	1	1	0	0	0.14963	0.078363	0.08502	0.38871	0.24381	0.090828	0.12727	0.28254	0.12138	0.22628	0.25033	0.20293	0.51275	0.30139	0.16517	0.13925	0.15208	-0.12083	0.53125	-0.55	0.27917	0.30417	-0.37708	0.275	-0.19375	-0.022917	0.34583	-0.4125	-0.225	0.014583	-0.36875	0.325	157.677	265.718	73.183	75.204	205.469	256.744	271.354	332.390	283.953	279.795	129.232	358.579	62.634	380.293	186.480	342.179	0.0013069	0.00058883	0.00012877	960.16	3.059e-06	6.2787e-06	791.64	401.12	9.218e-06	8.2644e-06	336.8	152.17	180.03	100.66	7.8672e-06	87.633	0.00011761	9.4566e-05	2.652e-05	889.36	1.0687e-06	1.039e-06	731.9	369.89	1.0657e-06	1.0428e-06	308.33	137.28	165.1	92.043	1.0734e-06	78.674	298.738	96.301	152.053	58.037	167.060	208.778	56.524	62.742	190.778	183.997	59.224	63.113	65.861	68.629	182.026	64.133	-8191	255	
863.314	1	1	0	0	0.062307	0.20149	0.11119	0.087633	0.039653	0.1797	0.19727	0.21098	0.022178	0.028701	0.33791	0.28265	0.45802	0.37963	0.12747	0.14033	0.46875	0.12708	0.48542	-0.35	0.0020833	0.33333	-0.42917	0.39167	-0.060417	-0.4	0.41667	-0.375	-0.11458	0.27708	-0.4125	0.070833	198.333	53.904	230.984	200.742	107.003	160.120	74.165	308.604	340.600	307.616	391.265	376.737	398.436	385.850	65.879	322.014	0.0013268	0.00065817	0.00015886	951.43	6.4635e-06	7.5962e-06	787.75	399.06	7.3745e-06	3.3817e-06	336.88	151.02	179.51	100.21	8.3652e-06	87.181	0.00011918	9.502e-05	2.6499e-05	884.53	1.0626e-06	1.0601e-06	728.08	368.55	1.063e-06	1.0435e-06	306.99	136.51	164.42	91.802	1.0888e-06	78.376	297.110	109.283	141.060	58.311	189.825	205.018	56.516	62.697	180.406	174.057	59.415	63.020	65.931	68.890	212.678	64.452	-8191	255	
863.410	1	1	0	0	0.28158	0.11552	0.06724	0.20809	0.16711	0.26436	0.26122	0.059032	0.22096	0.20175	0.2829	0.19808	0.36295	0.2545	0.098892	0.049264	0.425	-0.44375	0.39583	-0.43958	-0.072917	0.43333	-0.475	-0.052083	0.21667	-0.46667	0.3125	-0.12708	-0.3375	-0.075	-0.37708	0.1	149.152	319.914	76.656	356.348	102.705	174.521	333.857	357.777	403.653	402.147	110.941	365.426	376.274	70.471	289.696	52.432	0.001384	0.00061715	8.8663e-05	956.8	6.0766e-06	6.486e-06	790.01	398.83	7.0818e-06	4.9166e-06	338.46	151.72	179.24	100.6	1.0568e-05	87.496	0.00012136	9.539e-05	2.7541e-05	885.53	1.0593e-06	1.0568e-06	730.13	368.16	1.0737e-06	1.0266e-06	307.26	136.98	164.56	91.934	1.0739e-06	78.771	300.012	129.142	160.427	58.691	194.635	206.944	56.505	62.758	147.274	171.372	59.469	63.132	66.252	69.236	191.640	64.822	-8191	255	
863.531	1	1	0	0	0.28572	0.035868	0.013534	0.22514	0.091767	0.14841	0.099915	0.37294	0.30044	0.27444	0.045637	0.065687	0.30616	0.3139	0.17857	0.16133	0.28125	-0.54167	0.33542	-0.22708	-0.28125	0.35417	-0.45833	-0.13542	0.21042	-0.30208	0.32083	-0.0083333	-0.36875	0.16458	-0.225	-0.097917	117.466	221.839	173.128	405.045	261.435	295.555	72.368	338.221	284.652	363.714	52.752	182.127	293.837	369.618	156.814	294.565	0.001307	0.00035821	0.00016419	954.37	6.1642e-06	3.7883e-06	785.41	396.99	5.0407e-06	5.098e-06	336.39	151.18	179.55	100.57	8.0084e-06	87.329	0.00012293	9.5744e-05	2.6318e-05	885.81	1.0506e-06	1.0303e-06	729.68	368.92	1.072e-06	1.0466e-06	307.84	137.34	165.01	92.063	1.0825e-06	79.171	298.216	116.714	143.602	58.819	188.091	184.732	57.386	63.159	180.560	196.574	59.390	63.637	66.338	69.310	217.203	64.638	-8191	255	
863.627	1	1	0	0	0.046409	0.051783	0.18121	0.24287	0.068805	0.069333	0.08509	0.15253	0.31851	0.095527	0.13414	0.26145	0.16344	0.42919	0.15214	0.16809	0.57917	-0.44792	0.4125	-0.045833	-0.43333	0.30208	-0.3	-0.058333	0.52917	-0.50208	0.12083	-0.14792	-0.64375	0.3875	-0.3375	-0.325	402.112	272.855	163.208	322.857	130.891	109.859	331.559	350.975	269.267	123.688	371.156	336.439	330.320	58.997	301.980	170.240	0.0013766	0.00037486	0.00021452	952.41	7.2835e-06	8.3254e-06	787.45	398.28	7.0667e-06	6.5082e-06	337.93	151.81	178.79	99.99	6.721e-06	87.221	0.00011994	9.7172e-05	2.705e-05	886.06	1.0863e-06	1.0943e-06	732.52	369.03	1.0966e-06	1.0507e-06	309.08	137.45	164.68	91.878	1.0976e-06	78.88	296.972	129.258	139.466	58.847	191.897	218.840	56.944	62.985	192.171	154.908	59.365	63.272	66.313	68.868	200.146	64.705	-8191	255	
863.723	1	1	0	0	0.14122	0.088854	0.090522	0.12794	0.18088	0.19575	0.18013	0.46793	0.15028	0.16806	0.14026	0.27145	0.32247	0.32899	0.26236	0.21859	0.95	-0.50417	0.15	0.13125	-0.34792	0.34583	-0.39583	-0.22292	0.33542	-0.325	-0.04375	0.24167	-0.80833	-0.09375	0.041667	-0.53333	242.840	117.348	302.329	295.027	397.969	369.884	95.601	392.181	296.228	85.803	137.245	361.141	392.734	357.621	296.941	218.016	0.0013856	0.00020186	0.00019343	955.6	4.7231e-06	4.6546e-06	784.18	396.17	6.8215e-06	5.0796e-06	336.41	151.51	178.47	100.3	8.3356e-06	86.437	0.00011954	9.7717e-05	2.7044e-05	885.05	1.0604e-06	1.0506e-06	728.32	367.93	1.0705e-06	1.0334e-06	306.39	136.84	164.36	91.778	1.0838e-06	78.499	302.013	139.953	136.246	58.598	174.060	231.611	57.090	63.112	194.786	166.405	59.639	63.477	66.285	69.264	182.848	65.104	-8191	255	
863.843	1	1	0	0	0.3936	0.12942	0.12316	0.24943	0.1956	0.11321	0.11482	0.12953	0.094688	0.299	0.074081	0.13076	0.21485	0.28558	0.023027	0.25861	0.90833	-0.34375	0.10208	0.39792	-0.2625	0.32292	-0.32917	-0.64167	0.69583	-0.36458	-0.05625	0.23125	-0.61042	0.11875	0.3625	-0.42917	91.949	124.335	229.348	299.530	211.098	210.681	93.727	250.311	86.225	280.393	263.239	131.321	405.012	390.267	287.221	334.938	0.0012357	0.00053052	0.00010016	946.67	3.5565e-06	6.0517e-06	782.07	396.84	9.7828e-06	7.8251e-06	336.03	150.43	178.19	99.951	5.3623e-06	86.668	0.00011934	9.606e-05	2.6725e-05	882.85	1.0537e-06	1.0682e-06	727.45	367.64	1.0837e-06	1.0481e-06	307.08	136.83	164.46	91.641	1.092e-06	78.56	296.252	96.858	160.924	58.709	192.064	200.556	57.037	63.270	172.661	166.272	60.043	63.752	66.310	69.215	202.718	64.949	-8191	255	
863.940	1	1	0	0	0.1969	0.11432	0.27657	0.32876	0.24981	0.027326	0.10291	0.19741	0.074976	0.21853	0.18879	0.064795	0.30748	0.28213	0.12311	0.32012	0.66042	-0.17083	-0.175	0.225	-0.42917	0.1375	0.05	-0.51042	0.33958	-0.19167	-0.38542	0.22917	-0.62292	0.075	0.225	-0.62292	237.323	202.956	330.701	95.377	189.078	196.787	299.746	319.794	96.000	372.716	339.214	391.626	333.998	377.416	305.736	340.615	0.0013664	0.00066257	0.00017883	948.89	7.0679e-06	6.8695e-06	786.35	396.55	1.0807e-05	3.6508e-06	335.86	152.4	178.75	100.35	6.8716e-06	87.711	0.00011852	9.8863e-05	2.6175e-05	885.48	1.0856e-06	1.0758e-06	731.02	367.57	1.0841e-06	1.0541e-06	307.09	137.55	164.54	91.782	1.1085e-06	79.143	297.409	88.286	137.504	58.711	172.691	184.959	57.271	63.150	200.414	157.599	59.578	63.533	66.302	69.230	179.842	64.738	-8191	255	
864.011	1	1	0	0	0.29939	0.16962	0.1528	0.33234	0.19471	0.3192	0.074284	0.182	0.19666	0.20054	0.23529	0.34877	0.16939	0.23183	0.12915	0.27504	0.70833	-0.060417	-0.28958	0.48542	-0.275	0	0.2	-0.60208	0.39167	-0.06875	-0.28542	0.5	-0.46667	-0.13958	0.38125	-0.38958	137.119	68.477	231.867	404.193	286.772	234.415	318.894	331.458	388.932	363.038	356.530	308.150	399.407	144.973	191.003	402.092	0.0012724	0.00032671	0.00018536	953.89	1.7808e-06	2.8876e-06	791.55	399.74	8.4926e-06	4.4219e-06	340.09	152.3	179.31	100.41	6.5736e-06	88.03	0.00011903	9.9553e-05	2.6954e-05	886.73	1.0892e-06	1.0509e-06	734.9	369.31	1.0824e-06	1.0604e-06	309.35	137.88	164.84	91.688	1.1124e-06	79.309	301.685	97.193	130.851	58.802	177.141	198.559	57.087	63.061	185.335	188.490	59.840	63.543	66.430	69.066	198.451	64.815	-8191	255	
864.130	1	1	0	0	0.17625	0.17457	0.018759	0.38382	0.39467	0.18209	0.068965	0.1616	0.09595	0.49727	0.12694	0.15045	0.19142	0.14577	0.088929	0.22339	0.85833	0.16042	-0.27083	0.39792	-0.31875	-0.00625	0.33958	-0.5875	0.19375	-0.16458	-0.72708	0.31042	-0.10833	-0.56042	0.24375	-0.51667	225.255	295.865	278.955	397.115	71.624	273.723	332.953	323.510	275.415	359.658	101.360	353.694	108.229	390.420	100.643	381.819	0.0013526	0.00069513	0.00012753	957.48	5.0532e-06	4.1357e-06	791.41	398.08	8.3098e-06	5.6352e-06	336.11	151.12	178.49	100.33	6.2655e-06	87.324	0.00011821	9.8134e-05	2.705e-05	887.54	1.0772e-06	1.0559e-06	731.73	367.86	1.0808e-06	1.0207e-06	306.97	137.03	164.35	91.675	1.0946e-06	78.783	300.573	123.312	187.268	58.517	173.453	160.265	56.955	62.987	160.209	183.194	59.708	63.132	66.202	68.995	157.329	64.824	-8191	255	
864.226	1	1	0	0	0.21333	0.25434	0.25399	0.3517	0.069776	0.17008	0.1756	0.14521	0.04905	0.13705	0.18118	0.22358	0.36909	0.2947	0.051393	0.3907	0.57083	-0.06875	-0.49583	0.325	-0.35	-0.28125	0.40208	-0.3	-0.0041667	0.18958	-0.6375	0.30208	-0.40208	-0.76667	0.40625	-0.475	139.731	108.061	388.935	344.899	180.059	381.844	296.008	362.436	134.154	85.712	356.812	282.114	353.531	365.023	348.559	361.051	0.0013696	0.00060864	7.6074e-05	953.04	5.7592e-06	5.2879e-06	786.96	398.62	1.2294e-05	5.9806e-06	338.66	151.5	179.49	100.33	6.2703e-06	87.207	0.00011997	9.8534e-05	2.7324e-05	885.66	1.0535e-06	1.0741e-06	731.56	368.48	1.0988e-06	1.0657e-06	307.79	137.07	164.61	91.72	1.1121e-06	78.93	301.827	106.729	167.487	58.393	145.844	205.433	57.160	63.013	153.865	188.395	59.307	63.308	66.312	68.914	182.295	64.856	-8191	255	
864.322	1	1	0	0	0.25736	0.21323	0.14321	0.11715	0.24205	0.089712	0.10288	0.28958	0.18495	0.16777	0.2122	0.16095	0.18245	0.23917	0.18788	0.25915	0.35208	0.25833	-0.40625	0.38125	-0.13333	-0.41875	0.24583	-0.49375	-0.035417	0.35833	-0.60833	0.035417	-0.027083	-0.42917	0.47083	-0.43333	347.550	187.183	258.814	184.388	352.856	155.952	255.003	311.357	126.853	183.683	317.468	87.724	337.181	354.134	72.263	347.180	0.0012871	0.00039375	8.7806e-05	956.9	4.2962e-06	7.5444e-06	790.46	400.07	8.2441e-06	6.4263e-06	338.51	152.66	179.54	100.56	9.8928e-06	88.078	0.00011989	9.8714e-05	2.6966e-05	886.91	1.0824e-06	1.0329e-06	733.06	368.44	1.1034e-06	1.06e-06	308.99	137.69	164.74	91.914	1.0849e-06	79.362	299.938	97.505	170.333	59.003	143.862	216.134	57.031	63.059	157.446	187.710	59.461	63.032	66.324	68.914	196.998	64.788	-8191	255	
864.419	1	1	0	0	0.22434	0.26556	0.22647	0.23979	0.14347	0.15558	0.10879	0.08173	0.36165	0.1764	0.32056	0.15877	0.050076	0.13336	0.14514	0.06455	0.35625	0.32083	-0.67708	0.17708	0.13542	-0.28542	0.37708	-0.22708	-0.35	0.53125	-0.43958	0.19167	-0.029167	-0.52917	0.35	-0.2	123.555	49.990	165.804	304.705	367.902	348.476	313.679	404.879	399.307	349.229	45.868	96.499	156.772	322.254	175.115	401.560	0.0013719	0.00053031	0.00018614	951.93	4.3185e-06	6.8032e-06	790.46	398.6	2.7624e-06	6.7676e-06	341.4	153.63	179.17	100.7	9.6756e-06	88.033	0.00011968	9.9272e-05	2.6908e-05	884.7	1.0874e-06	1.0599e-06	733.97	369.03	1.0887e-06	1.0667e-06	310.16	138.49	164.89	91.927	1.108e-06	79.439	301.344	93.677	126.620	58.224	157.299	196.393	56.915	63.023	116.103	175.613	59.562	62.967	65.955	68.844	190.783	64.975	-8191	255	
864.515	1	1	0	0	0.094791	0.26003	0.20282	0.32961	0.32078	0.18165	0.1807	0.34672	0.16177	0.2649	0.14945	0.2269	0.42686	0.24082	0.14045	0.092852	0.11875	0.375	-0.25417	-0.11875	0.14167	-0.43542	0.016667	-0.32917	-0.23333	0.425	-0.33333	0.066667	0.25833	-0.60417	0.3625	0.0375	156.715	390.879	281.147	358.044	251.913	379.752	323.269	48.937	83.092	53.789	391.753	401.592	389.665	404.937	376.155	286.174	0.001378	0.00040131	0.00015395	950.06	8.2525e-06	5.0641e-06	789.69	399.19	5.5947e-06	4.9168e-06	336.27	151.18	178.18	100.19	4.4224e-06	87.23	0.00012051	9.7611e-05	2.6718e-05	885.03	1.0956e-06	1.0556e-06	731.07	368.57	1.0757e-06	1.0653e-06	307.08	136.9	163.94	91.491	1.1054e-06	78.6	295.038	132.083	131.479	58.513	186.397	229.909	57.066	63.145	157.989	154.901	59.369	63.261	66.370	68.993	171.400	64.887	-8191	255	
864.611	1	1	0	0	0.22611	0.19306	0.16072	0.12034	0.20467	0.11727	0.2331	0.41788	0.26975	0.077274	0.083362	0.1784	0.17713	0.22516	0.042147	0.46693	0.1	0.42292	-0.50417	-0.18125	0.22083	-0.44375	0.27708	0.041667	-0.275	0.3125	-0.46875	-0.039583	0.2875	-0.725	0.30625	0.064583	364.806	342.916	288.473	372.380	86.573	172.795	324.305	290.685	332.695	217.976	304.940	66.642	310.366	355.410	155.020	367.511	0.0011673	0.00078442	0.00012784	952.31	5.7196e-06	8.2742e-06	780.01	397.45	1.0334e-05	6.1686e-06	338.05	150.82	178.12	99.82	7.6525e-06	87.078	0.00011885	9.7498e-05	2.6508e-05	884.81	1.1103e-06	1.0787e-06	727.34	367.01	1.0881e-06	1.053e-06	306.86	136.36	163.7	91.298	1.1061e-06	78.515	297.452	105.650	124.753	58.607	169.997	180.536	56.930	62.977	154.793	134.328	59.506	63.195	66.140	69.017	188.291	65.105	-8191	255	
864.707	1	1	0	0	0.20328	0.092679	0.19633	0.28424	0.031364	0.13645	0.11015	0.19823	0.045623	0.22613	0.22399	0.042665	0.091635	0.16867	0.11615	0.084024	-0.045833	0.47083	-0.1125	-0.15625	0.44375	-0.29792	0.0875	0.21667	-0.23125	0.32708	-0.29583	-0.29792	0.40833	-0.5375	0.025	0.17292	255.267	131.993	74.106	348.461	55.714	106.755	105.766	45.865	50.915	48.239	67.642	90.641	345.655	53.253	329.479	380.956	0.0013605	0.00049787	0.00014693	955.28	1.0615e-05	3.5969e-06	784.14	395.65	9.2787e-06	3.2563e-06	336.45	151.76	177.37	99.646	5.8488e-06	87.248	0.00011833	9.8759e-05	2.7179e-05	884.04	1.075e-06	1.0474e-06	729.52	366.6	1.0907e-06	1.0752e-06	307.43	136.8	163.71	91.399	1.1221e-06	78.761	299.271	95.857	143.008	58.474	181.243	160.151	57.092	63.101	168.967	191.424	59.517	63.267	66.290	69.135	185.862	64.931	-8191	255	
864.803	1	1	0	0	0.20609	0.041156	0.28168	0.10887	0.27861	0.098107	0.22085	0.25068	0.21387	0.082393	0.12842	0.13792	0.24255	0.26244	0.23689	0.16702	-0.064583	0.275	-0.13542	-0.11458	0.44792	-0.225	-0.04375	0.22083	-0.44792	0.20625	-0.064583	-0.32083	0.23958	-0.25625	0.13958	0.18333	358.488	274.914	328.726	143.554	338.046	226.322	60.161	392.522	194.346	51.943	111.188	334.972	391.691	399.591	372.574	385.784	0.0012118	0.00065167	0.00016965	947.73	9.5025e-06	3.981e-06	781.67	397.29	5.1916e-06	1.2484e-06	338.46	151.67	177.85	100.25	7.8653e-06	87.354	0.00011944	9.7261e-05	2.6643e-05	884.52	1.1066e-06	1.0671e-06	730.37	367.92	1.1037e-06	1.085e-06	309.17	137.4	163.89	91.672	1.129e-06	79.073	295.932	108.086	136.581	58.900	155.392	198.137	56.980	63.384	135.228	142.235	59.959	63.325	66.148	69.235	225.946	64.771	-8191	255	
864.924	1	1	0	0	0.1649	0.28734	0.061052	0.091534	0.28437	0.26785	0.23786	0.40516	0.12013	0.1367	0.37311	0.22663	0.3802	0.17833	0.26822	0.28585	0.2625	0.34167	0.22917	-0.33958	0.27917	-0.035417	-0.027083	0.32083	-0.27708	0.41458	0.10833	-0.36667	0.31875	-0.38125	-0.1375	0.2125	313.025	141.877	318.681	240.474	354.812	172.230	342.063	338.870	86.016	189.033	74.597	345.364	66.245	338.500	45.144	74.830	0.0013548	0.00050511	0.00014513	952.36	2.6766e-06	4.3952e-06	783.67	397.42	6.6633e-06	8.8412e-06	336.49	150.03	177.44	99.753	9.2641e-06	86.71	0.00011852	9.8833e-05	2.6875e-05	883.97	1.1028e-06	1.0626e-06	729.14	366.52	1.1017e-06	1.066e-06	306.2	136.3	163.44	91.314	1.1305e-06	78.24	300.418	104.329	153.343	58.800	131.985	149.421	56.769	63.008	197.474	168.204	59.591	63.609	66.346	69.154	198.902	64.645	-8191	255	
865.018	1	1	0	0	0.10812	0.37814	0.33039	0.1396	0.2034	0.057672	0.011593	0.37659	0.32664	0.095823	0.17918	0.14261	0.3594	0.26788	0.19065	0.23985	0.10417	0.21458	0.61667	-0.46667	0.375	0.039583	-0.52708	0.38542	-0.48125	0.31667	0.33542	-0.62917	0.24792	-0.30833	-0.13542	0.32083	106.114	294.674	262.214	335.261	202.576	273.557	242.527	382.811	351.360	134.995	402.821	65.537	403.719	390.964	295.471	330.350	0.0013525	0.00072837	7.6028e-05	952.13	7.0266e-06	6.6564e-06	778.22	395	7.5687e-06	5.8506e-06	333.68	150.58	177.13	99.026	7.8134e-06	86.543	0.00011915	9.986e-05	2.7486e-05	883.56	1.0979e-06	1.0716e-06	724.76	365.5	1.0787e-06	1.0816e-06	304.47	135.92	162.98	90.981	1.0914e-06	78.017	297.260	109.562	123.746	58.761	186.131	197.189	56.967	63.419	172.819	135.709	59.873	62.978	66.371	69.393	200.818	65.172	-8191	255	
865.114	1	1	0	0	0.18106	0.24022	0.050821	0.23758	0.1335	0.0783	0.16161	0.23988	0.085151	0.13807	0.029433	0.13229	0.18937	0.23856	0.023211	0.24447	0.064583	0.25625	0.22292	-0.45833	0.45	-0.12083	-0.33333	0.48542	-0.15833	-0.05	0.39583	-0.54167	0.20833	0.022917	-0.21458	0.375	151.748	192.539	81.096	321.442	383.446	114.868	318.530	312.349	81.153	391.870	321.181	399.813	333.922	385.104	79.038	389.734	0.0013211	0.00049682	0.00020134	945.39	6.2034e-06	4.3915e-06	777.23	393.93	8.7844e-06	5.9387e-06	332.42	150.14	177.45	99.397	6.1327e-06	86.733	0.00011773	9.6752e-05	2.6748e-05	882.75	1.0804e-06	1.0965e-06	724.7	365.79	1.0842e-06	1.0558e-06	304.9	135.98	163.13	91.146	1.0968e-06	78.424	300.310	141.805	139.146	59.013	169.139	168.743	56.882	63.048	164.687	153.962	59.669	63.358	66.170	69.373	218.818	64.831	-8191	255	
865.211	1	1	0	0	0.28186	0.011906	0.15294	0.19815	0.073388	0.14794	0.13158	0.2775	0.17348	0.27511	0.020405	0.2228	0.23963	0.12163	0.27863	0.35401	0.15833	-0.085417	0.43333	-0.58958	0.37917	0.21667	-0.47917	0.38958	-0.097917	-0.28958	0.47917	-0.34792	0.0375	0.13958	-0.22083	0.24167	262.206	153.958	319.558	298.238	292.477	294.449	268.523	46.254	100.530	233.802	247.571	51.904	374.898	120.901	193.527	384.329	0.001374	0.00063661	0.00011655	951.29	2.9506e-06	3.297e-06	786.09	394.04	9.0524e-06	6.6412e-06	336.98	151.95	177.98	99.576	1.2713e-05	87.266	0.00012265	9.9149e-05	2.7581e-05	883.94	1.086e-06	1.082e-06	729.11	365.71	1.0822e-06	1.0609e-06	306.96	137.13	163.64	91.322	1.1001e-06	78.936	299.604	130.210	196.037	58.784	182.830	202.236	56.803	63.258	186.448	202.096	59.554	63.505	66.105	69.437	190.094	64.795	-8191	255	
865.307	1	1	0	0	0.24675	0.28937	0.08712	0.15868	0.1842	0.072512	0.11166	0.28949	0.11658	0.2725	0.22587	0.30419	0.13797	0.18223	0.086138	0.16306	0.44375	-0.26458	0.49375	-0.56875	0.11042	0.42083	-0.425	0.2875	-0.014583	-0.2125	0.34792	-0.53333	-0.0041667	0.225	-0.37917	0.2	339.606	285.111	254.007	69.962	373.635	227.657	317.892	340.167	284.152	47.350	51.050	366.748	405.087	112.104	338.209	286.888	0.0014806	0.00048135	0.00016906	946.87	6.1255e-06	5.9358e-06	784.7	394.76	9.0188e-06	4.3642e-06	335.7	150.6	177.2	99.22	7.2506e-06	86.575	0.00012019	9.8465e-05	2.7645e-05	883.86	1.082e-06	1.0945e-06	730.2	366.01	1.103e-06	1.068e-06	306.15	136.6	163.54	91.123	1.1245e-06	78.425	295.570	113.387	103.544	58.897	162.921	194.106	57.068	63.373	137.584	195.704	59.476	63.606	66.288	69.398	237.283	64.719	-8191	255	
865.403	1	1	0	0	0.11574	0.094437	0.059875	0.3771	0.046054	0.10116	0.19686	0.27326	0.18087	0.17004	0.28468	0.082942	0.20533	0.27253	0.13176	0.20681	0.47917	-0.27292	0.52292	-0.23542	-0.12708	0.42708	-0.71042	0.05625	0.23958	-0.25833	0.38958	-0.19792	-0.28958	0.4	-0.2375	-0.025	139.337	250.666	117.324	370.868	124.662	385.969	192.888	362.362	233.126	285.451	394.990	61.723	358.010	342.863	359.927	266.274	0.0014185	0.00042506	0.00011208	947	4.4352e-06	8.3738e-06	782.7	394.06	1.0638e-05	5.7523e-06	335.18	150.98	177.88	99.592	4.8988e-06	87.235	0.00012133	9.9666e-05	2.7752e-05	881.88	1.0894e-06	1.1033e-06	727.65	365	1.1168e-06	1.0716e-06	305.42	136.19	163.03	91.177	1.1174e-06	78.43	298.419	167.659	152.190	58.945	176.599	217.812	57.278	63.183	153.078	179.645	59.673	63.388	66.097	69.044	156.463	64.585	-8191	255	
865.523	1	1	0	0	0.23445	0.075242	0.2912	0.15756	0.2434	0.23442	0.3771	0.043496	0.29399	0.048112	0.10872	0.32303	0.35556	0.35046	0.072987	0.22017	0.86458	-0.44583	0.3875	-0.2	-0.20833	0.23333	-0.48333	0.17292	0.17708	-0.53125	0.33958	-0.0375	-0.42083	0.24375	-0.23333	-0.0625	284.761	395.051	109.208	283.331	212.052	179.340	381.955	400.836	257.205	193.890	55.189	394.807	394.227	314.220	221.063	64.595	0.001317	0.00049714	0.00010915	948.85	6.0872e-06	5.8668e-06	780.14	396.03	6.9164e-06	5.0816e-06	334.2	151.4	177.59	99.303	7.7859e-06	86.557	0.0001243	9.8863e-05	2.7527e-05	883.23	1.0838e-06	1.0882e-06	728.22	366.47	1.1197e-06	1.0969e-06	305.96	136.74	163.22	91.034	1.118e-06	78.297	297.705	88.632	175.169	58.995	181.889	216.713	57.097	63.335	159.896	152.473	59.813	63.598	66.161	69.071	198.085	64.908	-8191	255	
865.620	1	1	0	0	0.046755	0.051048	0.13813	0.17266	0.14602	0.16745	0.12233	0.1115	0.14128	0.2112	0.37593	0.30579	0.23309	0.17574	0.19008	0.083899	0.83542	-0.45417	0.34375	0.23958	-0.45208	0.29583	-0.30417	-0.25833	0.49167	-0.38542	0.26667	0.2	-0.59792	0.27083	-0.20208	-0.10625	384.863	403.890	159.542	45.581	129.814	229.523	55.930	260.910	51.571	142.342	201.104	385.647	402.386	312.494	91.467	248.160	0.0013523	0.00057424	0.00018865	952.34	4.7283e-06	5.6069e-06	784.65	393.64	7.1773e-06	6.0571e-06	338.85	151.99	176.81	99.936	7.5925e-06	87.416	0.00012014	9.8664e-05	2.7955e-05	884.46	1.0941e-06	1.0786e-06	731	365.61	1.104e-06	1.0477e-06	307.42	137.17	163.19	91.332	1.0893e-06	78.849	295.818	88.821	128.782	58.979	195.054	162.588	57.049	63.366	157.328	143.811	59.098	63.446	65.958	68.971	186.552	64.339	-8191	255	
865.716	1	1	0	0	0.25975	0.16089	0.22651	0.1094	0.028913	0.14174	0.20456	0.31598	0.10577	0.078686	0.089607	0.18159	0.20808	0.21075	0.21153	0.36448	0.95208	-0.29375	0.24583	0.054167	-0.45417	0.33958	-0.14792	-0.095833	0.40625	-0.31875	0.14375	0.39167	-0.67292	0.30417	0.00625	-0.44792	202.552	75.421	294.700	109.854	182.667	313.113	54.441	289.102	404.031	342.228	283.106	358.654	352.126	374.053	262.145	50.920	0.0014312	0.00022192	0.00010773	952.28	3.2936e-06	3.7282e-06	787.41	398.02	1.1351e-05	7.9274e-06	338.85	152.56	178.34	99.789	7.1611e-06	88.133	0.0001203	9.7845e-05	2.7115e-05	884.38	1.0554e-06	1.0642e-06	732.62	366.89	1.0981e-06	1.066e-06	308.06	137.37	163.75	91.189	1.1211e-06	78.834	305.374	76.450	150.396	58.637	154.814	173.332	56.910	62.711	166.111	156.046	59.044	63.425	65.948	68.966	232.221	64.619	-8191	255	
865.812	1	1	0	0	0.29693	0.069038	0.26991	0.18329	0.061387	0.32903	0.13955	0.30394	0.18474	0.25339	0.16595	0.24963	0.22938	0.28009	0.053174	0.36307	0.76875	-0.19792	0.22917	0.12917	-0.5	0.41667	-0.15417	-0.45	0.37292	-0.35208	-0.20417	0.33542	-0.65833	-0.10625	0.4	-0.51458	341.475	153.484	268.753	249.803	354.083	391.522	309.682	340.738	239.027	213.317	55.250	76.063	368.681	363.300	337.413	266.728	0.0012827	0.00053354	0.00025527	952.79	1.5083e-06	3.5962e-06	790.36	397.14	7.8456e-06	5.5837e-06	337.55	150.39	177.64	99.671	9.3168e-06	87.595	0.00011901	9.7886e-05	2.7063e-05	882.48	1.063e-06	1.0605e-06	729.79	366.49	1.109e-06	1.0539e-06	305.22	136.39	163.25	91.021	1.0885e-06	78.606	298.250	77.102	131.430	58.366	135.089	169.960	56.461	62.723	173.255	179.002	58.933	63.125	65.808	68.741	196.969	64.398	-8191	255	
865.908	1	1	0	0	0.31078	0.20058	0.071702	0.15798	0.14286	0.099207	0.41183	0.1918	0.090366	0.2133	0.17053	0.1926	0.092819	0.16154	0.20005	0.10899	0.88125	-0.13125	-0.11458	0.43542	-0.48542	0.12708	-0.039583	-0.4625	0.40208	-0.1625	-0.28958	0.33958	-0.69375	0.03125	0.24167	-0.4125	99.990	387.420	302.962	372.478	227.262	322.331	330.944	108.789	171.782	369.788	220.092	306.646	315.754	374.072	92.974	371.036	0.0012874	0.00025099	0.00017525	951.63	4.0917e-06	5.7245e-06	785.01	394.76	5.1154e-06	3.159e-06	336.7	151.6	177.63	99.664	9.1934e-06	87.205	0.00011922	9.4715e-05	2.6423e-05	882.21	1.0557e-06	1.0452e-06	727.72	365.28	1.074e-06	1.0431e-06	305.92	136.48	163.08	90.997	1.1071e-06	78.642	299.684	105.469	143.557	58.638	174.291	198.247	56.529	62.639	157.657	221.961	59.060	62.723	65.753	68.508	181.469	64.489	-8191	255	
866.002	1	1	0	0	0.041031	0.43326	0.11823	0.19985	0.24144	0.33662	0.24504	0.20985	0.31351	0.083241	0.21354	0.13606	0.27117	0.29199	0.15694	0.23345	0.6875	-0.054167	-0.18542	0.42708	-0.38542	0.095833	0.17917	-0.49792	0.40208	-0.17917	-0.48125	0.32708	-0.4625	-0.15	0.43125	-0.41042	348.144	253.365	103.506	321.284	169.100	214.043	323.321	336.595	305.236	64.664	213.346	105.199	292.247	331.824	286.038	349.362	0.0013602	0.00054785	6.7063e-05	951.41	5.7156e-06	1.8765e-06	788.24	396.01	4.7192e-06	5.391e-06	337.76	151.76	177.48	99.575	1.0941e-05	87.83	0.00011859	9.6772e-05	2.6493e-05	881.28	1.0492e-06	1.0423e-06	731.03	365.88	1.0803e-06	1.0432e-06	308.05	137.31	163.63	91.203	1.095e-06	79.051	296.072	98.744	139.596	58.185	178.508	143.054	56.641	62.694	200.505	166.639	58.859	62.820	65.965	68.585	201.085	64.415	-8191	255	
866.099	1	1	0	0	0.28088	0.1709	0.28193	0.3943	0.1535	0.14105	0.14342	0.19428	0.15924	0.14867	0.12442	0.39923	0.2476	0.36816	0.27411	0.21874	0.64375	0.24167	-0.27292	0.25	-0.27708	-0.070833	-0.125	-0.475	0.3875	0.020833	-0.30625	0.43958	-0.53333	-0.31042	0.38542	-0.58333	126.652	67.557	102.171	351.889	398.622	309.291	365.073	77.154	183.138	342.295	290.230	339.152	387.114	53.307	48.642	69.272	0.0012667	0.00048543	8.0878e-05	950.78	5.5485e-06	5.3693e-06	791.55	396.68	6.7332e-06	3.9847e-06	337.66	152.6	178.79	100.03	8.2158e-06	87.979	0.00011716	9.7258e-05	2.662e-05	882.93	1.0659e-06	1.0183e-06	733.23	366.57	1.0524e-06	1.042e-06	307.97	137.76	163.84	91.384	1.0805e-06	79.168	298.430	110.082	164.965	58.404	152.631	171.363	56.218	62.509	186.329	173.624	59.037	62.867	65.971	68.692	185.210	64.523	-8191	255	
866.195	1	1	0	0	0.021566	0.1459	0.068001	0.1511	0.29901	0.12693	0.28168	0.10634	0.17094	0.12918	0.25418	0.29553	0.36527	0.50324	0.34959	0.21046	0.24375	0.18542	-0.30208	0.2	-0.1375	-0.083333	0.28333	-0.50208	0.23333	0.32292	-0.61875	0.27292	-0.33542	-0.18333	0.57708	-0.41667	353.424	110.090	90.513	339.764	368.675	45.174	387.942	85.887	395.931	320.352	341.830	60.914	47.570	350.211	238.794	90.608	0.0012683	0.00068052	0.00014792	949.16	5.2886e-06	4.9499e-06	784.79	397.68	7.3672e-06	6.6496e-06	334.78	150.46	177.6	99.45	7.7538e-06	86.909	0.00011754	9.6333e-05	2.6087e-05	880.39	1.0567e-06	1.0518e-06	728.05	366.66	1.0631e-06	1.0567e-06	305.67	136.16	162.86	90.85	1.0999e-06	78.191	299.720	112.180	157.366	58.716	152.541	221.542	56.264	62.941	153.277	162.055	59.044	62.878	65.841	68.818	208.760	64.456	-8191	255	
866.315	1	1	0	0	0.20731	0.11574	0.096124	0.094401	0.29678	0.28663	0.21761	0.2637	0.18934	0.21445	0.34986	0.18955	0.16159	0.28552	0.046498	0.0085616	0.51458	0.32292	-0.31458	0.23958	-0.27292	-0.39583	0.37083	-0.62917	0.15208	0.34167	-0.72083	0.29583	-0.28333	-0.45833	0.38125	-0.48333	126.829	135.159	140.555	378.987	319.631	379.716	340.149	340.533	318.204	80.873	98.193	225.001	264.731	49.330	180.302	85.281	0.0013925	0.0006461	0.00015419	945.37	6.6433e-06	5.9427e-06	782.58	395.78	1.2705e-05	5.5307e-06	334.97	150.87	176.9	99.156	1.0186e-05	87.138	0.00011869	9.5418e-05	2.645e-05	877.14	1.0578e-06	1.056e-06	724.17	364.9	1.0641e-06	1.0329e-06	304.91	135.97	162.46	90.874	1.0991e-06	78.274	299.048	118.444	119.505	58.415	164.922	208.450	56.734	62.865	162.420	161.418	59.006	63.027	66.236	68.807	192.758	64.319	-8191	255	
866.412	1	1	0	0	0.22757	0.13768	0.16749	0.24378	0.16932	0.14932	0.29723	0.15645	0.12639	0.20401	0.052138	0.14258	0.50141	0.32423	0.17748	0.31529	0.3625	0.49583	-0.44167	0.12708	0.060417	-0.35417	0.48333	-0.06875	0.033333	0.41042	-0.44375	0.16042	0.25	-0.66042	0.21458	-0.28333	360.780	335.441	253.190	294.128	154.498	378.186	88.491	341.853	258.902	211.581	205.846	371.917	45.295	66.580	217.758	62.966	0.0012248	0.00010134	0.00016857	949.16	5.4217e-06	1.3223e-06	782.42	396.83	5.2137e-06	7.6788e-06	335.46	151.16	177.42	99.085	7.0078e-06	87.176	0.000117	9.5941e-05	2.6163e-05	879.62	1.073e-06	1.0385e-06	727.13	365.16	1.0718e-06	1.0536e-06	305.76	136.53	163.03	90.945	1.0812e-06	78.653	300.600	119.116	167.203	58.223	157.887	108.216	56.546	62.995	159.348	180.144	59.201	62.756	65.914	68.625	176.574	64.429	-8191	255	
866.483	1	1	0	0	0.11609	0.030315	0.25987	0.19918	0.11989	0.27353	0.37606	0.37442	0.26085	0.07502	0.24115	0.17043	0.26257	0.28077	0.14208	0.04482	0.27917	0.42083	-0.26458	0.075	0.24583	-0.41458	0.31667	-0.30208	-0.225	0.48125	-0.48333	0.054167	0.016667	-0.55208	0.37083	-0.27083	340.950	239.946	358.091	104.999	304.253	52.308	305.418	336.768	393.218	286.868	344.602	63.621	373.618	382.728	286.985	191.820	0.0012446	0.00020455	0.00011254	949.94	6.1476e-06	6.9515e-06	786.81	395.23	1.0173e-05	6.4612e-06	338.33	152.61	177.72	100.02	4.8383e-06	87.437	0.00011934	9.5965e-05	2.6948e-05	880.3	1.0771e-06	1.0225e-06	730.3	365.47	1.0733e-06	1.0463e-06	307.05	137.39	163.21	91.263	1.0888e-06	78.937	294.794	122.537	133.866	58.184	181.223	212.534	56.316	62.764	204.798	204.435	58.996	62.750	65.864	68.831	219.163	64.777	-8191	255	
866.604	1	1	0	0	0.069407	0.23021	0.31369	0.13227	0.34129	0.26184	0.09198	0.38159	0.20609	0.18202	0.36602	0.28578	0.086491	0.36859	0.13781	0.066745	0.11667	0.60208	-0.11042	0.0125	0.37292	-0.57917	0.22708	-0.23125	-0.33125	0.32292	-0.27708	-0.26667	0.29375	-0.80625	0.095833	0.075	74.512	168.531	264.350	352.174	320.425	281.928	400.080	334.941	244.263	314.375	341.863	379.657	218.779	390.594	174.599	57.236	0.0013261	0.00044757	0.00026764	943.76	5.5866e-06	7.7212e-06	782.48	394.54	7.2533e-06	4.4324e-06	333.75	150.16	176.8	99.087	4.8385e-06	86.565	0.00011798	9.6309e-05	2.64e-05	878.42	1.0894e-06	1.0254e-06	725.59	364.65	1.0494e-06	1.0486e-06	305.24	135.95	162.64	90.843	1.0974e-06	78.069	300.604	101.330	148.394	58.371	191.226	206.173	56.453	62.900	179.683	177.846	59.541	62.953	65.914	68.845	197.686	64.666	-8191	255	
866.700	1	1	0	0	0.21172	0.11569	0.16419	0.16315	0.21731	0.14489	0.16781	0.25077	0.37962	0.13381	0.1763	0.34486	0.24242	0.20163	0.18264	0.27123	-0.060417	0.32292	-0.325	-0.18333	0.54792	-0.4	0.34375	0.19375	-0.46875	0.4	-0.24375	-0.13333	0.39583	-0.575	0.31042	0.2125	169.539	144.656	374.823	334.447	381.647	92.228	291.017	396.836	48.349	121.312	124.842	50.286	78.031	314.299	211.117	380.321	0.0012969	0.00070638	0.0001573	945.68	5.2377e-06	1.8286e-06	777.29	395.69	4.1569e-06	7.8155e-06	331.94	151.04	177.48	99.085	7.3824e-06	86.596	0.00011725	9.8855e-05	2.6699e-05	877.5	1.0734e-06	1.0273e-06	722.83	364.77	1.0705e-06	1.0608e-06	303.16	135.79	162.52	90.656	1.0882e-06	78.093	302.982	109.196	159.116	58.106	179.954	171.216	56.645	62.671	200.276	179.206	59.108	62.897	65.843	68.542	224.485	64.599	-8191	255	
866.796	1	1	0	0	0.077773	0.052658	0.12747	0.049572	0.10681	0.021199	0.2147	0.33754	0.40856	0.39635	0.050212	0.25732	0.494	0.28742	0.36912	0.33339	-0.060417	0.44375	0.09375	-0.34792	0.64167	-0.15417	-0.0020833	0.12292	-0.29792	0.19583	-0.091667	-0.59792	0.13125	-0.51875	0.17083	0.03125	227.049	184.265	249.577	358.885	246.242	373.013	356.353	368.395	317.112	135.597	153.720	79.084	355.112	351.228	128.854	330.684	0.001248	0.00056595	0.00012931	944.82	7.1402e-06	8.3913e-06	784.33	393.83	4.8413e-06	7.2977e-06	335.61	150.72	178.17	99.197	9.0986e-06	87.314	0.00011725	9.59e-05	2.7206e-05	879.01	1.0815e-06	1.0486e-06	727.16	364.95	1.0985e-06	1.0578e-06	305.03	136.14	162.87	90.921	1.0831e-06	78.534	301.057	147.547	136.211	58.083	174.323	184.700	56.536	62.986	178.561	168.815	59.328	63.107	65.929	69.269	204.954	64.957	-8191	255	
866.892	1	1	0	0	0.076501	0.089652	0.29694	0.16798	0.2588	0.096664	0.18529	0.23962	0.11237	0.22348	0.16424	0.084494	0.2685	0.32744	0.076985	0.10009	-0.08125	0.19375	0.0020833	-0.49792	0.43333	-0.18542	-0.12083	0.23333	-0.41458	0.26458	0.10417	-0.51458	0.33958	-0.56667	-0.15417	0.32917	258.863	204.200	182.491	298.529	149.918	222.750	334.621	223.807	190.848	104.036	267.961	249.255	390.533	376.307	395.240	112.733	0.0014194	0.00057707	0.00027142	950.78	7.1056e-06	3.3824e-06	787.68	394.23	1.0707e-05	6.5209e-06	337.7	152.19	177.68	99.453	5.7393e-06	87.278	0.00011754	9.7561e-05	2.6696e-05	880.61	1.0794e-06	1.0503e-06	728.42	365.17	1.0874e-06	1.0567e-06	306.88	137.1	163.06	90.998	1.0869e-06	78.715	299.428	112.699	144.744	58.492	176.212	176.479	56.563	62.840	168.368	198.056	59.331	62.987	66.183	68.815	195.212	64.839	-8191	255	
867.013	1	1	0	0	0.21908	0.24445	0.22793	0.26915	0.1752	0.11816	0.30852	0.21849	0.26303	0.23657	0.26622	0.1312	0.10183	0.15783	0.25883	0.19781	0.0125	0.22708	0.44792	-0.51667	0.24792	-0.1	-0.17292	0.35625	-0.2375	0.15208	0.2875	-0.47917	0.41875	-0.22083	-0.28125	0.38333	86.707	74.755	351.193	80.334	112.849	179.359	228.416	357.627	116.830	370.903	346.352	394.998	148.161	68.369	257.352	394.891	0.0013622	0.00067136	0.00015931	949.02	6.409e-06	3.7034e-06	788.84	395.41	1.0651e-05	8.7161e-06	334.99	150.92	177.31	99.3	5.1132e-06	87.166	0.00011986	9.6248e-05	2.7074e-05	881.91	1.0655e-06	1.0432e-06	731.05	365.95	1.0879e-06	1.0376e-06	306.28	136.6	162.63	90.811	1.0609e-06	78.546	297.379	123.484	137.316	58.416	170.012	206.336	56.555	63.102	171.655	169.456	59.554	63.324	65.921	69.008	188.388	64.869	-8191	255	
867.107	1	1	0	0	0.28739	0.14579	0.27722	0.34309	0.37377	0.16154	0.18305	0.26102	0.17448	0.085496	0.35114	0.18384	0.10307	0.26346	0.18099	0.048089	-0.16667	0.066667	0.3375	-0.73542	0.33542	0.0875	-0.45	0.45208	-0.17708	-0.17292	0.45625	-0.6	0.15833	0	-0.45833	0.16667	217.405	388.608	99.791	321.314	331.775	143.466	77.601	359.122	102.253	357.539	325.203	67.663	335.392	351.995	316.309	243.101	0.0013862	0.00039829	0.00017824	947.29	7.6996e-06	4.8512e-06	784.7	395.48	6.8503e-06	3.1312e-06	337.46	151.67	176.91	99.344	7.0424e-06	87.288	0.00011914	9.5292e-05	2.6746e-05	880.07	1.0683e-06	1.0722e-06	728.97	365.08	1.066e-06	1.0396e-06	306.38	136.61	162.58	90.814	1.0866e-06	78.55	303.518	116.646	136.186	58.700	191.051	171.466	57.064	62.961	155.641	212.154	59.328	63.279	66.113	68.884	175.851	64.843	-8191	255	
867.203	1	1	0	0	0.13884	0.14397	0.1426	0.072855	0.17067	0.054889	0.24845	0.13714	0.14319	0.30529	0.26335	0.04089	0.11248	0.32363	0.029852	0.2101	0.13333	0.05625	0.26458	-0.52917	0.16042	-0.00625	-0.47708	0.10625	-0.19583	-0.05	0.2625	-0.36667	0.05625	0.11667	-0.17083	0.054167	165.485	77.842	224.032	104.479	48.852	153.437	376.721	338.613	60.153	357.825	391.232	260.180	118.435	359.341	313.968	353.017	0.0014056	0.00019583	0.00015895	949.23	7.703e-06	3.7419e-06	784.3	395.56	2.1622e-06	4.545e-06	337.52	151.72	177.41	99.31	6.089e-06	87.315	0.00011638	9.6863e-05	2.6893e-05	881.1	1.0702e-06	1.0678e-06	730.29	365.47	1.0753e-06	1.0479e-06	306.89	137.16	162.82	91.053	1.0976e-06	78.735	303.907	169.678	156.585	58.665	163.459	190.894	56.880	62.854	190.714	197.564	59.627	63.121	65.920	69.171	185.653	64.939	-8191	255	
867.300	1	1	0	0	0.077104	0.13575	0.13374	0.15605	0.16991	0.043561	0.16633	0.17829	0.097763	0.1769	0.064353	0.21702	0.33671	0.22713	0.056369	0.3	0.21458	-0.19583	0.68542	-0.66875	0.10417	0.24167	-0.57708	0.24375	-0.025	-0.13958	0.46875	-0.12292	-0.091667	0.20625	-0.12292	0.17708	200.829	224.461	102.071	268.880	257.406	348.774	398.688	349.876	389.671	322.647	394.778	328.906	386.871	368.076	171.117	74.728	0.0013525	0.00054588	0.00012668	950.97	5.6142e-06	6.2746e-06	789.16	395.14	8.4676e-06	3.5285e-06	340.26	152.21	178.13	99.667	1.1549e-05	87.749	0.00011911	9.6906e-05	2.7312e-05	883.06	1.0702e-06	1.0673e-06	732.29	365.41	1.1048e-06	1.0491e-06	308.35	137.64	163.28	91.089	1.0773e-06	79.224	298.615	109.758	147.212	58.330	165.047	193.200	56.887	62.904	156.357	132.882	59.515	63.493	66.111	68.823	182.000	65.001	-8191	255	
867.396	1	1	0	0	0.064606	0.22704	0.31012	0.23143	0.15062	0.052299	0.21996	0.20186	0.143	0.15505	0.1891	0.058056	0.21341	0.11879	0.15736	0.17653	0.59167	-0.33333	0.56458	-0.32083	0.064583	0.55	-0.46667	0.2375	0.19792	-0.29375	0.5375	-0.4125	-0.12083	0.27083	-0.57917	0.0375	395.272	154.405	165.754	50.388	245.202	71.389	101.104	46.967	67.242	242.097	182.619	88.116	52.984	67.851	237.671	309.046	0.0014645	0.00069405	0.00011405	957.92	7.1662e-06	3.7305e-06	791.85	396.52	3.0218e-06	5.781e-06	337.27	152.03	177.5	99.425	9.3957e-06	87.172	0.00012102	9.6726e-05	2.765e-05	883.83	1.0785e-06	1.0603e-06	734.75	365.8	1.0834e-06	1.063e-06	307.22	137.28	162.97	90.98	1.0769e-06	78.739	297.211	115.940	180.578	58.756	199.567	194.358	57.048	63.164	199.711	195.106	59.616	63.547	66.168	69.150	215.003	64.805	-8191	255	
867.492	1	1	0	0	0.086066	0.14641	0.28507	0.16622	0.17276	0.18424	0.3004	0.51271	0.078226	0.20168	0.27724	0.4177	0.19004	0.54928	0.0062776	0.045752	0.57708	-0.45833	0.48333	-0.11875	-0.25208	0.43958	-0.58958	0.12292	0.40625	-0.44375	0.26875	-0.2375	-0.21458	0.033333	-0.26667	0.11042	339.829	145.391	46.454	97.373	101.141	337.085	397.338	382.510	393.205	213.759	56.617	327.683	55.143	361.054	279.419	161.875	0.0012727	0.00070262	0.00018953	948.14	5.1433e-06	6.4493e-06	783.51	394.17	7.9979e-06	3.678e-06	334.61	150.23	177.02	99.279	8.1865e-06	86.652	0.00011947	9.8002e-05	2.7056e-05	881.88	1.056e-06	1.0475e-06	729.34	364.87	1.1007e-06	1.0461e-06	304.82	136.31	162.58	90.693	1.0745e-06	78.221	298.252	107.599	150.332	59.027	185.832	202.726	57.123	62.858	157.113	179.927	59.412	63.432	66.188	69.159	206.902	64.672	-8191	255	
867.613	1	1	0	0	0.38039	0.18878	0.11377	0.1402	0.30804	0.036502	0.15171	0.35271	0.26054	0.16713	0.34058	0.20803	0.20244	0.26353	0.28261	0.20999	0.57708	-0.42917	0.56875	-0.24375	-0.36042	0.63958	-0.3625	-0.0625	0.38125	-0.23125	0.18542	0.083333	-0.40417	0.38125	-0.085417	-0.35	260.773	304.866	97.808	310.814	307.032	207.753	48.349	320.887	192.894	97.542	306.324	66.949	350.002	382.310	103.039	327.057	0.0013394	0.0005047	0.00014035	947.43	5.76e-06	7.7783e-06	784.9	393.07	7.2159e-06	5.9694e-06	333.84	151.16	176.71	99.28	9.1707e-06	87.124	0.00011776	9.5236e-05	2.7113e-05	880.58	1.0631e-06	1.0658e-06	728.35	364.03	1.0896e-06	1.0613e-06	305	136.69	162.47	90.766	1.085e-06	78.548	303.368	112.281	143.902	58.587	192.231	202.906	57.081	63.069	140.575	173.137	59.686	63.520	65.986	69.069	202.844	64.952	-8191	255	
867.709	1	1	0	0	0.13017	0.33829	0.19533	0.08672	0.13386	0.08539	0.3765	0.092222	0.10489	0.18602	0.21383	0.12588	0.34267	0.32248	0.27409	0.069599	0.89792	-0.34792	0.27083	0.075	-0.2125	0.5375	-0.30833	-0.20833	0.67292	-0.11667	0.18542	0.35833	-0.63333	0.3	0.070833	-0.2875	127.794	224.342	153.207	257.484	178.701	173.550	363.632	105.549	107.950	61.255	256.281	381.291	395.756	385.744	232.797	286.594	0.0013339	0.00053796	0.00018152	946.31	7.8374e-06	6.8914e-06	781.6	391.7	5.927e-06	6.6127e-06	337.48	151.81	177.3	99.197	8.9991e-06	87.133	0.00011925	9.6129e-05	2.6871e-05	880.95	1.0655e-06	1.0743e-06	729.35	363.92	1.0696e-06	1.0326e-06	306.69	136.85	162.63	90.918	1.0984e-06	78.717	298.627	165.902	137.399	58.771	196.592	176.764	57.096	63.032	178.353	181.314	59.525	63.191	66.323	69.169	210.355	64.629	-8191	255	
867.780	1	1	0	0	0.049377	0.15706	0.32451	0.3154	0.30594	0.27635	0.19182	0.40946	0.050577	0.24586	0.17955	0.29721	0.35872	0.029705	0.13481	0.31988	0.875	-0.28125	0.097917	0.275	-0.46458	0.48125	-0.13125	-0.38542	0.575	-0.24792	0.0083333	0.37292	-0.48333	0.22292	0.20625	-0.53125	358.481	328.028	284.214	350.390	62.841	367.969	242.989	368.544	115.604	140.470	366.715	51.570	397.996	122.829	142.649	399.943	0.0012612	0.00044854	9.2713e-05	950.45	6.6739e-06	4.1531e-06	786.94	395.24	8.4426e-06	8.1901e-06	335.74	152.01	177.36	99.784	8.9012e-06	87.218	0.00011673	9.702e-05	2.666e-05	882.28	1.0678e-06	1.0587e-06	733.05	365.69	1.084e-06	1.0615e-06	307.08	137.29	162.95	91.08	1.1054e-06	78.634	302.815	116.637	151.945	58.872	178.114	206.987	56.796	62.831	179.970	171.154	59.188	63.327	66.136	68.821	202.234	64.684	-8191	255	
867.876	1	1	0	0	0.21295	0.088327	0.1299	0.15383	0.21265	0.20472	0.24975	0.29222	0.32041	0.083324	0.40605	0.093355	0.11017	0.02122	0.032478	0.13232	0.74792	-0.25	-0.014583	0.53542	-0.26875	0.20417	0.1125	-0.40833	0.44792	-0.06875	-0.26458	0.55	-0.57917	0.11042	0.3625	-0.42708	78.343	299.202	171.332	85.322	365.524	354.279	398.095	376.652	129.617	165.419	325.806	224.846	285.117	90.425	84.555	46.415	0.0013501	0.00044282	0.00018443	944.13	6.868e-06	2.3598e-06	786.05	394.16	1.0909e-05	4.2526e-06	333.3	149.47	176.19	98.813	5.4173e-06	86.84	0.00012072	9.6796e-05	2.7427e-05	879.27	1.0726e-06	1.0666e-06	727.28	363.58	1.1101e-06	1.0592e-06	304.15	135.29	161.77	90.322	1.1077e-06	77.939	298.588	116.124	125.915	58.488	176.135	203.751	56.790	62.753	161.865	160.199	59.185	63.189	65.915	68.606	208.261	64.414	-8191	255	
867.995	1	1	0	0	0.059954	0.17412	0.14415	0.17527	0.27226	0.058182	0.18983	0.1316	0.1862	0.16958	0.13849	0.11705	0.25021	0.48509	0.14034	0.27964	0.92708	-0.12083	-0.035417	0.28333	-0.4	0.23333	0.31667	-0.55625	0.5625	-0.2875	-0.3875	0.46875	-0.46875	0.047917	0.51458	-0.46042	189.782	130.488	45.637	117.199	376.467	68.843	383.907	243.133	102.953	288.442	359.904	212.068	385.500	359.594	199.543	365.639	0.0013764	0.0005096	0.00021956	952.62	4.6692e-06	3.8949e-06	781.89	392.49	6.7994e-06	4.1813e-06	333.71	150.52	175.9	98.882	1.1343e-05	86.763	0.00011801	9.8961e-05	2.6985e-05	880.59	1.0829e-06	1.0753e-06	725.41	363.11	1.1068e-06	1.0698e-06	303.86	135.65	161.66	90.452	1.0936e-06	78.074	296.125	103.628	148.782	58.518	158.125	173.267	56.780	63.086	149.029	161.236	59.696	63.267	65.663	68.397	174.987	63.865	-8191	255	
868.092	1	1	0	0	0.22283	0.3015	0.25145	0.19359	0.18475	0.11469	0.23803	0.31282	0.24727	0.22473	0.10201	0.1703	0.31072	0.54528	0.10661	0.36143	0.87708	0.15	-0.12083	0.58542	-0.097917	0.035417	0.41875	-0.52708	0.54792	0.14375	-0.15208	0.56667	-0.43958	-0.23125	0.58542	-0.44375	200.289	340.454	138.475	57.863	272.282	235.706	46.848	325.526	125.703	162.821	249.758	306.664	331.178	397.702	241.973	326.098	0.0013347	0.00060359	0.00012229	945.77	7.0598e-06	6.4564e-06	782.88	394.83	5.2082e-06	3.5071e-06	335.01	150.3	176.07	99.125	8.9111e-06	87.08	0.00012044	9.8547e-05	2.6877e-05	879.26	1.0753e-06	1.078e-06	727.47	363.23	1.1153e-06	1.0555e-06	305.02	135.81	162.04	90.526	1.1155e-06	78.518	300.932	129.619	114.418	57.818	199.857	168.997	56.469	61.496	164.003	200.595	58.033	61.463	64.432	67.329	202.560	63.240	-8191	255	
868.188	1	1	0	0	0.34877	0.20414	0.1608	0.32231	0.072456	0.20841	0.17224	0.36568	0.11763	0.22853	0.22563	0.20391	0.19712	0.19685	0.22587	0.25652	0.69375	0.36875	-0.23542	0.21875	-0.052083	0.027083	0.31458	-0.38958	0.32917	0.3	-0.45208	0.56875	-0.28542	-0.27917	0.57917	-0.68125	192.476	178.964	382.904	381.209	160.203	88.452	377.566	351.676	327.767	235.563	92.645	289.484	382.963	376.116	62.731	335.190	0.0013715	0.0005224	0.00011411	947.23	5.7879e-06	4.0043e-06	787.45	395.03	1.0535e-05	3.8657e-06	336.32	150.59	176.61	98.766	1.2688e-05	87.045	0.00012128	9.9097e-05	2.7139e-05	880.91	1.0969e-06	1.0752e-06	731.16	364.68	1.1056e-06	1.0897e-06	305.66	136.72	162.46	90.652	1.107e-06	78.733	297.631	125.631	117.452	57.122	184.558	144.865	55.286	61.431	177.681	210.577	57.924	61.630	64.524	67.364	174.440	63.038	-8191	255	
868.284	1	1	0	0	0.17756	0.25426	0.15075	0.52503	0.11356	0.11166	0.36108	0.11477	0.35951	0.09918	0.11452	0.29639	0.41439	0.31415	0.23437	0.10358	0.57708	0.25625	-0.36042	0.40625	-0.041667	-0.26458	0.36667	-0.41458	0.32292	0.3875	-0.50625	0.32708	-0.025	-0.36042	0.51667	-0.44792	171.962	278.338	290.168	384.552	62.857	85.378	331.170	278.631	230.178	309.071	390.403	348.977	370.056	342.433	233.358	272.534	0.0012805	0.00055849	0.00016912	945.44	8.814e-06	4.9497e-06	781.95	393.12	5.8069e-06	5.5519e-06	334.24	150.45	175.92	98.968	1.1744e-05	86.184	0.00011929	9.8095e-05	2.7535e-05	879.99	1.0931e-06	1.0625e-06	726.9	363.66	1.09e-06	1.0669e-06	303.87	135.93	161.85	90.544	1.1035e-06	77.934	301.842	99.941	149.821	57.025	176.469	197.720	55.338	61.489	191.057	204.230	57.570	61.508	64.522	67.278	187.952	63.373	-8191	255	
868.404	1	1	0	0	0.19674	0.21356	0.11993	0.18986	0.23745	0.18438	0.13097	0.32142	0.19009	0.18421	0.20383	0.071717	0.37606	0.2665	0.28752	0.15856	0.28958	0.30625	-0.33542	0.1375	0.175	-0.16667	0.49167	-0.32292	-0.06875	0.42292	-0.66875	0.37292	0.070833	-0.55	0.42917	-0.33958	342.243	118.876	301.824	386.751	257.601	354.929	68.095	398.818	357.200	334.352	106.215	383.150	50.296	369.699	232.184	217.307	0.0013949	0.00034622	0.00014872	947.1	5.8156e-06	7.1204e-06	781.04	392.51	2.3065e-06	7.4029e-06	332.47	150.67	175.81	98.735	5.9815e-06	86.526	0.00012282	9.7974e-05	2.7166e-05	877.67	1.0877e-06	1.0763e-06	726.15	363.37	1.1061e-06	1.0673e-06	303.49	135.83	161.75	90.416	1.099e-06	78.132	294.795	91.088	142.989	57.187	167.064	166.319	55.374	61.743	107.214	175.210	58.330	62.189	64.572	66.483	201.433	62.687	-8191	255	
868.476	1	1	0	0	0.077111	0.23727	0.26624	0.12728	0.22793	0.12716	0.094833	0.32446	0.05286	0.13922	0.30616	0.166	0.28455	0.32931	0.21363	0.32213	0.275	0.48958	-0.41458	0.26875	0.11458	-0.32708	0.33958	-0.27917	-0.05625	0.65833	-0.40208	0.13542	0.10625	-0.51458	0.53542	-0.21042	128.790	156.250	206.707	75.059	263.134	279.045	44.726	314.981	158.099	133.377	59.107	111.480	398.017	360.021	57.647	317.293	0.0013852	0.00061237	0.00021295	944.62	5.7133e-06	5.081e-06	784.82	393.1	4.8853e-06	5.3889e-06	332.1	149.74	176.65	99.189	1.0199e-05	86.915	0.00012118	9.9473e-05	2.7687e-05	879.29	1.0988e-06	1.0777e-06	728.42	363.56	1.0865e-06	1.073e-06	303.73	135.66	162.19	90.525	1.1213e-06	78.449	296.017	147.989	141.093	56.423	182.357	183.007	54.386	60.878	176.606	162.843	57.368	60.806	63.902	66.798	206.013	62.486	-8191	255	
868.572	1	1	0	0	0.17336	0.14197	0.18572	0.19938	0.30205	0.11352	0.44063	0.21527	0.10002	0.11093	0.14272	0.087693	0.27957	0.24476	0.22922	0.15455	0.27917	0.58542	-0.1875	-0.10625	0.21458	-0.47708	0.20417	-0.14792	-0.2625	0.39583	-0.36875	-0.25	0.44792	-0.68542	0.38542	0.083333	101.380	230.750	291.468	389.661	345.396	400.031	348.176	344.116	188.512	81.512	321.844	101.204	337.107	363.650	251.718	342.438	0.0013211	0.0007389	4.6132e-05	945.82	4.4604e-06	4.4745e-06	788.01	392.78	9.0943e-06	2.6437e-06	336.45	151.01	176.68	98.89	7.376e-06	87.251	0.00011869	9.9008e-05	2.7368e-05	879.78	1.0671e-06	1.063e-06	732.02	363.82	1.0702e-06	1.0593e-06	306.57	136.64	162.13	90.618	1.1001e-06	78.786	294.080	102.632	173.204	56.230	138.157	216.441	54.384	60.781	193.590	209.666	57.402	61.377	64.227	66.887	200.561	62.609	-8191	255	
868.693	1	1	0	0	0.18452	0.082022	0.1044	0.22025	0.1026	0.13725	0.19505	0.20119	0.17684	0.20552	0.16666	0.19256	0.15721	0.33385	0.16904	0.2287	0.18542	0.59375	-0.31875	-0.21875	0.65625	-0.18958	0.14583	0.05	-0.30417	0.23333	-0.41667	-0.083333	0.37083	-0.38125	0.23542	0.24792	151.805	109.811	195.810	331.995	320.740	227.270	309.480	350.306	236.943	155.500	362.880	301.301	157.493	57.419	154.271	43.130	0.0012445	0.00068806	0.00016702	941.62	6.8282e-06	2.6681e-06	783.23	392.57	8.0016e-06	7.8767e-06	335.29	151.14	176.08	98.59	5.6416e-06	86.398	0.00011781	9.7256e-05	2.7003e-05	878.73	1.0741e-06	1.0545e-06	729.85	363.66	1.0647e-06	1.0491e-06	305.46	136.16	161.87	90.342	1.0797e-06	78.107	300.386	89.419	169.462	56.538	161.135	164.910	54.736	61.031	148.672	149.686	57.322	61.165	63.785	66.959	183.078	62.636	-8191	255	
868.789	1	1	0	0	0.2261	0.028549	0.079765	0.16271	0.067875	0.19574	0.29101	0.12594	0.051693	0.19083	0.22734	0.19988	0.23512	0.22032	0.18211	0.26354	0.125	0.46042	-0.045833	-0.15208	0.40208	-0.38333	0.10625	0.20208	-0.23333	0.24167	0.14167	-0.12708	0.17917	-0.3375	-0.072917	0.37708	145.282	204.945	171.592	60.944	134.747	133.817	344.423	335.966	396.261	284.072	399.391	298.153	354.655	336.505	127.569	303.570	0.0012594	0.00049697	0.00016765	941.6	4.4259e-06	3.3236e-06	783.76	392.04	7.7979e-06	7.3495e-06	332.41	150.64	175.08	98.87	9.3746e-06	86.582	0.00011757	9.5262e-05	2.6307e-05	876.78	1.0837e-06	1.0581e-06	726.95	363.57	1.0596e-06	1.0506e-06	303.92	136.01	161.5	90.476	1.0785e-06	78.238	301.749	139.406	184.474	56.281	126.155	153.870	55.011	60.917	193.701	192.690	57.380	61.302	64.152	66.988	197.067	62.792	-8191	255	
868.885	1	1	0	0	0.123	0.043828	0.20915	0.22929	0.19018	0.17508	0.20808	0.40596	0.2882	0.30411	0.16784	0.19663	0.16899	0.45236	0.1799	0.36117	-0.079167	0.375	0.17917	-0.325	0.48542	-0.42708	0.04375	0.46667	-0.42708	0.44583	0.15625	-0.37292	0.56042	-0.36458	-0.058333	0.42083	359.654	138.493	247.908	357.235	112.807	166.211	351.763	381.444	143.380	132.893	55.213	379.769	349.889	372.116	398.853	281.491	0.0014196	0.00015921	0.00014365	943.96	4.8223e-06	5.7057e-06	787.37	392.74	4.5213e-06	8.1466e-06	336.43	151.99	176.27	99.092	1.269e-05	87.019	0.00011608	9.5816e-05	2.7009e-05	877.33	1.0527e-06	1.0343e-06	728.86	363.95	1.0523e-06	1.0351e-06	305.14	136.42	161.92	90.646	1.0916e-06	78.596	299.044	125.625	128.092	56.532	174.231	215.715	54.688	61.184	185.355	187.041	57.459	60.888	64.166	67.165	210.036	62.540	-8191	255	
869.004	1	1	0	0	0.19728	0.20863	0.34034	0.3006	0.10993	0.062222	0.36964	0.255	0.21444	0.062763	0.16182	0.087691	0.15872	0.1851	0.12599	0.24564	0.04375	0.29792	0.33958	-0.61458	0.46042	0.039583	-0.225	0.39167	-0.2875	0.12708	0.21042	-0.34583	0.29375	-0.19167	-0.13333	0.51458	120.684	267.090	81.493	394.360	296.121	55.989	372.871	313.029	252.354	137.789	350.113	299.733	352.717	393.254	223.053	310.745	0.0013945	0.00054422	0.0001261	943.42	5.2932e-06	5.7307e-06	787.38	392.57	7.2125e-06	4.8797e-06	335.41	151.7	176.58	99.137	8.7334e-06	87.229	0.00011775	9.6512e-05	2.609e-05	876.82	1.074e-06	1.0321e-06	730.03	364.19	1.0523e-06	1.0648e-06	306.98	136.91	162.56	90.857	1.0631e-06	78.845	298.902	101.738	130.647	56.275	142.832	205.776	54.957	60.977	169.886	149.478	57.562	61.277	64.218	67.277	211.634	62.632	-8191	255	
869.076	1	1	0	0	0.074205	0.084823	0.09712	0.37696	0.091847	0.17666	0.16529	0.25794	0.17894	0.1417	0.15874	0.21256	0.16345	0.14674	0.030209	0.22832	-0.027083	0.022917	0.56042	-0.41042	0.41458	-0.016667	-0.14792	0.38958	-0.17083	0.15417	0.14583	-0.27292	0.13542	0.29375	-0.19375	0.39167	332.081	147.666	45.355	65.716	45.410	352.222	266.454	381.265	279.388	292.649	345.223	331.171	58.465	55.760	104.788	87.886	0.0012291	0.0003886	0.0001605	942.32	3.7338e-06	6.8349e-06	788.09	392.95	6.8576e-06	5.3427e-06	334.71	150.3	176.16	98.753	5.5439e-06	86.309	0.00011598	9.7051e-05	2.6515e-05	878.83	1.067e-06	1.0479e-06	731.32	363.87	1.0839e-06	1.0436e-06	305.3	136.35	162.04	90.377	1.0911e-06	78.214	302.377	139.208	157.015	56.663	177.117	206.156	55.009	61.005	157.318	197.990	57.728	61.572	64.366	67.238	168.503	63.121	-8191	255	
869.172	1	1	0	0	0.14061	0.051569	0.087974	0.066678	0.17615	0.22799	0.11038	0.22335	0.12242	0.16716	0.086851	0.14811	0.13663	0.21738	0.16189	0.060339	0.17292	-0.11667	0.26458	-0.42917	0.2125	0.12292	-0.52292	0.38125	-0.033333	-0.11667	0.55417	-0.5625	0.14375	-0.04375	-0.17708	0.32083	257.527	132.468	316.130	402.856	232.058	357.688	321.964	342.774	390.883	318.962	96.099	279.639	118.024	348.785	287.036	153.257	0.0012757	0.00054603	0.00011453	943.11	6.9721e-06	7.2834e-06	780.8	393.24	3.9102e-06	7.9842e-06	332.9	149.71	175.18	98.642	7.0688e-06	85.887	0.00011836	9.6437e-05	2.6536e-05	877.23	1.057e-06	1.052e-06	726.65	363.75	1.0837e-06	1.0273e-06	303.08	135.37	161.47	90.276	1.0746e-06	77.779	296.310	82.457	133.875	56.813	144.532	223.008	55.081	61.119	165.441	173.556	57.451	61.640	64.214	67.284	166.809	62.931	-8191	255	
869.293	1	1	0	0	0.26277	0.081751	0.095755	0.18001	0.17865	0.10451	0.16859	0.18051	0.21605	0.15472	0.029909	0.17597	0.12549	0.089421	0.15305	0.061816	0.22292	-0.16667	0.58542	-0.41458	0.37083	0.23333	-0.37292	0.27917	0	-0.3	0.38542	-0.39583	-0.077083	0.20625	-0.45833	0.35417	235.958	123.911	256.573	353.120	165.876	184.669	364.728	296.757	233.513	351.736	219.264	298.766	121.069	377.149	74.610	350.380	0.0012616	0.00039628	0.00015808	942.32	4.2277e-06	7.6094e-06	777.7	392.89	7.5866e-06	2.724e-06	332.52	150.62	175.85	98.803	5.4942e-06	86.834	0.00011794	9.6339e-05	2.6802e-05	874.49	1.0597e-06	1.0678e-06	724.2	362.84	1.0677e-06	1.0327e-06	304.03	135.69	161.59	90.332	1.0743e-06	78.09	297.280	89.060	140.041	56.814	178.067	207.757	54.703	60.817	181.474	153.016	57.767	61.442	64.466	67.277	190.025	62.722	-8191	255	
869.389	1	1	0	0	0.10046	0.28658	0.1258	0.080223	0.43741	0.20692	0.134	0.34043	0.14948	0.20775	0.21107	0.088102	0.28935	0.20272	0.094135	0.097954	0.57083	-0.32083	0.66875	-0.41458	0.14583	0.50833	-0.52292	0.2875	0.089583	-0.32083	0.58958	-0.20625	-0.20208	0.2125	-0.40417	0.19792	325.908	126.762	260.332	379.953	110.553	303.776	336.721	370.901	349.045	273.038	364.659	370.897	84.643	85.149	96.493	57.270	0.0013485	0.00042206	0.00018003	944.53	8.1763e-06	4.1724e-06	788.46	391.93	7.6939e-06	5.2539e-06	334.58	150.33	176.29	99.004	6.9066e-06	86.909	0.00011808	9.4239e-05	2.7338e-05	878.24	1.0639e-06	1.0537e-06	728.86	363.32	1.0526e-06	1.0291e-06	304.6	136.29	162.07	90.552	1.0745e-06	78.466	300.312	132.212	154.201	57.141	165.661	204.984	55.204	61.379	160.027	130.089	57.797	61.707	64.513	67.346	215.094	63.027	-8191	255	
869.485	1	1	0	0	0.34635	0.2802	0.1116	0.37719	0.01058	0.34512	0.36131	0.21607	0.31429	0.029087	0.028548	0.34964	0.22751	0.18643	0.44506	0.34063	0.58125	-0.47708	0.33125	-0.3625	-0.2125	0.30625	-0.35	0.1	0.20625	-0.25417	0.35417	-0.091667	-0.27083	0.28125	-0.28542	0.12917	326.003	318.879	335.419	382.215	302.620	244.968	321.154	317.148	327.814	147.671	200.925	364.538	384.867	339.977	330.336	123.014	0.0013135	0.00087897	0.0001697	943.71	5.9679e-06	3.3353e-06	786.5	393.83	6.9832e-06	5.3056e-06	333.98	151.48	175.74	98.803	7.6493e-06	86.799	0.00011626	9.7652e-05	2.7195e-05	878.75	1.0525e-06	1.0607e-06	730.08	363.84	1.0684e-06	1.0345e-06	305.43	136.62	161.66	90.458	1.0617e-06	78.307	298.554	116.697	146.023	57.267	147.448	249.846	55.115	61.213	148.163	148.217	57.886	61.689	64.521	67.312	192.726	63.057	-8191	255	
869.581	1	1	0	0	0.11257	0.1441	0.025402	0.13849	0.10095	0.12369	0.29996	0.29371	0.22314	0.12449	0.25176	0.23517	0.21311	0.45717	0.21711	0.28842	0.56875	-0.29792	0.52917	-0.1	-0.12083	0.50417	-0.42708	0.072917	0.59167	-0.53958	0.30625	0.12292	-0.46042	0.375	-0.15208	0.016667	73.494	357.535	182.377	129.922	127.851	173.531	311.299	402.421	265.093	277.954	277.760	280.857	353.237	398.013	43.439	312.221	0.0011913	0.00072249	0.00020587	944.85	5.6984e-06	3.1454e-06	777.04	391.44	9.456e-06	7.8446e-06	330.84	150.25	176.02	98.6	2.6467e-06	86.272	0.00011706	9.5502e-05	2.6249e-05	877.16	1.0574e-06	1.0296e-06	723.39	362.13	1.0687e-06	1.0722e-06	302.19	135.23	161.9	90.28	1.0826e-06	77.721	297.335	124.319	166.336	57.023	172.041	175.902	55.325	61.391	173.234	166.171	57.715	61.779	64.551	67.237	209.164	63.004	-8191	255	
869.677	1	1	0	0	0.35928	0.2362	0.21657	0.30109	0.28984	0.15011	0.11882	0.22975	0.28207	0.02001	0.14526	0.20892	0.12228	0.19349	0.27395	0.26621	0.77083	-0.325	0.32292	0.047917	-0.29167	0.34583	-0.25833	-0.10208	0.42083	-0.50417	0.24792	0.13958	-0.53958	0.27292	-0.275	-0.3125	159.842	71.608	204.796	363.318	51.139	125.461	221.227	303.699	390.084	95.427	126.373	53.663	354.804	368.419	356.050	62.868	0.0012117	0.00091443	0.00013817	939.04	4.0595e-06	2.0699e-06	777.61	392.6	1.0227e-05	3.82e-06	332.65	149.38	176.26	98.592	7.3997e-06	86.224	0.00011785	9.632e-05	2.6794e-05	875.67	1.0582e-06	1.0545e-06	724.97	362.7	1.0962e-06	1.0436e-06	302.49	135.28	161.44	90.272	1.0713e-06	77.886	298.876	125.371	112.605	56.988	162.975	183.898	55.524	61.304	138.353	150.681	58.165	61.784	64.537	67.372	198.308	63.277	-8191	255	
869.773	1	1	0	0	0.22342	0.30368	0.074858	0.098111	0.24422	0.12638	0.26062	0.13904	0.16711	0.12759	0.26652	0.19828	0.33745	0.27088	0.085153	0.16398	0.775	-0.4	0.1625	0.11667	-0.17083	0.48125	-0.26667	-0.30417	0.41458	-0.35	-0.039583	0.12708	-0.49375	0.19375	-0.08125	-0.24792	234.523	73.372	344.124	148.485	365.961	157.514	329.843	323.984	124.458	150.000	224.195	392.941	397.120	72.785	347.449	388.119	0.0012493	0.00046675	0.00022002	944.21	6.9442e-06	2.4176e-06	788.24	393.17	1.0788e-05	5.2835e-06	332.93	150.3	175.78	98.974	8.7391e-06	86.892	0.00011978	9.6873e-05	2.6767e-05	876.59	1.0595e-06	1.0438e-06	728.39	362.81	1.0579e-06	1.0447e-06	303.84	136.11	161.79	90.568	1.0832e-06	78.447	297.891	128.033	126.074	57.221	137.830	150.806	55.178	61.252	162.631	106.016	58.069	61.922	64.878	67.638	193.497	63.479	-8191	255	
869.869	1	1	0	0	0.10169	0.22592	0.25925	0.14432	0.1721	0.01166	0.1064	0.13541	0.24635	0.12763	0.33062	0.17741	0.25637	0.17348	0.14087	0.24892	0.79792	-0.17083	0.047917	0.40625	-0.39792	0.20625	0	-0.54792	0.6875	-0.25833	0.070833	0.35417	-0.64167	0.11042	0.21458	-0.43958	128.162	337.143	110.766	368.725	99.613	314.774	366.211	399.427	343.767	48.137	398.448	74.340	363.245	352.859	96.318	399.837	0.0012345	0.00019809	0.00019995	944.78	6.4075e-06	2.9912e-06	784.92	393.87	9.1419e-06	6.6651e-06	336.77	151.74	176.5	99.061	4.5408e-06	87.095	0.00011872	9.5673e-05	2.6579e-05	878.24	1.042e-06	1.0474e-06	730.26	363.86	1.0896e-06	1.0446e-06	306.49	137.13	162.35	90.659	1.0871e-06	78.616	295.639	133.642	127.965	57.021	179.990	182.100	55.459	61.190	169.448	162.715	57.977	62.278	64.876	67.624	219.438	63.588	-8191	255	
869.966	1	1	0	0	0.13667	0.13306	0.1349	0.30374	0.26718	0.10536	0.071035	0.29894	0.20837	0.13176	0.075548	0.17672	0.22361	0.22833	0.146	0.16343	0.87917	0.027083	-0.03125	0.41458	-0.33333	0.28542	0.1625	-0.53958	0.42708	-0.19375	-0.39583	0.34167	-0.39375	0.0875	0.43542	-0.425	70.292	177.305	142.661	350.326	131.372	54.724	203.279	349.531	59.891	196.118	355.994	126.774	104.677	81.736	132.645	211.476	0.0012726	0.00070886	0.00010454	947.69	7.586e-06	8.2573e-06	784.66	393.27	5.3202e-06	2.3358e-06	334.31	150.26	175.72	98.696	3.9734e-06	86.709	0.00011908	9.7524e-05	2.6732e-05	878.04	1.0706e-06	1.0594e-06	727.22	363.72	1.0865e-06	1.0254e-06	303.98	135.94	161.94	90.336	1.0983e-06	78.122	297.107	114.646	134.984	57.342	196.305	196.390	55.834	61.686	167.024	152.352	58.110	61.804	64.823	67.394	179.115	63.522	-8191	255	
870.084	1	1	0	0	0.1363	0.28746	0.14311	0.014835	0.1942	0.17881	0.13267	0.332	0.10034	0.057626	0.12661	0.37964	0.16147	0.30268	0.30197	0.25559	0.59792	0.058333	-0.085417	0.5375	-0.37917	0.16458	0.091667	-0.4875	0.37708	-0.025	-0.30208	0.47083	-0.50833	-0.21875	0.46667	-0.58958	350.265	361.776	327.970	327.688	365.143	221.868	159.522	79.028	165.634	215.718	282.876	357.099	114.874	392.372	353.283	50.188	0.0013536	0.00055414	0.00019422	942.85	6.7408e-06	5.9438e-06	785.72	393.96	6.2662e-06	2.6571e-06	333.16	150.82	175.63	98.755	7.5751e-06	86.701	0.00012011	9.491e-05	2.7059e-05	877.18	1.0644e-06	1.039e-06	729.78	363.89	1.0747e-06	1.0578e-06	303.88	136.2	161.75	90.325	1.0915e-06	78.328	305.784	110.989	130.108	57.461	149.087	194.545	55.884	61.898	183.074	175.839	58.147	62.076	64.829	67.691	189.637	63.598	-8191	255	
870.181	1	1	0	0	0.13991	0.2256	0.091238	0.33417	0.22129	0.30629	0.055187	0.3423	0.068429	0.11605	0.038324	0.2137	0.20697	0.22504	0.23407	0.30523	0.59792	0.13333	-0.18333	0.33125	-0.01875	0.12083	0.4375	-0.40208	0.20625	0.40625	-0.46458	0.43542	-0.53333	-0.38958	0.44792	-0.58333	48.782	304.105	310.340	49.928	377.967	179.809	324.607	390.290	164.449	165.039	381.616	324.117	95.063	122.616	131.223	325.808	0.0011877	0.00054334	0.0001876	948.42	2.0566e-06	6.0322e-06	788.35	392.3	7.4185e-06	2.242e-06	332.64	149.87	176.24	98.887	5.1357e-06	86.853	0.00011774	9.8065e-05	2.6777e-05	879.43	1.0686e-06	1.0481e-06	730.6	363.59	1.0721e-06	1.0434e-06	304.17	136.13	162.11	90.484	1.1021e-06	78.578	296.947	105.915	134.454	57.134	154.612	171.699	55.784	61.729	174.187	171.111	57.934	61.666	64.671	67.490	192.684	63.491	-8191	255	
870.277	1	1	0	0	0.41628	0.39009	0.24596	0.33664	0.24582	0.045379	0.21745	0.18311	0.14544	0.29104	0.09865	0.22427	0.19653	0.15552	0.12582	0.14862	0.73542	0.45208	-0.26667	0.36458	0.022917	-0.175	0.17917	-0.45417	0.22708	0.35417	-0.12917	0.31458	-0.20417	-0.50625	0.61667	-0.36875	46.560	135.502	256.430	343.589	145.901	335.416	352.825	328.399	177.638	80.265	387.883	354.884	362.919	369.669	276.581	253.355	0.0014402	0.00059522	0.00024917	947.69	3.5681e-06	6.6371e-06	790.51	394.34	9.5394e-06	6.8723e-06	336.67	151.81	175.97	99.026	8.4519e-06	87.651	0.0001184	9.8805e-05	2.627e-05	880.42	1.0736e-06	1.0542e-06	732.25	365.22	1.0848e-06	1.0361e-06	306.54	136.96	162.07	90.64	1.0929e-06	78.876	296.863	108.519	162.867	57.304	208.188	150.717	55.589	61.644	180.128	189.924	58.141	62.104	65.020	67.515	180.268	63.481	-8191	255	
870.373	1	1	0	0	0.19122	0.30516	0.12862	0.19764	0.12334	0.25439	0.2282	0.17819	0.091237	0.12975	0.40027	0.088348	0.26722	0.16258	0.12637	0.20226	0.40417	0.54167	-0.16667	0.36875	0.18542	-0.22917	0.36667	-0.24375	0.039583	0.40417	-0.43542	0.21667	-0.0375	-0.42917	0.45625	-0.30833	183.411	395.348	90.453	209.327	221.067	145.352	97.603	350.078	100.544	104.113	346.767	56.552	49.142	246.673	332.840	57.681	0.0012144	0.00061853	7.9954e-05	945.92	5.7552e-06	6.829e-06	785.31	394.5	5.7512e-06	5.5571e-06	332.78	149.92	176.26	98.923	1.1838e-05	86.503	0.00011645	9.9064e-05	2.6806e-05	878.49	1.0426e-06	1.055e-06	727.82	364.46	1.0874e-06	1.0564e-06	303.31	135.54	161.93	90.21	1.0929e-06	77.897	295.932	118.523	165.779	56.829	194.249	192.470	55.368	61.668	183.641	182.205	58.188	61.733	64.921	67.701	207.658	63.331	-8191	255	
870.469	1	1	0	0	0.17708	0.11638	0.14647	0.15001	0.40223	0.080884	0.36881	0.24122	0.17022	0.071546	0.045887	0.24288	0.10013	0.2928	0.23345	0.28357	0.17292	0.72708	-0.27292	0.18333	0.23958	-0.28125	0.31667	0.091667	-0.066667	0.4	-0.27083	0.2375	0.033333	-0.55417	0.52292	-0.11875	369.412	245.393	381.835	266.612	269.318	211.122	359.220	402.992	297.080	273.967	323.836	362.247	243.601	340.965	361.098	65.005	0.0012496	0.00037937	0.00026416	941.6	9.0473e-06	6.0681e-06	780.29	393.54	9.2636e-07	4.4977e-06	331.49	149.75	175.47	98.603	7.9828e-06	86.587	0.00011866	9.6752e-05	2.6844e-05	875.43	1.0904e-06	1.0698e-06	726.78	363.34	1.0601e-06	1.0481e-06	302.81	135.12	161.42	90.184	1.0846e-06	77.914	296.070	121.959	140.142	57.347	142.534	197.940	55.490	61.596	76.483	152.429	58.385	61.567	65.038	67.956	190.003	63.412	-8191	255	
870.565	1	1	0	0	0.11065	0.19311	0.19242	0.31405	0.18018	0.18034	0.13796	0.31869	0.042582	0.13516	0.11423	0.51223	0.13177	0.21556	0.078846	0.1248	0.3125	0.54167	-0.24167	0.03125	0.33542	-0.47708	0.43542	-0.045833	-0.35417	0.48958	-0.39792	0.058333	0.21875	-0.69167	0.37292	0.010417	90.630	345.468	61.165	57.798	142.171	386.245	272.553	386.441	243.846	286.621	356.737	371.534	352.608	343.881	188.923	397.086	0.0014251	0.00044636	0.00016632	946.11	5.4323e-06	5.2215e-06	785.85	393.73	5.1865e-06	6.0811e-06	332.97	150.1	175.52	98.702	8.7537e-06	87.051	0.00011993	9.8149e-05	2.6509e-05	875.74	1.0715e-06	1.0759e-06	728.67	363.68	1.0868e-06	1.0451e-06	304.23	135.78	161.49	90.227	1.1078e-06	78.264	297.121	84.872	127.881	57.294	191.514	197.144	55.775	61.843	139.291	181.115	58.239	61.930	65.087	67.838	184.533	63.546	-8191	255	
870.686	1	1	0	0	0.13662	0.14365	0.24252	0.23794	0.14793	0.20123	0.26866	0.15257	0.3119	0.12836	0.29	0.18765	0.27576	0.3669	0.12176	0.19836	0.029167	0.53125	-0.14167	-0.0875	0.32083	-0.31667	0.2875	-0.075	-0.25	0.44375	-0.27083	-0.020833	0.41875	-0.3125	0.42083	0.21667	185.191	86.221	248.765	124.789	132.797	251.692	359.975	398.600	358.829	143.602	373.702	79.107	363.835	403.173	328.752	328.701	0.0012493	0.00053561	0.00017306	945.52	4.2165e-06	7.2656e-06	786.04	393.19	1.1513e-05	6.9498e-06	334.12	150.81	176.88	99.157	6.4585e-06	87.092	0.00011703	9.7483e-05	2.7292e-05	879.11	1.0782e-06	1.0471e-06	729.76	363.54	1.0889e-06	1.0537e-06	305.61	136.22	162.34	90.711	1.1096e-06	78.525	298.106	103.356	115.703	57.364	147.392	186.423	55.860	61.938	175.331	192.467	58.644	61.852	65.308	68.105	178.957	64.011	-8191	255	
870.782	1	1	0	0	0.1682	0.27663	0.056031	0.10937	0.12695	0.17369	0.22292	0.20372	0.093616	0.23396	0.1631	0.054064	0.20847	0.31999	0.1485	0.12319	0.10417	0.42917	-0.17292	-0.11875	0.52708	-0.44792	-0.11042	0.016667	-0.38958	0.24167	-0.18125	-0.46042	0.34167	-0.41458	-0.05	0.10833	293.641	266.118	220.539	383.155	56.139	194.527	323.662	399.864	352.336	133.182	104.354	310.416	151.869	367.018	245.058	204.233	0.0014021	0.0003188	0.00013064	946.91	3.6282e-06	6.5388e-06	784.16	393.38	1.0295e-05	5.9951e-06	331.28	150.92	175.48	98.555	9.2344e-06	86.248	0.00011861	9.9722e-05	2.7085e-05	879.15	1.0638e-06	1.0724e-06	728.76	363.12	1.0852e-06	1.0546e-06	303.68	135.67	161.07	90.203	1.1102e-06	77.76	295.778	156.509	162.997	57.030	134.351	221.061	55.687	61.757	165.824	196.579	58.795	62.318	65.244	67.904	202.216	63.400	-8191	255	
870.878	1	1	0	0	0.19363	0.14621	0.21768	0.39245	0.26777	0.33449	0.21083	0.19641	0.25111	0.26309	0.092795	0.086565	0.067551	0.19483	0.1709	0.29185	-0.11042	0.26667	0.091667	-0.61667	0.46042	-0.30417	-0.1875	0.35208	-0.44167	0.27083	-0.10417	-0.39375	0.1	-0.39792	-0.17917	-0.0375	289.701	271.936	174.942	299.436	258.079	224.660	331.940	253.411	339.700	147.810	383.606	362.148	224.372	60.170	155.663	351.277	0.0012945	0.00090731	0.00015953	944.54	5.3726e-06	5.0254e-06	779.58	391.83	8.6052e-06	4.1664e-06	330.99	149.35	175.62	98.211	9.3192e-06	86.047	0.00011946	9.72e-05	2.7678e-05	876.29	1.0908e-06	1.0862e-06	723.07	361.72	1.0982e-06	1.0666e-06	300.91	134.72	160.92	89.987	1.1037e-06	77.421	302.611	147.666	132.141	57.585	156.960	200.596	55.874	61.917	150.419	156.250	58.538	62.232	64.960	67.913	172.909	63.777	-8191	255	
870.950	1	1	0	0	0.34043	0.19558	0.094333	0.19332	0.049239	0.16508	0.16654	0.3801	0.24744	0.33986	0.084873	0.3016	0.13834	0.20655	0.12537	0.093238	-0.16875	0.16042	0.11875	-0.58958	0.50625	-0.21458	-0.2375	0.1125	-0.41042	0.11042	0.19375	-0.5625	0.29375	-0.37917	-0.30833	0.2	371.393	48.777	98.416	115.114	48.399	72.887	355.601	303.331	203.365	72.984	328.607	269.014	374.099	284.870	372.245	64.462	0.0013653	0.00071286	0.00020402	941.54	3.9517e-06	4.5211e-06	779.53	391.82	8.9663e-06	5.5058e-06	330.65	149.85	174.91	98.371	1.043e-05	86.201	0.0001201	9.8746e-05	2.785e-05	875.84	1.0898e-06	1.0693e-06	724.64	361.98	1.1221e-06	1.0867e-06	301.8	134.97	160.88	89.995	1.1249e-06	77.752	297.768	114.767	145.512	57.186	191.379	212.417	55.720	62.015	155.112	157.525	58.638	61.974	65.480	67.944	200.713	63.570	-8191	255	
#DATA ENDS
