BOXY.EXE: ISS Imagent and Oximeter Data Acquisition Program Version 0.80
Ascii Record File

#ACQ INFORMATION
2  Detector Channels 
16  External MUX Channels 
1  Auxiliary Channels 
5000  Waveform (CCF) Frequency (Hz)
1  Waveforms Skipped 
30  Waveforms Averaged 
1  Cycles Averaged 
16  Acquisitions per Waveform 
10.0806  Updata Rate (Hz) 

#FILE INFORMATION
TRUE -- External MUX Channel results are PARSED.
FALSE -- AC DC and Phase are NOT grouped.
TRUE -- Companion Program Settings File CREATED.
FALSE -- AC data not excluded
FALSE -- DC data not excluded
FALSE -- Phase data not excluded
FALSE -- Auxillary Chn. data not excluded
Tab delimiters

#CALIBRATION STATE
TRUE -- Waveform Calibration Values APPLIED.


#AUX CALIBRATION VALUES
Val Type	aux-1	

Term	1.0000e+00	
Factor	0.0000e+00	


#WF CALIBRATION VALUES
A = Detector Channel
Val Type	A-AC1	A-AC2	A-AC3	A-AC4	A-AC5	A-AC6	A-AC7	A-AC8	A-AC9	A-AC10	A-AC11	A-AC12	A-AC13	A-AC14	A-AC15	A-AC16	A-DC1	A-DC2	A-DC3	A-DC4	A-DC5	A-DC6	A-DC7	A-DC8	A-DC9	A-DC10	A-DC11	A-DC12	A-DC13	A-DC14	A-DC15	A-DC16	A-Ph1	A-Ph2	A-Ph3	A-Ph4	A-Ph5	A-Ph6	A-Ph7	A-Ph8	A-Ph9	A-Ph10	A-Ph11	A-Ph12	A-Ph13	A-Ph14	A-Ph15	A-Ph16	

Term	0.00000e+00	0.00000e+00	0.00000e+00	0.00000e+00	0.00000e+00	0.00000e+00	0.00000e+00	0.00000e+00	0.00000e+00	0.00000e+00	0.00000e+00	0.00000e+00	0.00000e+00	0.00000e+00	0.00000e+00	0.00000e+00	0.00000e+00	0.00000e+00	0.00000e+00	0.00000e+00	0.00000e+00	0.00000e+00	0.00000e+00	0.00000e+00	0.00000e+00	0.00000e+00	0.00000e+00	0.00000e+00	0.00000e+00	0.00000e+00	0.00000e+00	0.00000e+00	0.00000e+00	0.00000e+00	0.00000e+00	0.00000e+00	0.00000e+00	0.00000e+00	0.00000e+00	0.00000e+00	0.00000e+00	0.00000e+00	0.00000e+00	0.00000e+00	0.00000e+00	0.00000e+00	0.00000e+00	0.00000e+00	
Factor	1.00000e+00	1.00000e+00	1.00000e+00	1.00000e+00	1.00000e+00	1.00000e+00	1.00000e+00	1.00000e+00	1.00000e+00	1.00000e+00	1.00000e+00	1.00000e+00	1.00000e+00	1.00000e+00	1.00000e+00	1.00000e+00	1.00000e+00	1.00000e+00	1.00000e+00	1.00000e+00	1.00000e+00	1.00000e+00	1.00000e+00	1.00000e+00	1.00000e+00	1.00000e+00	1.00000e+00	1.00000e+00	1.00000e+00	1.00000e+00	1.00000e+00	1.00000e+00	X	X	X	X	X	X	X	X	X	X	X	X	X	X	X	X	

B = Detector Channel
Val Type	B-AC1	B-AC2	B-AC3	B-AC4	B-AC5	B-AC6	B-AC7	B-AC8	B-AC9	B-AC10	B-AC11	B-AC12	B-AC13	B-AC14	B-AC15	B-AC16	B-DC1	B-DC2	B-DC3	B-DC4	B-DC5	B-DC6	B-DC7	B-DC8	B-DC9	B-DC10	B-DC11	B-DC12	B-DC13	B-DC14	B-DC15	B-DC16	B-Ph1	B-Ph2	B-Ph3	B-Ph4	B-Ph5	B-Ph6	B-Ph7	B-Ph8	B-Ph9	B-Ph10	B-Ph11	B-Ph12	B-Ph13	B-Ph14	B-Ph15	B-Ph16	

Term	0.00000e+00	0.00000e+00	0.00000e+00	0.00000e+00	0.00000e+00	0.00000e+00	0.00000e+00	0.00000e+00	0.00000e+00	0.00000e+00	0.00000e+00	0.00000e+00	0.00000e+00	0.00000e+00	0.00000e+00	0.00000e+00	0.00000e+00	0.00000e+00	0.00000e+00	0.00000e+00	0.00000e+00	0.00000e+00	0.00000e+00	0.00000e+00	0.00000e+00	0.00000e+00	0.00000e+00	0.00000e+00	0.00000e+00	0.00000e+00	0.00000e+00	0.00000e+00	-9.65827e+01	-1.43805e+02	-1.39444e+02	-1.81677e+02	-5.59979e+01	-8.92971e+01	-1.59950e+02	-1.62015e+02	-5.08740e+01	-7.88643e+01	-1.72352e+02	-1.71128e+02	-1.81284e+02	-1.77091e+02	-7.77532e+01	-1.49524e+02	
Factor	1.36684e-05	1.02022e-04	2.72554e-05	1.62761e-01	7.49054e-07	1.57017e-06	1.72592e-01	4.32996e-02	7.46595e-07	8.31903e-07	7.37064e-02	2.64361e-02	3.12763e-02	7.71586e-03	1.03788e-06	1.11046e-02	1.01505e-06	1.06720e-06	2.95085e-07	8.33522e-02	1.16206e-08	1.16285e-08	8.30791e-02	2.23858e-02	1.15920e-08	1.16152e-08	3.63287e-02	1.30762e-02	1.58931e-02	3.95424e-03	1.15352e-08	5.46625e-03	X	X	X	X	X	X	X	X	X	X	X	X	X	X	X	X	



#DISTANCE SETTINGS
A = Detector Channel
A-1	A-2	A-3	A-4	A-5	A-6	A-7	A-8	A-9	A-10	A-11	A-12	A-13	A-14	A-15	A-16	

2.5000e+00	3.0000e+00	2.5000e+00	3.0000e+00	2.0000e+00	3.0000e+00	1.5000e+00	3.0000e+00	3.0000e+00	3.0000e+00	3.0000e+00	3.0000e+00	3.0000e+00	3.0000e+00	1.5000e+00	3.0000e+00	

B = Detector Channel
B-1	B-2	B-3	B-4	B-5	B-6	B-7	B-8	B-9	B-10	B-11	B-12	B-13	B-14	B-15	B-16	

1.0000e+01	1.0000e+01	1.0000e+01	1.4400e+00	1.0000e+01	1.0000e+01	1.5100e+00	1.9400e+00	1.0000e+01	1.0000e+01	1.9900e+00	2.4900e+00	2.4100e+00	2.9000e+00	1.0000e+01	2.9800e+00	




#DATA BEGINS
time	group	step	mark	flag	A-AC1	A-AC2	A-AC3	A-AC4	A-AC5	A-AC6	A-AC7	A-AC8	A-AC9	A-AC10	A-AC11	A-AC12	A-AC13	A-AC14	A-AC15	A-AC16	A-DC1	A-DC2	A-DC3	A-DC4	A-DC5	A-DC6	A-DC7	A-DC8	A-DC9	A-DC10	A-DC11	A-DC12	A-DC13	A-DC14	A-DC15	A-DC16	A-Ph1	A-Ph2	A-Ph3	A-Ph4	A-Ph5	A-Ph6	A-Ph7	A-Ph8	A-Ph9	A-Ph10	A-Ph11	A-Ph12	A-Ph13	A-Ph14	A-Ph15	A-Ph16	B-AC1	B-AC2	B-AC3	B-AC4	B-AC5	B-AC6	B-AC7	B-AC8	B-AC9	B-AC10	B-AC11	B-AC12	B-AC13	B-AC14	B-AC15	B-AC16	B-DC1	B-DC2	B-DC3	B-DC4	B-DC5	B-DC6	B-DC7	B-DC8	B-DC9	B-DC10	B-DC11	B-DC12	B-DC13	B-DC14	B-DC15	B-DC16	B-Ph1	B-Ph2	B-Ph3	B-Ph4	B-Ph5	B-Ph6	B-Ph7	B-Ph8	B-Ph9	B-Ph10	B-Ph11	B-Ph12	B-Ph13	B-Ph14	B-Ph15	B-Ph16	aux-1	digaux	

1750.217	1	1	0	256	0.27446	0.11417	0.056804	0.18939	0.20562	0.13125	0.19321	0.36785	0.10023	0.038672	0.15739	0.28592	0.059618	0.24427	0.07666	0.011821	-0.14583	-0.66042	-1.2896	-0.58958	-1.0667	-0.83958	-0.6375	-1.4583	-0.64375	-0.49375	-1.5792	-0.49375	-0.9125	-1.1771	-0.45625	-1.3354	368.264	162.813	293.904	336.387	145.007	100.279	303.691	51.011	124.811	366.202	282.672	36.315	307.111	35.857	383.422	210.397	0.00039268	0.0002631	7.7752e-05	1471.2	7.1148e-06	6.6138e-06	1461	395.25	5.7105e-06	5.227e-06	443.84	147.51	128.04	43.815	7.2179e-06	53.876	0.0011929	0.0011281	0.00029937	1530.9	1.3057e-05	1.2295e-05	1511.3	412.17	1.2872e-05	1.1825e-05	466.87	157.2	139.91	46.645	1.0608e-05	57.713	206.405	56.119	349.767	48.288	233.775	50.562	48.414	53.112	260.547	219.811	52.333	57.335	57.707	61.664	176.173	61.071	-8191	255	
1750.314	1	1	0	0	0.2046	0.048219	0.29587	0.27253	0.085674	0.1819	0.12765	0.46878	0.17315	0.093069	0.080888	0.1286	0.057379	0.29486	0.081925	0.18836	-0.31042	-0.63333	-1.3396	-0.65208	-0.8625	-1.0271	-0.73125	-1.4229	-0.92708	-0.44792	-1.5688	-0.62708	-0.93542	-1.1292	-0.375	-1.4312	88.592	391.583	336.489	280.201	160.789	64.323	391.272	337.308	130.704	323.144	373.646	323.943	172.636	44.871	114.186	381.780	0.00031611	0.00058913	0.00016272	1468.4	8.7131e-06	1.7473e-05	1453.4	391.53	2.9671e-06	1.0285e-06	442.62	146.7	127.42	43.503	1.0037e-05	53.569	0.0010756	0.0010091	0.00026716	1519.4	1.1615e-05	1.0917e-05	1496.5	408.65	1.1393e-05	1.0458e-05	461.79	156.13	137.6	46.069	1.0107e-05	57.306	186.359	106.364	78.949	48.339	140.601	124.749	48.359	52.921	223.182	58.702	52.323	57.113	57.527	61.754	228.880	61.346	-8191	255	
1750.410	1	1	0	0	0.232	0.33647	0.061107	0.18257	0.17756	0.14174	0.092632	0.3022	0.23333	0.28944	0.3069	0.16917	0.22607	0.23679	0.12684	0.29437	-0.48125	-0.40417	-1.3729	-0.8625	-0.75625	-1.25	-0.73542	-1.1708	-0.975	-0.41667	-1.5375	-0.86458	-0.81667	-1.4604	-0.19583	-1.3521	139.306	51.516	118.517	97.997	110.393	366.952	325.529	354.928	197.853	389.501	252.457	64.416	358.628	226.176	387.988	66.935	0.00026771	0.00044992	0.00010916	1458.1	2.4667e-06	1.076e-05	1446.9	392.2	2.524e-06	8.3707e-06	441.01	145.45	127.38	43.632	1.078e-05	53.62	0.00099371	0.00093782	0.00026348	1514.3	1.0826e-05	1.0296e-05	1493.1	408.09	1.085e-05	1.0004e-05	461.93	155.64	136.44	46.009	1.0546e-05	57.374	171.790	116.535	174.699	48.185	57.007	369.801	48.431	53.039	213.326	161.443	52.483	57.100	57.568	61.640	206.754	61.218	-8191	255	
1750.504	1	1	0	0	0.38358	0.12513	0.30081	0.092512	0.075176	0.099155	0.19658	0.594	0.10682	0.34545	0.33059	0.45051	0.30865	0.21463	0.24433	0.14779	-0.81875	-0.4125	-1.3	-0.94792	-0.65417	-1.1792	-0.71667	-1.2375	-1.0688	-0.56667	-1.3333	-1.1146	-0.8	-1.4583	-0.47917	-0.9125	46.614	255.587	262.892	260.226	351.408	44.252	384.650	323.441	188.613	256.562	338.392	363.616	330.120	246.789	171.180	46.465	0.00025802	0.00080446	0.00032123	1456.1	2.9371e-06	1.5985e-05	1443.6	390.48	3.3307e-06	1.6972e-06	441.43	145.98	126.71	43.518	7.7526e-06	53.771	0.00097194	0.00091964	0.00027838	1511.4	1.0681e-05	1.0179e-05	1493.8	406.76	1.0822e-05	1.0008e-05	463.9	155.54	136.33	45.853	1.1118e-05	57.198	172.674	359.610	129.629	48.273	121.212	110.993	48.407	52.990	158.009	337.732	52.632	56.877	57.724	61.744	231.993	61.208	-8191	255	
1750.600	1	1	0	0	0.26484	0.044949	0.18847	0.25641	0.20137	0.18221	0.34639	0.1149	0.24722	0.32191	0.31078	0.10574	0.13244	0.09554	0.15621	0.35538	-0.82708	-0.39375	-1.2	-1.0229	-0.68333	-1.2958	-0.7125	-0.96042	-1.2188	-0.46458	-1.2917	-0.90625	-0.575	-1.6708	-0.71667	-1	127.704	75.390	390.734	41.415	339.820	335.263	339.705	266.742	284.037	296.061	341.703	388.335	302.336	344.590	122.734	279.027	0.00039184	0.0006103	5.3516e-05	1455.8	5.4797e-06	2.1711e-05	1442.3	390.66	2.9861e-06	5.1147e-06	438.65	145.6	127.15	43.185	7.3315e-06	53.556	0.00094576	0.0009066	0.00028549	1503.6	1.0256e-05	9.9927e-06	1493.4	405.43	1.0301e-05	9.9158e-06	462.99	154.31	135.28	45.685	1.1156e-05	56.742	170.486	218.091	124.639	48.283	181.211	155.742	48.408	53.002	234.618	214.861	52.343	57.112	57.868	61.856	155.272	61.241	-8191	255	
1750.721	1	1	0	0	0.022876	0.094097	0.12696	0.33417	0.20571	0.18267	0.15817	0.23438	0.18879	0.23899	0.27792	0.23623	0.11819	0.12741	0.16155	0.12554	-0.84167	-0.26042	-1.1375	-1.2313	-0.17708	-1.1917	-1.0375	-0.93958	-1.3125	-0.38333	-1.2687	-1.2188	-0.59792	-1.3542	-0.69792	-0.59583	55.156	373.425	335.834	365.379	143.324	137.979	378.812	380.941	72.249	240.970	41.683	48.483	139.272	361.689	152.853	353.494	0.00038471	0.00046538	0.00024658	1444.1	2.9108e-06	1.7257e-05	1434.3	387.69	9.0135e-07	1.1725e-05	438.49	144.76	126.97	43.202	5.4638e-06	53.239	0.00089774	0.00091948	0.00028282	1492.4	9.6698e-06	1.0158e-05	1484.7	402.37	9.7104e-06	1.015e-05	460.08	153.35	134.17	45.673	1.0799e-05	56.332	183.130	155.855	41.297	48.201	307.543	145.783	48.562	53.207	239.069	193.360	52.339	56.907	57.967	62.058	207.760	61.203	-8191	255	
1750.815	1	1	0	0	0.19474	0.016399	0.18979	0.44055	0.18307	0.36923	0.13251	0.21489	0.47204	0.25779	0.074869	0.3973	0.070266	0.093108	0.08777	0.14032	-0.95833	-0.3375	-1.1063	-1.4042	-0.58125	-1.3479	-0.68125	-1.0896	-1.3438	-0.49375	-1.0042	-1.4021	-0.38125	-1.2271	-0.80208	-0.6375	333.360	265.611	94.748	357.280	246.506	177.229	316.151	335.658	349.196	382.962	169.210	353.213	310.361	141.656	368.646	288.083	0.00032354	0.0009438	0.00023079	1441.7	4.4594e-06	4.736e-06	1429.2	385.21	5.1993e-06	2.5775e-06	436.97	144.16	126.47	43.018	3.4796e-06	53.018	0.00085488	0.00094335	0.00027148	1480.7	9.2601e-06	1.0327e-05	1475.2	399.26	9.281e-06	1.0428e-05	456.83	152.2	133.38	45.576	1.0231e-05	55.865	175.764	105.683	350.675	48.233	195.700	194.351	48.445	52.969	214.974	253.610	52.525	56.892	57.820	62.056	275.704	61.166	-8191	255	
1750.912	1	1	0	0	0.12104	0.18244	0.14819	0.15178	0.37612	0.080185	0.27797	0.38224	0.17683	0.14379	0.37688	0.098063	0.062869	0.045295	0.18504	0.14377	-0.8875	-0.53542	-0.88333	-1.1479	-0.33125	-1.0458	-1.1854	-0.77917	-1.3854	-0.6625	-0.90833	-1.4771	-0.20417	-1.2708	-0.83958	-0.54167	340.534	102.732	180.628	386.383	334.191	52.581	46.172	339.483	159.312	324.113	351.316	284.489	372.529	182.465	371.677	351.171	0.00047196	0.00069802	0.00010907	1435.4	4.8315e-06	5.7016e-06	1426.1	386.24	6.8515e-06	4.5309e-06	437.54	144.79	125.89	43.139	3.7075e-06	53.093	0.00083766	0.00096746	0.00025758	1474.8	9.2488e-06	1.0571e-05	1469.6	398.67	9.4807e-06	1.0701e-05	455.26	152.02	133.72	45.672	1.0049e-05	55.882	183.723	136.636	155.446	48.293	216.999	149.569	48.443	53.194	211.205	226.728	52.167	56.883	57.888	61.915	86.100	61.346	-8191	255	
1751.008	1	1	0	0	0.10512	0.28981	0.23681	0.36824	0.28366	0.08005	0.15273	0.19781	0.12884	0.21796	0.1177	0.13248	0.097472	0.25923	0.21993	0.30799	-1.0729	-0.66042	-0.61667	-1.3687	-0.425	-0.9375	-1.4062	-0.51042	-1.3208	-0.6875	-0.78958	-1.3125	-0.52917	-1.0146	-1.0396	-0.56458	244.979	356.462	55.172	340.798	164.382	95.130	338.475	379.808	251.924	162.511	373.150	124.975	211.658	377.741	53.028	52.802	0.00045592	0.00059268	0.00010617	1433	4.7137e-06	7.6189e-06	1425.8	384.32	6.8684e-06	4.3806e-06	436.55	144.79	126	43.041	4.8524e-06	53.082	0.00087541	0.00098552	0.00024995	1470.4	9.845e-06	1.0584e-05	1465.2	396.99	9.942e-06	1.0659e-05	453.78	151.47	134.15	45.482	9.7108e-06	55.621	180.816	391.077	82.342	48.290	187.456	50.702	48.424	53.225	250.429	198.526	52.525	57.272	58.043	61.901	188.773	61.237	-8191	255	
1751.104	1	1	0	0	0.10984	0.19137	0.18094	0.20341	0.2348	0.11064	0.13503	0.29569	0.095926	0.21685	0.18623	0.097185	0.22686	0.1984	0.13545	0.18115	-1.05	-0.9	-0.3875	-1.4875	-0.59583	-0.98958	-1.3646	-0.54167	-1.3417	-0.72292	-0.69167	-1.4792	-0.71042	-0.92292	-1.3104	-0.425	86.867	117.767	307.144	275.147	43.705	87.459	342.572	321.194	252.750	79.783	363.886	353.012	72.505	63.164	153.481	372.078	0.00028227	0.00014158	0.00015339	1432.8	1.331e-06	6.4128e-06	1415.4	383.95	4.088e-06	2.7949e-06	434.15	144.32	125.81	42.987	1.7906e-06	52.957	0.00091318	0.0009609	0.00024383	1468.9	1.0265e-05	1.0198e-05	1460.9	395.98	1.022e-05	1.0179e-05	451.29	151.34	134.48	45.389	9.4667e-06	55.639	175.417	116.856	117.506	48.305	224.468	168.370	48.396	53.055	218.507	144.486	52.423	57.265	57.767	61.991	246.299	61.238	-8191	255	
1751.200	1	1	0	0	0.30217	0.10038	0.21187	0.23829	0.05907	0.15768	0.28312	0.1932	0.23639	0.15571	0.1006	0.1051	0.18289	0.2885	0.017122	0.26433	-0.87292	-1.0604	-0.425	-1.5604	-0.31458	-0.76667	-1.4375	-0.64583	-1.0938	-1.0208	-0.6125	-1.3979	-0.62083	-0.9	-1.3396	-0.55625	212.462	95.784	67.562	354.029	385.094	67.498	329.428	297.571	342.447	168.710	42.258	360.742	304.834	391.183	82.017	311.836	0.00045017	0.0003375	8.8059e-05	1431.9	8.6671e-06	7.7461e-06	1422.1	384.82	2.8533e-06	2.694e-06	433.7	144.25	125.29	43.066	8.7058e-06	53.13	0.00093228	0.00092722	0.00023471	1467.7	1.0595e-05	9.8837e-06	1457.1	397.38	1.0515e-05	1.0032e-05	451.55	151.73	134.6	45.324	9.3357e-06	56.035	182.915	81.377	76.122	48.305	207.490	129.083	48.272	53.118	236.949	197.613	52.442	57.453	57.882	61.844	176.565	61.238	-8191	255	
1751.296	1	1	0	0	0.14447	0.3392	0.16023	0.4823	0.26085	0.25357	0.12422	0.43293	0.044554	0.11281	0.30259	0.20455	0.071807	0.11317	0.17808	0.16878	-0.65833	-0.98125	-0.51042	-1.4208	-0.5875	-0.59583	-1.3854	-0.72917	-0.95625	-1.0167	-0.63333	-1.3458	-0.66458	-0.7	-1.3458	-0.66875	76.461	163.953	92.483	345.691	314.276	156.187	385.819	328.068	137.203	148.674	337.957	355.931	98.846	253.818	258.812	392.501	0.00031618	0.00016793	0.00013697	1427.2	3.1539e-06	4.9254e-06	1419.9	385.37	1.9911e-06	6.2173e-06	435.97	144.57	125.88	43.13	5.4018e-06	53.143	0.00094501	0.00092083	0.0002349	1471.5	1.0678e-05	9.8653e-06	1459.1	398.46	1.0594e-05	9.9722e-06	452.1	152.74	135.24	45.385	9.4169e-06	56.487	173.762	176.925	123.669	48.458	68.834	113.421	48.769	53.122	340.569	82.822	52.574	57.348	57.586	62.214	109.423	61.556	-8191	255	
1751.392	1	1	0	0	0.27827	0.21535	0.16891	0.096545	0.1938	0.089376	0.35302	0.39207	0.30912	0.30821	0.094462	0.24383	0.15443	0.11663	0.15542	0.11708	-0.65625	-0.98333	-0.26042	-1.3854	-0.65208	-0.40417	-1.6042	-0.70208	-0.89583	-1.4146	-0.51875	-1.3708	-0.95833	-0.33958	-1.4833	-0.80833	50.801	128.813	70.408	377.894	321.405	267.427	349.532	339.554	75.977	134.402	87.926	332.382	37.259	200.865	138.223	88.448	0.00025993	0.00020991	0.0002078	1433.2	3.5232e-06	1.0516e-05	1425.8	384.03	3.2711e-06	2.3236e-06	434.04	144.88	125.73	43.044	9.3624e-06	53.033	0.0009436	0.00092137	0.00023727	1479.6	1.0598e-05	9.7844e-06	1463.5	400.05	1.0326e-05	9.8445e-06	451.99	153.74	134.79	45.303	9.6697e-06	56.589	204.070	66.089	92.695	48.455	215.136	104.203	48.579	53.077	310.695	262.476	52.507	57.472	57.605	61.990	175.662	61.135	-8191	255	
1751.513	1	1	0	0	0.10512	0.074756	0.13424	0.16435	0.12891	0.2058	0.45559	0.15653	0.067609	0.18777	0.082602	0.03158	0.14074	0.14835	0.12907	0.303	-0.45625	-1.3979	-0.45417	-1.2604	-1.0333	-0.4625	-1.7104	-0.875	-0.81875	-1.4333	-0.63958	-1.2667	-1.1125	-0.575	-1.3896	-0.92917	312.965	51.046	344.255	241.008	93.127	158.411	370.247	372.895	226.078	251.260	43.059	71.282	296.821	70.416	176.923	345.345	0.00031249	0.00022532	0.0002383	1434.6	1.2584e-06	8.4925e-06	1426.6	386.87	2.9038e-06	1.0246e-06	436.83	145.02	125.77	43.024	1.1318e-05	53.294	0.00092557	0.00090684	0.00024912	1484.8	1.0456e-05	9.678e-06	1468.2	401.43	1.0187e-05	9.7289e-06	455.54	153.8	135.02	45.217	1.0406e-05	56.812	182.553	159.798	77.117	48.591	216.375	96.916	48.648	53.059	87.524	142.521	52.397	57.281	57.859	62.136	213.299	61.216	-8191	255	
1751.609	1	1	0	0	0.18914	0.19655	0.19555	0.17317	0.07202	0.15723	0.15894	0.31707	0.19422	0.17186	0.25829	0.2595	0.15001	0.26163	0.2097	0.098456	-0.36667	-1.2646	-0.32917	-1.0917	-1.0667	-0.49375	-1.4937	-1.2375	-0.57292	-1.5854	-0.57083	-1.2896	-1.2229	-0.62917	-1.3312	-1.0542	349.779	326.635	200.315	331.837	364.403	296.092	306.844	340.999	341.573	169.085	46.106	299.880	164.200	377.218	329.348	338.027	0.00037003	0.00044985	0.00036242	1429	1.6355e-06	5.4169e-06	1427.8	386.36	2.3038e-06	8.0195e-06	436.36	145.33	125.91	43.166	3.6636e-06	53.196	0.0009236	0.00090376	0.00027194	1484.1	1.0527e-05	9.6303e-06	1477.2	401.85	1.0199e-05	9.7201e-06	458.44	153.98	134.8	45.331	1.0787e-05	56.572	181.173	57.780	111.793	48.444	175.083	232.525	48.579	53.058	176.726	146.563	52.355	57.291	57.619	61.680	127.341	61.268	-8191	255	
1751.681	1	1	0	0	0.10765	0.099263	0.17641	0.37169	0.28605	0.23658	0.44624	0.16872	0.041652	0.099074	0.27154	0.28838	0.099461	0.25331	0.14204	0.087893	-0.33125	-1.475	-0.54375	-1.1	-1.0187	-0.57917	-1.4604	-1.2729	-0.36875	-1.425	-0.52917	-0.99167	-1.4875	-0.61875	-0.97708	-1.0958	231.512	380.068	172.690	47.259	263.206	97.368	281.175	321.737	234.604	315.186	377.972	290.777	287.062	84.133	322.203	74.832	0.00036165	0.00028242	0.00018959	1434.7	2.2281e-06	4.1676e-06	1426.6	387.46	3.1461e-06	5.7299e-06	438.31	145.17	126.93	43.381	6.9279e-06	53.218	0.00089182	0.00089401	0.00028137	1483.1	1.0089e-05	9.6613e-06	1481	402.06	9.8308e-06	9.8882e-06	459.44	153.24	134.66	45.51	1.1002e-05	56.394	193.633	104.994	71.247	48.453	252.721	104.191	48.540	53.086	238.039	146.445	52.381	57.148	57.940	62.050	208.408	61.433	-8191	255	
1751.801	1	1	0	0	0.11586	0.41734	0.16682	0.38429	0.12734	0.41026	0.065868	0.16756	0.22514	0.2514	0.14656	0.16103	0.15168	0.37199	0.016474	0.022841	-0.12917	-1.325	-0.42708	-0.94375	-1.3354	-0.37708	-1.4646	-1.2792	-0.59792	-1.4188	-0.84792	-0.62083	-1.4854	-0.52292	-1.1625	-1.2208	299.186	294.757	301.544	360.991	323.869	212.783	191.073	296.352	297.829	363.634	80.413	265.830	55.199	386.797	99.642	381.503	0.0003196	0.0011021	0.00020509	1434.9	3.941e-06	3.285e-06	1431.6	386.31	3.7657e-06	4.975e-06	436.68	145.71	126.5	43.296	6.1266e-06	53.368	0.00087024	0.00093184	0.00028558	1483.3	9.8642e-06	1.03e-05	1480.5	401.12	9.7104e-06	1.0546e-05	459.81	153.35	134.57	45.74	1.101e-05	56.438	178.182	93.100	143.477	48.537	139.021	191.251	48.669	53.172	171.655	214.217	52.352	57.478	57.883	62.014	111.820	61.040	-8191	255	
1751.897	1	1	0	0	0.071421	0.3376	0.05445	0.34133	0.1344	0.071354	0.15843	0.29815	0.1997	0.19672	0.11068	0.32654	0.24661	0.19529	0.22563	0.11374	0.17292	-1.1625	-0.75	-0.76667	-1.2563	-0.29583	-1.2104	-1.4146	-0.34167	-1.2	-0.9125	-0.60417	-1.4188	-0.65	-0.89167	-1.1812	180.301	367.239	311.963	381.534	266.573	377.500	326.862	359.582	211.288	84.722	356.873	369.856	54.309	358.342	58.951	339.009	0.00042351	0.0009314	0.00029589	1440	5.25e-07	1.2386e-05	1436.3	385.9	1.0774e-05	4.0904e-06	437.32	145.21	126.51	43.16	1.5357e-06	52.926	0.00087067	0.00099605	0.00028111	1482.6	9.7265e-06	1.0857e-05	1479.5	400.72	9.5472e-06	1.0872e-05	458.66	152.98	134.19	45.838	1.0406e-05	56.099	191.008	148.579	141.881	48.490	260.645	175.178	48.600	53.010	194.568	252.563	52.382	57.515	57.610	61.742	40.861	61.069	-8191	255	
1751.992	1	1	0	0	0.1754	0.036086	0.11038	0.03613	0.19355	0.13509	0.16577	0.37738	0.23113	0.10341	0.11914	0.31278	0.15347	0.26548	0.18507	0.26533	-0.175	-1.0833	-0.84583	-0.74167	-1.3021	-0.575	-1	-1.5167	-0.51667	-1.2417	-1.2062	-0.50625	-1.4542	-0.91042	-0.67917	-1.4646	259.245	38.933	285.026	195.348	211.377	120.058	344.630	350.858	208.522	214.957	109.306	76.126	38.832	46.365	194.656	288.147	0.00043229	0.0003439	4.6548e-05	1435.2	6.007e-06	1.3975e-05	1432.4	388.01	7.5195e-06	3.9867e-06	436.69	145.19	127.03	43.29	4.2678e-06	53.251	0.00085388	0.00099977	0.0002672	1475.7	9.7582e-06	1.0944e-05	1473.3	400.6	9.767e-06	1.0818e-05	456.51	152.33	134.9	45.898	1.0004e-05	56.125	180.303	122.482	388.066	48.440	190.358	137.952	48.571	52.985	229.202	139.195	52.449	57.417	57.995	61.767	256.458	61.151	-8191	255	
1752.090	1	1	0	0	0.074024	0.24054	0.13369	0.25584	0.14375	0.16483	0.36008	0.26975	0.11811	0.046892	0.1906	0.11111	0.072426	0.32669	0.20962	0.10307	0.0020833	-1.1187	-0.90417	-0.65833	-1.2333	-0.88542	-0.67708	-1.6167	-0.32708	-1.0229	-1.2417	-0.6	-1.325	-0.98333	-0.53542	-1.5625	117.490	370.733	159.087	369.156	120.206	220.047	322.366	325.976	141.452	84.797	72.775	385.652	293.548	337.683	54.933	382.121	0.00039495	0.00093512	0.00012475	1439.8	5.8567e-06	8.6949e-06	1425.3	388.41	5.4528e-06	3.5075e-06	438.86	145.31	126.34	43.261	4.3455e-06	53.403	0.00089451	0.00099068	0.00025885	1475	1.0284e-05	1.0909e-05	1471.5	399.78	1.0411e-05	1.083e-05	457.41	152.38	135.58	45.918	1.0065e-05	56.311	186.292	340.692	333.584	48.393	241.972	383.281	48.675	53.147	173.339	182.261	52.281	57.631	57.854	61.873	147.257	61.348	-8191	255	
1752.209	1	1	0	0	0.023232	0.46174	0.044096	0.25139	0.12775	0.10708	0.24074	0.20286	0.074496	0.21011	0.29363	0.23924	0.14301	0.14284	0.19307	0.048259	-0.045833	-0.92083	-1.2542	-0.53958	-1.0479	-1.0042	-0.59583	-1.5458	-0.62292	-0.92083	-1.4833	-0.3	-1.2938	-0.98958	-0.46875	-1.6896	53.076	106.506	152.442	273.982	223.413	394.966	337.245	353.448	307.239	147.408	274.981	97.670	248.828	365.581	381.081	296.827	0.00046401	0.00042571	0.00010456	1443.5	3.9375e-06	8.1682e-06	1432.2	387.16	4.4834e-06	1.6833e-06	437.14	145.63	126.98	43.166	5.1158e-06	53.427	0.00097795	0.0010038	0.00026274	1480.4	1.1105e-05	1.0955e-05	1475	401.02	1.1146e-05	1.0738e-05	457.36	152.94	136.71	45.83	9.8536e-06	56.384	183.589	152.795	87.382	48.514	278.977	204.808	48.612	53.237	223.131	120.768	52.594	57.526	57.961	61.960	176.958	61.410	-8191	255	
1752.305	1	1	0	0	0.10164	0.13649	0.046181	0.22519	0.27265	0.20111	0.38012	0.22087	0.19474	0.11816	0.107	0.091179	0.40606	0.21544	0.35028	0.2252	-0.47083	-0.61458	-1.3042	-0.86042	-1.25	-1.0271	-0.8375	-1.5	-0.775	-0.68542	-1.3375	-0.58542	-1.1562	-1.1021	-0.42292	-1.2	76.805	70.469	294.915	92.302	219.556	340.746	353.143	386.691	363.700	37.260	40.419	159.629	371.193	71.538	288.816	350.415	0.00029968	9.2393e-05	9.7827e-05	1441.5	3.9396e-06	1.4395e-05	1433.4	388.47	8.6704e-06	4.5886e-06	438.05	145.81	127.12	43.337	5.5078e-06	53.616	0.00099748	0.00096122	0.00025533	1484.1	1.1103e-05	1.0549e-05	1473.2	402.05	1.1204e-05	1.0445e-05	457.09	153.84	137.01	45.869	9.7522e-06	56.752	194.090	215.730	97.201	48.292	311.480	204.419	48.599	53.264	220.767	235.950	52.506	57.388	57.968	61.739	285.519	61.424	-8191	255	
1752.401	1	1	0	0	0.20306	0.22662	0.098913	0.11367	0.062186	0.081042	0.18383	0.21885	0.14956	0.28713	0.17267	0.16608	0.21988	0.30789	0.16959	0.35498	-0.34375	-0.64792	-1.2125	-0.81667	-0.96458	-0.99375	-0.76875	-1.3271	-0.75417	-0.58958	-1.3146	-0.725	-0.83958	-1.4271	-0.59375	-1.4604	370.795	74.353	355.638	339.827	214.766	211.479	223.170	348.789	201.619	222.209	318.543	332.399	262.083	53.435	132.581	164.777	0.00029428	0.00068135	4.4763e-05	1444	4.2552e-06	7.3921e-06	1437.4	389.78	3.7062e-06	2.3601e-06	439.71	145.84	127.15	43.369	1.2816e-06	53.546	0.0010151	0.00096792	0.000255	1491.6	1.1312e-05	1.074e-05	1476.3	405.24	1.1459e-05	1.0548e-05	458.78	155.01	137.26	46.049	9.9569e-06	57.256	190.783	156.410	63.423	48.516	273.098	205.951	48.729	53.130	283.479	169.256	52.609	57.549	58.139	61.839	166.086	61.448	-8191	255	
1752.497	1	1	0	0	0.064065	0.232	0.1239	0.41462	0.19576	0.18861	0.29726	0.14946	0.22995	0.39998	0.3167	0.14697	0.1757	0.11956	0.15092	0.19055	-0.45	-0.375	-1.3146	-0.74583	-0.62292	-1.3729	-0.64167	-1.4375	-0.90208	-0.4	-1.4333	-0.76458	-0.84167	-1.2875	-0.30417	-1.2938	228.521	285.342	289.882	340.047	65.392	356.510	361.158	384.615	321.437	190.708	346.008	334.532	49.903	148.198	229.700	322.149	0.00037456	0.00026651	9.9062e-05	1445.8	2.3462e-06	1.7674e-05	1433.7	388.46	3.0189e-06	5.0343e-06	440.18	145.97	127.8	43.193	6.6368e-06	53.235	0.0010152	0.00096227	0.00026073	1497	1.1073e-05	1.052e-05	1478.1	405.72	1.1069e-05	1.0285e-05	459.24	155.48	136.75	45.859	1.027e-05	57.158	169.889	318.990	218.680	48.375	157.937	36.443	48.366	53.269	221.073	145.346	52.334	57.415	58.174	61.939	251.745	61.269	-8191	255	
1752.593	1	1	0	0	0.11965	0.1602	0.16488	0.2511	0.1752	0.11588	0.54227	0.18614	0.1439	0.1573	0.1183	0.39441	0.054835	0.2387	0.18016	0.027287	-0.725	-0.26458	-1.2021	-0.62083	-0.69792	-1.4292	-0.75417	-1.35	-1.1167	-0.37083	-1.4417	-0.96667	-0.59375	-1.4438	-0.4375	-1.1771	255.397	207.648	306.397	339.062	120.405	55.952	288.864	304.828	221.371	101.206	234.990	41.668	36.289	348.311	386.409	59.755	0.00033947	0.00051137	0.00030117	1440.3	2.3297e-06	4.3883e-06	1432.4	388.65	2.2269e-06	1.0601e-05	439.63	145.06	127.09	43.333	9.673e-06	53.71	0.00097853	0.00092181	0.00026884	1497.1	1.0635e-05	1.0151e-05	1480.5	405.15	1.0723e-05	9.92e-06	460.81	154.92	136.21	45.76	1.0819e-05	57.256	186.261	158.355	131.758	48.353	385.887	342.867	48.535	53.180	258.007	269.205	52.607	57.276	58.251	62.163	188.727	61.131	-8191	255	
1752.689	1	1	0	0	0.22293	0.22587	0.17249	0.071191	0.2699	0.11834	0.24946	0.35945	0.08452	0.051011	0.33056	0.13448	0.078979	0.22484	0.16289	0.14607	-0.87083	-0.36667	-1.3583	-0.80833	-0.61667	-1.4	-0.81458	-1.1479	-1.1708	-0.37292	-1.3563	-1.0271	-0.65	-1.5542	-0.56458	-0.98125	292.356	98.794	115.112	296.757	301.294	173.618	56.930	316.843	355.757	339.916	94.680	348.594	250.103	69.799	348.645	278.242	0.00036699	0.00033589	4.5982e-05	1443	3.5792e-06	9.5969e-06	1434.4	388.17	5.7445e-06	8.2738e-06	442.08	145.73	127.12	43.54	9.5672e-06	53.807	0.00095646	0.00091174	0.0002823	1496.9	1.0477e-05	1.0081e-05	1487.4	404.66	1.0615e-05	9.9062e-06	463.62	155.02	136.17	45.872	1.1392e-05	57.124	189.268	87.108	251.801	48.126	311.641	141.038	48.817	53.248	227.237	212.299	52.645	57.146	57.721	62.068	182.707	61.100	-8191	255	
1752.810	1	1	0	0	0.063981	0.24336	0.034263	0.099383	0.41407	0.20249	0.26877	0.49669	0.16214	0.29737	0.19885	0.27232	0.25539	0.23518	0.39841	0.10297	-0.72292	-0.18958	-1.0917	-1.0646	-0.37917	-1.2604	-0.74375	-0.99167	-1.1729	-0.38125	-1.2687	-1.0208	-0.62292	-1.4208	-0.58333	-0.90208	221.480	235.500	181.362	272.374	199.296	393.226	326.557	344.067	213.175	124.295	41.406	391.606	340.177	336.561	348.328	80.203	0.00023999	0.0013671	6.5373e-05	1444.9	3.2088e-06	1.2338e-05	1438.8	389.93	4.2889e-06	6.6577e-06	440.25	145.93	127.44	43.453	7.4366e-06	53.646	0.00093514	0.00092757	0.00029152	1493.6	1.0129e-05	1.0216e-05	1489.6	404.32	1.022e-05	1.016e-05	463.57	154.62	135.45	45.934	1.1369e-05	56.852	184.689	139.258	240.706	48.274	38.253	124.941	48.539	53.339	241.617	201.778	52.373	57.563	57.907	62.018	209.289	61.426	-8191	255	
1752.904	1	1	0	0	0.23221	0.11888	0.15571	0.40719	0.31573	0.19084	0.062592	0.14089	0.26018	0.35785	0.15046	0.46233	0.22565	0.26716	0.16235	0.049187	-0.92708	-0.16667	-1.1187	-1.0917	-0.50208	-1.2708	-0.93542	-0.82708	-1.3042	-0.43333	-1.1396	-1.1604	-0.45833	-1.3667	-0.62708	-0.62917	219.422	264.559	178.925	359.237	252.779	288.121	174.148	310.576	282.625	384.562	266.460	70.157	72.885	309.109	278.738	217.621	0.00034596	0.0010347	0.00027556	1446.7	6.2952e-06	1.2785e-05	1435.8	389.43	5.5801e-06	1.1898e-05	440.45	145.76	127.05	43.37	4.5907e-06	53.507	0.00089814	0.00096776	0.00029068	1491.8	9.9212e-06	1.0777e-05	1489.2	404.39	1.0084e-05	1.0862e-05	462.95	154.41	135.32	46.169	1.1379e-05	56.821	173.275	125.689	142.924	48.348	243.902	143.118	48.583	53.285	254.965	197.084	52.783	57.168	58.019	62.021	44.862	61.713	-8191	255	
1752.978	1	1	0	0	0.12104	0.23507	0.095777	0.40174	0.13029	0.086829	0.21295	0.38613	0.29687	0.17201	0.080589	0.29763	0.056255	0.25597	0.176	0.11962	-0.88333	-0.43542	-0.93958	-1.4458	-0.28958	-1.3083	-1.0167	-0.54375	-1.3813	-0.59583	-0.94375	-1.4396	-0.34792	-1.3292	-0.89583	-0.55833	362.776	96.798	389.428	334.548	80.154	236.931	329.317	309.445	35.451	107.921	256.125	341.625	221.390	63.713	159.412	276.412	0.00036005	0.00050719	0.00015203	1444.9	7.139e-06	7.9071e-06	1436.1	391.52	4.652e-06	6.9294e-06	441.35	146.32	127.37	43.55	7.2141e-06	53.629	0.00090775	0.0010395	0.00029002	1493.2	1.0026e-05	1.1501e-05	1488.5	404.36	1.0359e-05	1.1707e-05	463.24	154.52	135.72	46.485	1.1404e-05	56.927	178.456	99.673	320.667	48.273	217.385	215.780	48.587	53.382	169.521	196.748	52.574	57.408	57.574	62.027	116.426	61.359	-8191	255	
1753.072	1	1	0	0	0.047901	0.041673	0.26161	0.25828	0.11924	0.17217	0.075254	0.31059	0.050773	0.091887	0.15516	0.32954	0.32484	0.060925	0.13138	0.29154	-0.89792	-0.51042	-0.86458	-1.4333	-0.25208	-0.96458	-1.125	-0.53333	-1.2521	-0.79583	-0.93542	-1.3792	-0.31042	-1.0792	-1.125	-0.56875	213.177	46.927	259.844	365.873	64.600	283.384	243.317	371.150	42.061	189.688	121.464	392.379	334.198	211.182	344.152	128.281	0.0003883	0.0008577	0.00017176	1445.9	4.7953e-06	1.0996e-05	1436.5	391.61	8.1651e-06	2.9041e-06	440.13	145.8	127.25	43.431	6.9825e-06	53.579	0.00094488	0.0010893	0.00028328	1491.6	1.052e-05	1.1744e-05	1484.7	404.46	1.0679e-05	1.1843e-05	461.5	154.01	136.44	46.324	1.0933e-05	56.603	179.433	116.919	164.550	48.466	183.748	235.268	48.547	53.236	205.601	76.104	52.657	57.245	57.952	62.208	183.581	61.427	-8191	255	
1753.170	1	1	0	0	0.27437	0.14317	0.2385	0.17752	0.1808	0.058213	0.45107	0.36892	0.25914	0.039266	0.064263	0.41314	0.2214	0.1978	0.1821	0.15372	-0.92708	-0.72083	-0.49167	-1.5625	-0.42292	-1.0375	-1.2542	-0.52917	-1.5208	-0.8375	-0.69583	-1.2604	-0.43958	-0.925	-1.0833	-0.68333	145.005	354.277	330.253	335.295	204.270	184.842	35.493	357.380	344.029	112.170	223.809	124.722	392.490	264.719	372.314	337.382	0.0004559	0.0001037	5.3252e-05	1439.4	8.965e-06	4.1665e-06	1436.3	389.32	7.3462e-06	6.4545e-06	439.58	145.73	127.25	43.408	7.625e-06	53.623	0.00098049	0.0010742	0.000273	1487.7	1.1041e-05	1.1484e-05	1484.4	403.07	1.1224e-05	1.1528e-05	461.24	153.76	137.43	46.353	1.0782e-05	56.673	178.702	347.125	80.598	48.424	216.844	160.535	48.665	53.158	249.296	120.341	52.557	57.379	58.204	61.858	228.958	61.609	-8191	255	
1753.289	1	1	0	0	0.11716	0.11614	0.22398	0.23546	0.2315	0.25175	0.16075	0.24028	0.27273	0.2122	0.31073	0.17038	0.046644	0.17349	0.23252	0.064579	-0.81458	-0.625	-0.48125	-1.5396	-0.64375	-0.8625	-1.4208	-0.52708	-0.93958	-0.675	-0.59583	-1.5979	-0.58333	-1.0375	-1.225	-0.275	93.885	190.295	330.480	394.336	58.569	159.516	47.803	241.192	365.071	191.355	381.327	385.702	89.274	235.516	249.944	308.865	0.00033687	0.00013442	8.7161e-05	1445.5	6.1483e-06	1.3894e-05	1433.3	390.15	9.2432e-06	3.0643e-06	440.08	146.17	127.66	43.619	9.826e-06	53.485	0.0010329	0.0010529	0.00026908	1490.2	1.1653e-05	1.133e-05	1482	403.97	1.1788e-05	1.1419e-05	460.57	154.29	138.3	46.219	1.0552e-05	56.864	187.418	392.432	105.600	48.551	193.885	90.554	48.665	53.286	232.423	377.153	52.535	57.492	57.742	62.158	158.991	61.424	-8191	255	
1753.385	1	1	0	0	0.1966	0.25153	0.097683	0.29726	0.16864	0.25486	0.16909	0.362	0.24341	0.43189	0.26236	0.22339	0.31981	0.29981	0.14807	0.071173	-0.73542	-1.0479	-0.38542	-1.3917	-0.52292	-0.6	-1.4542	-0.69167	-1.1063	-1.0958	-0.51042	-1.3937	-0.77917	-0.62083	-1.4562	-0.66042	221.744	219.358	216.333	337.694	346.031	153.893	367.019	357.517	264.792	272.741	87.524	392.339	58.967	355.854	326.784	117.850	0.00038009	0.00015167	0.00018396	1447.5	4.4418e-06	5.3103e-06	1438.8	390.22	2.6899e-06	1.0939e-06	441.93	145.87	127.41	43.431	6.4253e-06	53.553	0.0010597	0.0010353	0.00026469	1496.9	1.2026e-05	1.1081e-05	1481.8	405.43	1.1836e-05	1.1157e-05	459.57	155.23	137.96	46.205	1.0423e-05	57.253	179.565	224.732	93.573	48.531	115.793	145.812	48.686	53.351	242.903	100.093	52.437	57.753	57.958	62.049	219.617	61.633	-8191	255	
1753.481	1	1	0	0	0.092929	0.21362	0.19698	0.42692	0.14279	0.16121	0.23463	0.29183	0.20333	0.036402	0.055578	0.049258	0.10053	0.16625	0.15366	0.19525	-0.56875	-1.0646	-0.25625	-1.5063	-0.76458	-0.65833	-1.5521	-0.70417	-1.0417	-1.3083	-0.57708	-1.4021	-0.95625	-0.55	-1.4583	-0.66667	269.072	50.520	392.028	387.436	375.058	79.477	307.483	344.652	365.939	230.095	358.403	58.284	48.095	89.650	232.421	337.169	0.00030982	0.00026004	0.00014193	1445.2	6.8004e-06	1.2041e-05	1442.3	390.76	4.62e-06	6.1236e-06	441.84	145.94	127.01	43.708	3.2753e-06	53.582	0.0010586	0.0010293	0.00026239	1499.3	1.1891e-05	1.1047e-05	1486.4	407.22	1.1675e-05	1.1192e-05	460.49	156.06	138.1	46.24	1.0582e-05	57.637	178.512	226.424	240.734	48.561	218.904	271.416	48.681	53.228	261.716	93.290	52.445	57.635	57.911	62.013	190.632	61.318	-8191	255	
1753.602	1	1	0	0	0.17904	0.055056	0.10959	0.30216	0.23091	0.13484	0.35935	0.36699	0.19584	0.18671	0.3905	0.16793	0.15946	0.30376	0.25546	0.34463	-0.48958	-1.2625	-0.28542	-1.4167	-0.87292	-0.47292	-1.5	-0.86458	-0.65417	-1.3021	-0.53333	-1.2563	-1.0604	-0.51458	-1.3854	-0.84792	336.082	333.934	164.979	380.642	242.654	184.253	332.140	357.463	365.235	303.036	373.194	382.418	40.607	90.494	226.179	91.187	0.00040106	0.00041023	9.5638e-05	1446.3	5.6011e-06	1.7981e-06	1441.3	389.94	4.8808e-07	3.5457e-06	438.93	146.08	126.68	43.501	1.4197e-05	53.514	0.0010325	0.0010173	0.00027234	1506.6	1.1702e-05	1.0823e-05	1487.2	408.42	1.1469e-05	1.094e-05	462.02	156.57	137.82	46.101	1.1143e-05	57.701	183.125	111.307	305.706	48.630	38.990	174.675	48.687	53.379	52.727	68.415	52.371	57.372	57.821	61.876	207.400	61.107	-8191	255	
1753.674	1	1	0	0	0.10791	0.37608	0.22545	0.23074	0.15104	0.12389	0.20723	0.15324	0.31493	0.097801	0.19435	0.18589	0.091089	0.28306	0.0051228	0.013961	-0.18333	-1.0979	-0.15208	-1.1833	-1.0875	-0.27292	-1.6104	-0.91458	-0.6875	-1.3	-0.60208	-1.1187	-1.1833	-0.57917	-1.1625	-0.86042	117.706	53.338	62.718	47.916	86.577	70.354	87.762	113.800	63.736	165.092	38.555	331.879	341.827	79.085	144.824	367.807	0.00030315	0.00058261	0.00017111	1452.2	2.0856e-06	3.8035e-06	1435.2	391.08	7.8026e-06	4.9608e-06	439.6	145.68	127.84	43.641	9.8414e-06	53.623	0.0010119	0.00099508	0.00028656	1507.1	1.145e-05	1.0492e-05	1489.6	408.27	1.1215e-05	1.0643e-05	463.94	156.14	137.44	46.12	1.1756e-05	57.723	194.366	49.189	176.145	48.609	124.663	327.512	48.681	53.005	220.065	55.922	52.424	57.459	58.046	62.071	181.791	61.139	-8191	255	
1753.770	1	1	0	0	0.063567	0.23865	0.22069	0.44894	0.15284	0.19496	0.25166	0.080251	0.296	0.064067	0.14546	0.25305	0.13676	0.34314	0.11359	0.15008	-0.175	-1.1333	-0.44375	-1.1542	-1.3042	-0.5	-1.4583	-1.0146	-0.55	-1.225	-0.78542	-0.93333	-1.3062	-0.52708	-1.4375	-1.1792	139.668	102.333	281.474	327.911	205.416	101.709	332.062	50.849	48.068	392.816	304.940	372.094	53.748	329.052	382.444	92.522	0.00048956	0.00019482	0.00030386	1447.9	3.8636e-06	9.8469e-06	1442	390.1	3.5494e-06	2.0377e-06	441.63	146.11	127.62	43.431	8.4142e-06	53.665	0.0010008	0.00098635	0.00030327	1504.4	1.131e-05	1.0485e-05	1497.2	408.04	1.0938e-05	1.0754e-05	466.38	156.06	137.29	46.135	1.2166e-05	57.567	180.663	228.513	106.927	48.456	172.117	196.711	48.826	53.041	151.724	249.811	52.407	57.280	57.719	61.916	148.969	61.278	-8191	255	
1753.890	1	1	0	0	0.13956	0.15158	0.18256	0.2775	0.20658	0.083051	0.25731	0.1418	0.22212	0.089391	0.15144	0.29511	0.018469	0.19944	0.13396	0.38506	-0.16042	-1.2	-0.39167	-0.98542	-1.3125	-0.4875	-1.3104	-1.3	-0.49583	-1.3458	-0.84375	-0.66875	-1.7292	-0.48958	-1.1833	-1.2	38.017	330.961	111.775	352.807	254.722	277.605	322.475	318.383	108.667	358.930	351.974	335.975	160.294	330.998	306.959	329.800	0.00038801	0.0014644	0.00017474	1445.9	6.77e-06	1.0695e-05	1441.4	390.04	6.0326e-06	6.6754e-06	441.89	146.48	127.8	43.481	5.9662e-06	53.602	0.00097166	0.0010111	0.00031365	1502.9	1.105e-05	1.1054e-05	1498.4	407.03	1.0655e-05	1.1158e-05	467.62	155.45	136.73	46.29	1.2081e-05	57.309	179.314	111.304	255.606	48.493	224.227	166.347	48.494	53.032	283.739	178.219	52.624	57.311	57.807	62.035	187.539	61.480	-8191	255	
1753.985	1	1	0	0	0.16615	0.092345	0.25139	0.2791	0.50444	0.28617	0.25809	0.3043	0.3684	0.17123	0.24592	0.087633	0.11322	0.1481	0.27423	0.23752	-0.21458	-1.3042	-0.72083	-0.88542	-1.3229	-0.4	-1.3542	-1.1688	-0.21875	-1.2958	-0.80833	-0.70208	-1.4854	-0.59167	-0.75833	-1.225	140.443	55.104	70.611	347.415	162.346	45.476	364.681	383.744	168.903	336.289	359.694	359.990	201.971	89.846	286.773	286.195	0.00037425	0.00082423	0.00017987	1445.9	4.0855e-06	2.8134e-05	1442.2	389.78	1.0387e-05	8.2934e-06	441.78	146.21	127.3	43.475	7.5141e-06	53.836	0.00093636	0.0010581	0.00031047	1497.5	1.067e-05	1.1567e-05	1495.8	406.06	1.0473e-05	1.1685e-05	465.77	154.98	136.49	46.489	1.1718e-05	57.278	176.244	139.021	124.112	48.403	232.016	161.008	48.762	52.930	169.933	210.580	52.466	57.085	57.890	61.940	168.336	61.276	-8191	255	
1754.083	1	1	0	0	0.12814	0.23746	0.1597	0.29385	0.05191	0.065742	0.19196	0.24309	0.321	0.28613	0.26218	0.38773	0.010919	0.25564	0.25057	0.1842	-0.14583	-0.98542	-0.67708	-0.7125	-1.3021	-0.45417	-1.0042	-1.4646	-0.44375	-1.2625	-1.1083	-0.74375	-1.4146	-0.76042	-0.76875	-1.3062	345.938	257.736	42.871	379.151	223.988	144.877	59.915	82.662	310.756	101.009	383.965	350.039	367.443	43.800	112.295	316.903	0.00039943	0.00070532	0.00017931	1443.9	6.7452e-06	7.3555e-06	1436.4	390.38	2.6772e-06	4.943e-06	441.04	146.34	127.85	43.545	1.5783e-06	53.653	0.00093758	0.0011003	0.00030269	1496.5	1.0762e-05	1.2174e-05	1492.5	406.74	1.0704e-05	1.2157e-05	465.36	154.55	136.9	46.628	1.1412e-05	57.153	190.586	147.707	191.081	48.470	228.463	152.257	48.460	53.043	176.074	136.833	52.393	57.297	57.766	61.863	247.135	61.177	-8191	255	
1754.202	1	1	0	0	0.17021	0.084184	0.4425	0.2821	0.24021	0.15611	0.49646	0.48791	0.31312	0.17367	0.4341	0.29603	0.18165	0.22657	0.25233	0.20443	-0.03125	-1.1083	-0.94583	-0.64375	-1.0583	-0.53958	-1	-1.5063	-0.57708	-1.0583	-1.1375	-0.55833	-1.3333	-1.0521	-0.52708	-1.4542	299.614	364.772	256.551	375.174	366.207	273.377	363.869	334.003	67.273	260.689	317.860	349.941	137.191	324.172	264.607	224.939	0.00041629	0.00080314	0.00010034	1448.4	2.7715e-06	7.2111e-06	1435.1	389.1	5.9919e-06	7.8094e-06	440.78	146.9	127.8	43.491	7.7286e-06	53.739	0.00097013	0.0011243	0.00029389	1493	1.1109e-05	1.2278e-05	1489.8	404.81	1.1102e-05	1.1937e-05	462.69	154.35	137.67	46.558	1.0974e-05	56.924	193.012	76.383	229.818	48.346	205.635	156.217	48.538	53.140	202.759	108.142	52.467	57.414	58.065	61.749	162.059	61.155	-8191	255	
1754.273	1	1	0	0	0.058285	0.13495	0.15466	0.35017	0.13575	0.050727	0.33424	0.24135	0.15839	0.21152	0.29409	0.063091	0.27747	0.34301	0.18211	0.15587	-0.12708	-0.975	-1.0833	-0.58542	-1.2833	-0.725	-0.7	-1.7292	-0.46875	-1.1229	-1.2917	-0.63333	-1.1437	-0.67708	-0.37708	-1.5208	204.586	226.342	181.328	366.468	90.499	368.992	311.851	346.846	210.446	103.030	389.488	61.834	43.700	374.357	160.415	124.816	0.00050648	0.00053434	0.00010776	1452.2	5.7685e-06	1.2972e-05	1439.6	389.31	4.5671e-06	2.2951e-06	441.89	147.02	127.35	43.511	6.7815e-06	53.692	0.0010165	0.0010949	0.00028334	1490.9	1.1618e-05	1.1929e-05	1486.2	404.48	1.1708e-05	1.1657e-05	463.72	154.39	138.26	46.448	1.0825e-05	56.944	177.409	107.366	197.672	48.555	185.154	189.552	48.618	53.255	231.013	163.805	52.509	57.451	57.962	61.931	133.391	61.291	-8191	255	
1754.369	1	1	0	0	0.21532	0.16814	0.23299	0.17343	0.049149	0.072869	0.38007	0.42605	0.12669	0.16241	0.26834	0.096272	0.052284	0.15594	0.07714	0.16038	-0.16042	-1.0792	-1.0771	-0.69167	-1.0979	-0.90208	-0.69375	-1.4438	-0.65625	-0.77083	-1.2875	-0.3875	-1.0854	-1.0458	-0.26458	-1.4667	242.293	393.326	45.231	378.702	300.754	60.419	370.215	314.538	294.141	383.447	315.962	381.122	86.272	73.488	376.398	356.007	0.00032955	0.00041198	7.7681e-05	1452.3	4.2533e-06	1.6693e-05	1434.4	389.7	1.5901e-06	1.6811e-06	440.76	145.69	127.46	43.332	2.7059e-06	53.752	0.0010697	0.0010704	0.00028153	1495.1	1.2047e-05	1.1587e-05	1485	405.41	1.2071e-05	1.1412e-05	462.08	154.42	138.5	46.292	1.0511e-05	57.191	181.908	37.874	89.986	48.528	168.121	327.989	48.591	53.203	194.411	226.549	52.695	57.330	57.929	61.832	168.467	60.987	-8191	255	
1754.490	1	1	0	0	0.26098	0.061864	0.21355	0.27231	0.075861	0.088679	0.064545	0.20163	0.10936	0.13738	0.21285	0.2923	0.31044	0.26436	0.14773	0.095124	-0.26667	-0.69375	-1.3479	-0.71042	-1.125	-1.1667	-0.55833	-1.4937	-0.85417	-0.67292	-1.3896	-0.65208	-1.1229	-1.3042	-0.24375	-1.2479	348.394	217.800	140.055	392.745	151.849	78.054	331.068	329.143	173.660	174.674	381.727	42.783	391.071	36.689	320.090	288.716	0.00037686	0.00032492	4.3699e-06	1455.1	5.2044e-06	8.9729e-06	1439.7	391.03	5.6213e-06	4.4607e-06	439.86	146.53	127.78	43.561	7.0098e-06	53.708	0.001083	0.0010283	0.00027125	1497.9	1.1951e-05	1.1267e-05	1482.9	406.86	1.1912e-05	1.0987e-05	460.34	155.22	138.27	46.245	1.0171e-05	57.414	174.282	169.433	206.892	48.481	264.991	162.582	48.681	53.283	257.606	281.178	52.689	57.655	58.103	61.991	173.477	61.343	-8191	255	
1754.586	1	1	0	0	0.089307	0.11443	0.11789	0.29019	0.24836	0.3394	0.14238	0.1539	0.18188	0.22425	0.3174	0.022881	0.12972	0.090216	0.061217	0.12936	-0.26042	-0.48333	-1.4604	-0.61667	-0.87083	-1.0792	-0.69167	-1.3875	-0.81458	-0.52292	-1.4604	-0.64167	-0.87083	-1.4625	-0.31875	-1.1938	255.001	196.185	313.622	340.582	142.297	328.202	50.569	74.475	159.469	240.804	390.629	347.992	186.099	121.039	171.968	62.109	0.00037486	0.0002149	0.00018155	1441.6	3.3887e-06	8.0018e-06	1435.6	390.2	2.7137e-06	3.1911e-06	442.34	146.09	127.61	43.583	2.028e-06	53.899	0.0010569	0.00099889	0.00026594	1500.5	1.1602e-05	1.1078e-05	1482.2	407.91	1.1755e-05	1.0786e-05	461.32	156.19	137.97	46.244	1.0492e-05	57.742	182.144	171.878	132.441	48.408	59.857	88.504	48.535	53.093	183.807	162.050	52.199	57.390	58.038	61.862	361.992	61.084	-8191	255	
1754.682	1	1	0	0	0.099088	0.14589	0.1848	0.16196	0.029752	0.10539	0.2939	0.21697	0.11207	0.075398	0.23567	0.086005	0.07803	0.094774	0.061916	0.17139	-0.47917	-0.3875	-1.4229	-0.89792	-0.54792	-1.2604	-0.55833	-1.3396	-0.75625	-0.48333	-1.4188	-0.625	-0.65625	-1.3292	-0.55	-1.375	125.133	142.725	346.288	350.289	389.904	52.108	381.145	373.912	279.089	362.729	111.766	38.272	39.177	355.516	358.988	379.821	0.00029922	0.00032228	0.00014303	1450.7	7.306e-06	2.3476e-06	1444	391.12	3.1391e-06	2.7125e-06	441.28	145.72	127.72	43.341	1.307e-05	53.538	0.001029	0.0009891	0.00027281	1506.8	1.1326e-05	1.0828e-05	1487.3	408.38	1.1366e-05	1.0509e-05	462.9	155.99	137.28	46.082	1.1036e-05	57.642	173.021	391.182	46.545	48.461	100.013	241.373	48.615	53.284	130.706	41.972	52.776	57.522	57.845	62.009	148.966	61.176	-8191	255	
1754.778	1	1	0	0	0.18309	0.085964	0.087203	0.4362	0.2238	0.1595	0.19203	0.30464	0.15202	0.14833	0.19767	0.34831	0.23072	0.27727	0.33042	0.20993	-0.74167	-0.44375	-1.3646	-0.98125	-0.57083	-1.2687	-0.56042	-1.0771	-0.94792	-0.42708	-1.4667	-0.77292	-0.51667	-1.4438	-0.675	-0.96458	235.606	237.900	158.183	340.806	370.458	318.739	51.192	344.339	392.549	89.112	328.402	364.660	341.751	42.351	312.077	343.402	0.00037462	0.00033425	0.00022872	1445.5	4.6404e-06	2.2359e-06	1441.9	389.53	3.0689e-06	3.3548e-06	441.94	146.09	127.52	43.586	6.3025e-06	53.496	0.0010143	0.00096304	0.00029025	1504.5	1.1113e-05	1.063e-05	1492	407.59	1.1246e-05	1.0381e-05	464.46	156.01	136.85	46.078	1.161e-05	57.49	183.033	271.129	126.021	48.609	245.514	192.353	48.799	53.251	165.604	164.520	52.475	57.504	58.382	61.960	248.676	61.417	-8191	255	
1754.850	1	1	0	0	0.1694	0.23221	0.20298	0.41918	0.16339	0.087192	0.27293	0.21001	0.14228	0.25344	0.0099461	0.29358	0.2283	0.20826	0.093034	0.13677	-0.89167	-0.34167	-1.1812	-1.0333	-0.5125	-1.2875	-0.80625	-1.1146	-1.2375	-0.2875	-1.2146	-1.0542	-0.48958	-1.2583	-0.525	-1.0354	342.039	282.067	71.705	336.980	367.636	287.311	387.359	369.233	367.669	185.384	277.585	344.061	363.248	57.655	178.763	79.385	0.00039064	0.00063283	0.00010495	1446	1.8201e-06	1.472e-05	1435	390.22	2.7198e-06	5.725e-06	440.75	146.09	127.7	43.662	9.3313e-06	53.684	0.00099703	0.00095803	0.00030304	1503.2	1.0897e-05	1.0733e-05	1493.6	407.02	1.1038e-05	1.063e-05	466.81	155.61	136.8	46.184	1.213e-05	57.422	189.555	366.863	133.684	48.378	154.957	201.839	48.448	53.403	251.131	192.994	52.444	57.381	57.857	61.828	202.975	61.600	-8191	255	
1754.969	1	1	0	0	0.12524	0.19261	0.09442	0.19173	0.10011	0.22053	0.32649	0.32828	0.073242	0.19066	0.29683	0.081074	0.052459	0.081708	0.074573	0.22074	-0.79167	-0.44792	-1.1083	-1.0604	-0.46667	-1.3833	-1.0063	-0.82917	-1.2396	-0.48333	-1.1708	-1.1625	-0.33958	-1.4375	-0.58125	-0.73542	291.169	88.140	245.184	84.274	299.544	376.947	352.067	321.088	393.220	218.340	320.395	299.767	252.155	141.422	180.926	346.144	0.00039906	0.00067515	8.1125e-05	1447.2	4.2249e-06	7.4041e-06	1437.8	390.4	4.5462e-06	1.016e-05	439.93	146.13	127.44	43.605	3.6817e-06	53.712	0.00097887	0.0010086	0.00031253	1502.2	1.0735e-05	1.1286e-05	1497.7	406.74	1.0915e-05	1.1289e-05	466.27	155.61	136.66	46.418	1.2242e-05	57.351	169.501	150.695	100.370	48.315	322.677	196.500	48.676	53.153	134.056	241.917	52.486	57.198	57.955	61.951	213.819	61.483	-8191	255	
1755.065	1	1	0	0	0.17558	0.27346	0.10592	0.22648	0.36399	0.32364	0.28713	0.26066	0.030787	0.076558	0.30039	0.40455	0.15231	0.15177	0.086393	0.20796	-0.85625	-0.38333	-0.61667	-1.2896	-0.27708	-1.3625	-1.0271	-0.7125	-1.2333	-0.58542	-1.1292	-1.3438	-0.42708	-1.4042	-0.875	-0.48542	355.524	368.091	210.842	373.263	371.481	154.768	358.600	350.355	97.048	123.673	310.126	337.961	51.825	321.895	251.011	393.547	0.00023029	0.00028123	0.0001185	1450.5	7.8427e-06	1.3909e-05	1440.2	390.01	3.1444e-06	8.7509e-06	440.02	145.84	127.73	43.727	7.9096e-06	53.402	0.00096815	0.001077	0.00031033	1502.4	1.0639e-05	1.1934e-05	1498.4	406.48	1.0837e-05	1.2039e-05	466.17	155.64	136.95	46.683	1.2046e-05	57.239	191.102	86.597	106.245	48.454	219.154	161.309	48.521	53.029	213.449	175.404	52.661	57.209	57.885	61.893	134.689	61.505	-8191	255	
1755.163	1	1	0	0	0.19685	0.17378	0.2211	0.34621	0.051716	0.02722	0.11174	0.58316	0.11673	0.096061	0.32546	0.2188	0.21465	0.11862	0.21076	0.2345	-0.81458	-0.60625	-0.82917	-1.4979	-0.2875	-1.1542	-1.1562	-0.63125	-1.3687	-0.60833	-1.1688	-1.2583	-0.41042	-1.15	-1.025	-0.62917	135.396	87.469	219.061	330.749	48.186	259.179	141.439	352.028	88.291	267.426	358.482	322.560	359.637	61.116	139.163	335.446	0.00041557	0.00069107	9.5367e-05	1445.7	4.823e-06	1.2764e-05	1438.6	390.71	5.2312e-06	5.2852e-06	438.91	146.08	127.62	43.591	6.6603e-06	53.659	0.00097551	0.0011276	0.0002997	1499.3	1.0835e-05	1.2431e-05	1496.5	406.12	1.1149e-05	1.2585e-05	465.05	155.44	137.42	46.855	1.1879e-05	57.109	181.981	78.872	117.765	48.501	258.204	181.736	48.534	53.085	227.335	216.507	52.304	57.471	58.014	61.955	214.123	61.134	-8191	255	
1755.282	1	1	0	0	0.013846	0.16809	0.15263	0.24526	0.3139	0.061697	0.31376	0.4188	0.18248	0.21243	0.14796	0.21325	0.24637	0.041595	0.19348	0.13283	-0.79167	-0.54375	-0.58542	-1.4458	-0.45625	-1.0688	-1.1146	-0.725	-1.2708	-0.61667	-0.84375	-1.4521	-0.60625	-1.0458	-1.0875	-0.5875	131.468	82.828	380.205	372.130	85.287	232.193	281.400	311.480	102.516	193.059	257.052	39.830	115.095	90.055	143.670	110.407	0.00041242	0.00062522	9.8776e-05	1452.7	1.0409e-05	4.5608e-06	1439.7	389.91	1.0688e-06	7.2643e-06	440.26	146.42	128.42	43.726	1.3364e-06	53.431	0.0010272	0.001168	0.00029751	1502.7	1.1729e-05	1.2657e-05	1494.7	405.92	1.1805e-05	1.2724e-05	464.62	155.36	138.84	46.874	1.1679e-05	57.073	191.177	225.744	349.390	48.393	225.559	260.948	48.457	53.056	198.366	177.899	52.524	57.105	57.906	61.870	348.022	61.298	-8191	255	
1755.378	1	1	0	0	0.13937	0.051085	0.39085	0.14257	0.18671	0.21237	0.17881	0.40748	0.099464	0.069069	0.12506	0.25051	0.095653	0.19821	0.29035	0.19339	-0.84792	-0.71875	-0.32917	-1.65	-0.33958	-0.825	-1.3375	-0.52083	-1.125	-0.95208	-0.79792	-1.5458	-0.58125	-0.97083	-1.1333	-0.44167	70.217	178.195	208.117	386.740	176.621	360.660	304.989	333.106	124.137	105.573	375.115	357.981	49.637	337.736	316.877	274.745	0.00039672	0.00041296	8.6649e-05	1452.9	8.9561e-06	4.6864e-06	1439.8	390.39	9.5273e-06	1.0955e-05	440.47	146.24	128.08	43.727	7.1929e-06	53.939	0.001085	0.0011498	0.0002905	1501.2	1.2213e-05	1.2193e-05	1495	405.82	1.2262e-05	1.2153e-05	463.46	154.97	139.23	46.553	1.1171e-05	57.134	183.545	203.862	46.235	48.504	209.345	94.554	48.487	53.262	210.811	214.395	52.364	57.534	57.847	61.875	248.662	61.421	-8191	255	
1755.474	1	1	0	0	0.14455	0.23811	0.15094	0.049779	0.25118	0.20558	0.19737	0.085358	0.055858	0.17692	0.16355	0.2072	0.38537	0.18643	0.29496	0.18868	-0.79375	-0.775	-0.21042	-1.5187	-0.60833	-0.85417	-1.4396	-0.77292	-1.175	-1.0625	-0.49792	-1.4458	-0.65417	-0.98125	-1.4396	-0.34792	141.619	221.269	329.601	83.091	102.748	328.226	311.459	268.123	88.463	119.635	145.420	84.249	355.687	317.125	72.540	362.805	0.0003226	0.0002757	6.1379e-05	1453.8	5.1324e-06	1.2289e-05	1439.3	391.53	2.3512e-06	3.3103e-06	441.56	146.8	127.79	43.48	1.6815e-06	53.756	0.0010967	0.0010962	0.00027862	1500.3	1.2361e-05	1.1644e-05	1490	406.69	1.2266e-05	1.1655e-05	462.52	155.51	139.04	46.409	1.0801e-05	57.353	193.015	111.484	196.275	48.425	190.315	136.865	48.490	53.322	42.867	55.979	52.543	57.218	57.948	62.073	304.793	61.420	-8191	255	
1755.570	1	1	0	0	0.35916	0.073089	0.099978	0.42781	0.12268	0.29489	0.2608	0.18152	0.23918	0.16105	0.38567	0.20673	0.28888	0.29435	0.30912	0.098624	-0.73125	-0.88958	-0.39375	-1.4708	-0.66667	-0.6875	-1.5458	-0.57292	-1.2104	-1.0438	-0.57917	-1.4	-0.95208	-0.62917	-1.325	-0.57917	282.089	308.184	393.380	343.313	129.156	308.751	335.522	264.377	339.822	365.856	365.409	300.681	381.268	349.751	261.932	103.546	0.00024403	0.00075734	0.00020715	1450.8	2.4066e-06	7.5473e-06	1437.6	389.57	7.1177e-06	3.3374e-06	439.88	146.69	127.04	43.649	1.1595e-05	53.693	0.0010926	0.0010635	0.00027061	1505	1.2341e-05	1.1361e-05	1489.1	407.39	1.2155e-05	1.1526e-05	461.48	156.38	138.83	46.393	1.0666e-05	57.691	179.434	94.815	73.813	48.658	155.954	70.765	48.691	53.163	177.550	183.868	52.677	57.356	58.129	62.291	203.152	61.347	-8191	255	
1755.667	1	1	0	0	0.1662	0.30109	0.13487	0.2541	0.065225	0.40644	0.19833	0.08727	0.041967	0.23994	0.13745	0.23173	0.13136	0.2337	0.17377	0.16383	-0.47708	-1.2542	-0.4	-1.3438	-0.93542	-0.26667	-1.7521	-0.60625	-0.84375	-1.525	-0.51875	-1.6458	-0.98333	-0.58333	-1.4333	-0.8375	246.771	62.636	363.227	329.073	330.026	365.152	76.566	338.962	356.084	156.912	323.016	94.751	93.884	394.504	158.052	190.543	0.00030428	0.00025652	3.3028e-05	1451.6	4.3765e-06	6.4099e-06	1444.8	392.27	3.4829e-06	4.8612e-06	442.5	146.76	127.55	43.458	1.4039e-05	53.859	0.0010643	0.0010452	0.00026948	1507.8	1.2006e-05	1.1036e-05	1488.3	409.02	1.1686e-05	1.122e-05	461.99	156.5	138.55	46.195	1.0894e-05	57.801	172.149	200.303	73.830	48.749	145.355	39.292	48.707	53.240	192.135	139.867	52.576	57.540	57.756	62.195	204.372	61.472	-8191	255	
1755.763	1	1	0	0	0.27938	0.060575	0.088266	0.1851	0.013961	0.15465	0.064474	0.15225	0.23035	0.17939	0.16657	0.20612	0.053486	0.33117	0.20074	0.044619	-0.48125	-1.2646	-0.39792	-1.3813	-1.1042	-0.48542	-1.5021	-1.0854	-0.69375	-1.4292	-0.69583	-0.925	-0.925	-0.47083	-1.3625	-0.88542	139.730	178.352	278.940	50.588	235.545	369.761	291.253	69.189	60.141	239.835	69.540	392.527	212.125	385.927	281.825	272.168	0.00020489	0.00039022	0.00032064	1454.6	4.6219e-06	7.1943e-06	1436.2	390.09	3.729e-06	5.2105e-06	442.46	146.49	127.24	43.585	1.2984e-05	53.456	0.0010325	0.0010256	0.00028164	1512.3	1.174e-05	1.0843e-05	1491.3	409.33	1.1438e-05	1.1005e-05	464.68	156.88	138.18	46.176	1.1648e-05	57.835	171.620	391.349	118.992	48.675	131.846	390.214	48.751	53.365	162.525	156.027	52.633	57.420	57.850	62.249	228.275	61.456	-8191	255	
1755.883	1	1	0	0	0.15107	0.11357	0.24085	0.19595	0.24729	0.26165	0.22792	0.1367	0.27799	0.23947	0.18236	0.23552	0.1774	0.048107	0.11646	0.26067	-0.18542	-1.3062	-0.41458	-1.3271	-1.0229	-0.26458	-1.4604	-1.1875	-0.59375	-1.3604	-0.71042	-1.3125	-1.3438	-0.6	-1.2521	-0.87917	291.255	207.477	229.456	366.587	100.016	161.243	304.381	273.117	256.539	312.113	89.530	341.214	387.703	138.263	294.196	395.173	0.00034177	0.00040296	0.0005303	1451.3	3.7059e-06	6.673e-06	1437.9	391.64	4.8244e-06	1.3896e-06	441.58	146.12	127.39	43.537	1.122e-05	53.628	0.0010188	0.0010064	0.00030152	1510	1.1709e-05	1.0749e-05	1497	409.65	1.1371e-05	1.09e-05	466.92	156.3	137.79	46.139	1.2129e-05	57.723	186.422	369.903	143.156	48.623	219.644	130.106	48.646	53.246	93.856	192.096	52.472	57.593	58.128	62.173	209.527	61.388	-8191	255	
1755.978	1	1	0	0	0.092151	0.16939	0.24889	0.3078	0.12027	0.092931	0.38151	0.35589	0.079429	0.19547	0.13852	0.1934	0.27132	0.23916	0.12522	0.11681	-0.16458	-1.2208	-0.49167	-1.0417	-1.0458	-0.58333	-1.5667	-1.0583	-0.44583	-1.2437	-0.97917	-0.73333	-1.1583	-0.51667	-0.96458	-1.0604	372.074	169.807	95.724	275.848	49.422	193.485	310.767	255.882	242.418	265.749	321.706	259.028	66.528	385.193	349.254	45.619	0.00029418	0.00076757	0.00028818	1448.7	3.0615e-06	1.2567e-05	1440.3	390.6	7.3429e-06	6.2352e-06	440.39	146.22	127.41	43.747	4.7019e-06	53.628	0.0010002	0.0010082	0.00031803	1507	1.1439e-05	1.0942e-05	1502	408.15	1.1113e-05	1.1266e-05	468.21	155.97	137.41	46.298	1.2421e-05	57.602	187.176	141.879	122.502	48.808	180.743	181.405	48.634	53.218	303.954	176.102	52.637	57.342	58.265	62.057	201.046	61.270	-8191	255	
1756.074	1	1	0	0	0.20781	0.11897	0.2334	0.36594	0.24115	0.28817	0.23562	0.32775	0.08482	0.15143	0.14765	0.15078	0.2264	0.11201	0.18215	0.060766	-0.079167	-1.1396	-0.75625	-0.80417	-1.3396	-0.45625	-1.275	-1.3896	-0.36875	-1.2437	-1.2271	-0.87917	-1.3521	-0.59792	-0.94375	-1.2042	159.660	303.903	218.136	376.338	178.896	142.882	313.187	327.695	109.633	48.231	310.835	310.392	346.082	345.463	344.998	318.807	0.00031393	0.00099234	3.997e-05	1451	7.5743e-07	1.832e-05	1436.9	391.44	3.9228e-06	1.0387e-05	441.68	146.53	127.79	43.543	5.389e-06	53.695	0.00097594	0.0010576	0.00032139	1505.6	1.1179e-05	1.1654e-05	1499.5	408.11	1.0878e-05	1.1893e-05	467.55	155.99	137.4	46.598	1.231e-05	57.525	194.588	131.066	93.809	48.743	366.997	150.120	48.732	53.145	274.454	225.803	52.685	57.436	58.104	62.215	227.639	61.410	-8191	255	
1756.146	1	1	0	0	0.15967	0.051583	0.17139	0.24765	0.10628	0.091586	0.28647	0.22308	0.20912	0.03271	0.33685	0.15222	0.25189	0.15852	0.085992	0.13797	0.020833	-1.3021	-0.67083	-0.94583	-1.4354	-0.72292	-1.2333	-1.4979	-0.32708	-1.225	-1.0375	-0.54583	-1.3833	-0.6125	-0.83958	-1.4396	58.890	131.031	101.256	88.305	114.603	91.871	303.245	352.171	83.734	129.230	306.474	392.204	61.702	367.421	362.489	117.685	0.00024575	0.00073896	0.00038051	1449.5	4.2665e-06	6.4442e-06	1439.6	391.5	5.2749e-06	5.4358e-06	440.4	146	127.33	43.717	3.2865e-06	53.605	0.00096045	0.0011291	0.00031849	1502.8	1.1087e-05	1.2379e-05	1498	408.07	1.094e-05	1.2524e-05	467.1	155.33	137.29	46.898	1.2013e-05	57.402	176.753	136.026	378.345	48.675	240.763	186.224	48.822	53.345	288.949	187.030	52.461	57.551	58.048	62.131	128.921	61.610	-8191	255	
1756.266	1	1	0	0	0.11035	0.080295	0.3507	0.47368	0.25961	0.3098	0.27574	0.33631	0.24532	0.23521	0.40207	0.40324	0.11489	0.10492	0.28546	0.14895	-0.1	-1.0542	-0.97708	-0.48333	-1.3271	-0.83958	-1.0167	-1.5438	-0.35	-1.3146	-1.1729	-0.66875	-1.3438	-0.79583	-0.57292	-1.4188	145.705	269.152	207.367	41.043	236.945	82.289	346.824	380.445	124.206	152.968	352.116	45.812	60.359	335.636	92.918	274.350	0.00051027	0.00084047	0.00011997	1444	8.2415e-06	1.0558e-05	1436.4	391.42	6.9383e-06	5.7783e-06	441.43	146.74	127.62	43.683	1.8387e-06	53.479	0.00099661	0.0011648	0.00031071	1497.8	1.1333e-05	1.2725e-05	1494	406.66	1.1223e-05	1.2539e-05	465.93	154.93	137.95	46.788	1.1386e-05	57.11	184.718	133.111	318.608	48.498	209.257	185.292	48.715	53.198	268.675	180.124	52.829	57.765	58.058	62.272	198.914	61.575	-8191	255	
1756.362	1	1	0	0	0.24259	0.11051	0.34169	0.33804	0.23608	0.16093	0.24352	0.33185	0.10689	0.25967	0.23239	0.07376	0.19537	0.12545	0.1619	0.20232	-0.26042	-0.99375	-1.2437	-0.62708	-1.2417	-0.81875	-0.82917	-1.5958	-0.3625	-0.98542	-1.3042	-0.42292	-1.4521	-0.79583	-0.55833	-1.6812	305.177	358.192	376.582	363.502	346.198	370.004	107.582	316.837	103.779	129.513	352.120	129.693	315.162	153.813	169.717	122.687	0.00040283	0.00070246	9.6743e-05	1450.4	1.1169e-05	7.9485e-06	1437.8	390.21	1.1857e-05	3.1036e-06	441.13	145.98	127.92	43.498	2.8364e-06	53.595	0.0010247	0.0011319	0.00029554	1494.3	1.169e-05	1.2344e-05	1489.2	405.63	1.1731e-05	1.2094e-05	463.93	154.6	138.53	46.628	1.1118e-05	57.056	182.396	79.216	88.974	48.597	201.603	112.169	48.734	53.274	252.989	73.717	52.645	57.752	58.210	61.921	164.189	61.680	-8191	255	
1756.459	1	1	0	0	0.19585	0.18259	0.2292	0.29828	0.099156	0.1516	0.11631	0.087649	0.37688	0.36674	0.28187	0.1489	0.057796	0.13819	0.23402	0.27179	-0.097917	-0.925	-1.4125	-0.51667	-1.1229	-0.7625	-0.46042	-1.5854	-0.53542	-0.9375	-1.4875	-0.41458	-1.3854	-1.1104	-0.34167	-1.4521	251.098	118.282	66.244	370.635	130.947	279.832	294.668	90.749	353.104	386.824	51.230	384.254	94.126	387.742	100.686	194.870	0.00038572	0.00057791	0.00014807	1448.7	7.6694e-06	1.1776e-05	1441	390.35	8.365e-06	8.6018e-06	441.03	146.49	127.42	43.439	4.5999e-06	53.873	0.0010798	0.0011097	0.00029267	1495.2	1.2267e-05	1.2268e-05	1490.5	406.44	1.254e-05	1.2146e-05	464.65	155.47	139.51	46.636	1.1278e-05	57.448	173.458	131.504	64.256	48.769	250.704	54.723	48.552	53.524	203.331	165.623	52.622	57.755	58.170	61.951	195.188	61.380	-8191	255	
1756.555	1	1	0	0	0.11578	0.051812	0.10093	0.39674	0.245	0.19847	0.13536	0.24058	0.13028	0.27272	0.16001	0.18148	0.17189	0.23999	0.2234	0.26909	-0.17708	-0.77292	-1.2375	-0.525	-1.1896	-1.0938	-0.6625	-1.4438	-0.72708	-0.5875	-1.5396	-0.41458	-1.1146	-1.2646	-0.32708	-1.3708	278.354	226.130	369.288	394.949	353.878	51.669	353.655	358.217	98.159	279.606	363.276	382.535	388.983	38.054	150.435	338.156	0.00040675	0.0008203	1.9242e-05	1449.1	7.494e-06	1.2835e-05	1442.4	390.44	6.559e-06	4.6958e-06	440.99	146.29	127.69	43.653	1.4172e-06	53.679	0.0011442	0.0011069	0.00029219	1501.1	1.2835e-05	1.2118e-05	1491	407.91	1.2851e-05	1.1913e-05	463.77	156.07	139.74	46.648	1.1138e-05	57.776	175.321	372.481	367.692	48.554	219.410	105.165	48.835	53.317	229.919	81.134	52.738	57.652	58.139	62.127	300.418	61.616	-8191	255	
1756.675	1	1	0	0	0.21073	0.15291	0.23397	0.37928	0.13924	0.1577	0.42006	0.020091	0.22884	0.1973	0.045822	0.19505	0.063823	0.3688	0.13295	0.14156	-0.37917	-0.45833	-1.2792	-0.59792	-0.95208	-1.1958	-0.7875	-1.3833	-0.73542	-0.41042	-1.3917	-0.61667	-0.80833	-1.3667	-0.30625	-1.225	361.438	184.105	147.092	363.607	379.632	86.973	338.914	240.710	60.075	94.982	245.897	345.956	267.873	66.091	341.939	302.871	0.00032453	0.00074459	0.00016574	1450.6	4.9423e-06	5.7509e-06	1440.7	391.11	1.7135e-06	1.472e-06	444.34	146.1	128.15	43.546	3.568e-06	53.696	0.0011535	0.0011003	0.00029129	1509.8	1.2796e-05	1.2179e-05	1491.2	410.26	1.2832e-05	1.1909e-05	465.62	157.34	139.89	46.687	1.1369e-05	58.266	179.234	58.481	139.086	48.383	132.742	56.395	48.678	53.561	278.539	370.144	52.743	57.595	58.052	62.111	230.091	61.521	-8191	255	
1756.771	1	1	0	0	0.22519	0.33361	0.18686	0.25808	0.15723	0.2946	0.13655	0.13591	0.041939	0.3538	0.21755	0.2027	0.10074	0.33555	0.21233	0.40656	-0.425	-0.47708	-1.2687	-0.62917	-0.92292	-1.1708	-0.55833	-1.2292	-1.0562	-0.53125	-1.5542	-0.54583	-0.8	-1.2979	-0.44375	-1.2521	312.305	51.399	288.976	393.945	349.554	138.935	314.106	43.523	196.380	130.360	347.532	44.028	45.765	384.813	76.524	380.639	0.00031387	0.00054011	0.00021356	1454.1	2.6484e-06	6.4211e-06	1444.3	392.99	4.0614e-06	2.4818e-07	443.03	147.49	127.28	43.762	6.6323e-06	53.951	0.0011494	0.0011027	0.00029739	1517.1	1.2661e-05	1.2118e-05	1497.3	412.7	1.2773e-05	1.1869e-05	467.39	158.49	139.34	46.761	1.197e-05	58.518	183.753	114.417	105.207	48.447	191.340	245.002	48.681	53.258	287.783	274.562	52.541	57.616	58.103	62.213	231.390	61.622	-8191	255	
1756.843	1	1	0	0	0.095914	0.11472	0.057103	0.43343	0.14637	0.02411	0.41618	0.2085	0.21805	0.087688	0.22135	0.35865	0.26583	0.23019	0.1596	0.098642	-0.59167	-0.34583	-1.3188	-0.9375	-0.55625	-1.3229	-0.7	-1.1187	-1.0646	-0.4	-1.4708	-0.875	-0.72917	-1.5333	-0.42708	-1.2479	274.424	352.785	221.373	50.844	290.275	148.510	315.820	333.788	386.454	102.582	362.196	340.958	351.217	395.211	279.909	386.945	0.0003738	0.00058876	0.00024915	1456.3	1.7654e-06	4.1191e-06	1444.2	392.08	5.4973e-06	5.6183e-06	442.35	147.14	127.89	43.657	8.9308e-06	54.081	0.0011208	0.0010828	0.00031456	1521.4	1.2422e-05	1.18e-05	1503.4	411.94	1.2524e-05	1.1528e-05	469.54	158.29	139.39	46.651	1.2744e-05	58.506	184.244	378.910	173.620	48.684	286.144	43.266	48.881	53.644	225.283	125.301	52.753	57.552	58.095	62.090	217.724	61.555	-8191	255	
1756.964	1	1	0	0	0.17044	0.1573	0.3261	0.23977	0.15816	0.13763	0.19814	0.29184	0.062492	0.28595	0.27862	0.27992	0.12547	0.57403	0.075571	0.27496	-0.92292	-0.54167	-1.2229	-1.0312	-0.64167	-1.3542	-0.62292	-1.1042	-1.2875	-0.52917	-1.4875	-0.92292	-0.52917	-1.5042	-0.54167	-0.97708	70.943	230.132	37.751	319.833	179.164	377.727	296.402	332.907	260.289	235.745	314.016	41.512	130.579	364.205	380.974	330.341	0.00038267	0.00058943	0.00036809	1457	5.7373e-06	1.5951e-06	1445.3	392.87	3.1982e-06	1.2806e-06	443.7	146.49	127.6	43.705	1.039e-05	53.855	0.00111	0.0010515	0.00032958	1521.1	1.2112e-05	1.1676e-05	1510.4	411.67	1.2216e-05	1.1472e-05	471.14	157.62	138.9	46.596	1.3266e-05	58.231	185.459	98.659	135.054	48.749	173.038	274.394	48.871	53.474	198.844	187.282	53.111	57.650	58.206	62.273	200.547	61.785	-8191	255	
1757.058	1	1	0	0	0.15477	0.24421	0.14736	0.40068	0.14629	0.090066	0.23992	0.23767	0.33783	0.19647	0.21255	0.16916	0.27517	0.20332	0.20681	0.1507	-0.85	-0.26667	-1.1375	-1.2042	-0.36875	-1.3604	-0.73542	-0.91875	-1.2854	-0.4875	-1.1708	-1.0771	-0.30417	-1.5083	-0.69583	-0.75833	87.352	137.039	165.151	389.831	308.337	198.015	388.826	385.606	127.253	116.874	345.355	315.631	57.311	54.576	383.478	343.483	0.00034547	0.00064733	0.00045034	1455.5	2.4303e-06	9.2704e-06	1442.6	391.77	2.2559e-06	1.3297e-05	444.72	146.35	127.69	43.961	6.8004e-06	53.745	0.0010809	0.0010764	0.00034039	1517.7	1.1756e-05	1.1998e-05	1511.9	410.76	1.1973e-05	1.21e-05	472.49	157.42	138.28	46.879	1.3368e-05	57.98	180.063	153.592	104.059	48.743	318.534	169.195	48.777	53.519	203.054	168.878	52.621	57.602	58.203	62.245	146.041	61.433	-8191	255	
1757.154	1	1	0	0	0.12474	0.15887	0.20685	0.44977	0.24021	0.12921	0.21233	0.082538	0.15561	0.11682	0.187	0.40916	0.33767	0.078192	0.10074	0.23578	-0.92292	-0.25	-1.0312	-1.4021	-0.4625	-1.2417	-1.1437	-0.81875	-1.1771	-0.39792	-1.0333	-1.1667	-0.60208	-1.3354	-0.78333	-0.61042	81.065	49.191	138.540	352.018	162.802	334.342	358.330	237.262	365.477	109.807	319.605	365.737	41.514	95.521	294.835	73.667	0.0002595	0.00092235	0.00011733	1458.8	6.2864e-06	2.3536e-05	1444.4	391.84	4.3839e-06	5.761e-06	440.96	147.34	128.17	43.719	3.806e-06	53.612	0.001052	0.0011383	0.00033903	1517	1.1571e-05	1.2557e-05	1511.9	410.18	1.1589e-05	1.2664e-05	469.51	157.28	138.02	46.997	1.2914e-05	57.701	166.116	116.535	113.104	48.528	222.207	195.935	48.646	53.412	227.605	200.287	52.845	57.627	58.184	62.194	375.826	61.886	-8191	255	
1757.250	1	1	0	0	0.1554	0.28376	0.22281	0.35662	0.37077	0.13408	0.21743	0.25754	0.062352	0.14884	0.1807	0.15364	0.16535	0.095461	0.082479	0.096439	-1.025	-0.42083	-0.98958	-1.45	-0.42708	-1.0833	-1.1313	-0.56667	-1.3937	-0.49167	-0.97708	-1.5312	-0.48125	-1.3458	-0.8375	-0.76042	126.339	315.357	222.625	372.452	306.071	158.078	385.908	335.775	334.372	111.105	39.023	322.506	303.423	355.392	70.207	291.598	0.0003607	0.00086419	0.00015171	1457.7	2.3702e-06	8.8466e-06	1446.9	391.61	4.1906e-06	8.7027e-06	443.08	146.31	128.22	43.871	7.3875e-06	53.696	0.0010236	0.0011811	0.00032477	1513.3	1.1423e-05	1.3002e-05	1508.6	409.36	1.1679e-05	1.3198e-05	469.47	156.7	138.32	47.181	1.2545e-05	57.61	180.844	113.680	361.455	48.577	131.901	183.505	48.630	53.454	145.191	198.056	52.678	57.474	57.974	62.079	208.504	61.538	-8191	255	
1757.371	1	1	0	0	0.26745	0.14072	0.20569	0.34024	0.062128	0.064276	0.28882	0.29611	0.16399	0.16359	0.13292	0.047262	0.20011	0.14882	0.115	0.069794	-1.1958	-0.41458	-0.875	-1.4167	-0.42292	-1.1646	-1.325	-0.70625	-1.4937	-0.55625	-0.98125	-1.4667	-0.55208	-1.4917	-1.1396	-0.63542	207.521	97.579	309.535	375.091	313.198	165.289	303.005	44.165	235.186	248.111	349.521	62.160	166.648	335.858	116.006	338.137	0.00042942	0.00043151	0.00011628	1457.9	9.8541e-06	1.1957e-05	1444.4	391.57	9.8138e-06	1.5037e-06	442.27	146.82	128.37	43.863	1.5931e-06	53.754	0.0010485	0.0012205	0.00031331	1510.5	1.181e-05	1.3181e-05	1505.2	408.45	1.2105e-05	1.3163e-05	468.19	156.35	139.49	47.169	1.2303e-05	57.491	186.311	43.722	343.467	48.692	213.802	173.327	48.699	53.563	203.285	237.619	52.755	57.858	58.040	62.398	111.332	61.577	-8191	255	
1757.443	1	1	0	0	0.07613	0.15649	0.34732	0.12675	0.10871	0.13697	0.11496	0.46605	0.14346	0.50042	0.20706	0.16383	0.057224	0.33042	0.098915	0.26777	-0.88333	-0.77083	-0.7625	-1.3563	-0.48333	-1.1208	-1.3813	-0.55833	-1.2	-0.82292	-0.63125	-1.4583	-0.40208	-1.0875	-1.1646	-0.42917	120.034	362.919	337.336	283.681	214.456	190.423	333.236	325.739	103.981	62.834	368.204	353.567	230.328	102.763	178.450	322.242	0.0003462	0.00046891	0.00028048	1454.4	7.8755e-06	1.0528e-05	1447.7	391.76	8.0108e-06	6.318e-06	443.83	147.07	128.88	43.626	4.7253e-06	53.849	0.001119	0.0012234	0.00030971	1510	1.2714e-05	1.3008e-05	1504.5	408.41	1.29e-05	1.3143e-05	468.65	156.19	140.39	47	1.2158e-05	57.607	186.638	44.599	97.938	48.598	241.237	372.413	48.716	53.500	189.568	83.592	52.817	57.585	58.046	62.402	136.300	61.483	-8191	255	
1757.563	1	1	0	0	0.14964	0.29821	0.039137	0.33792	0.097148	0.35073	0.25817	0.28298	0.085033	0.035804	0.13011	0.22046	0.14871	0.18235	0.19898	0.36947	-1.0063	-0.88542	-0.24792	-1.6958	-0.66042	-0.90208	-1.4646	-0.55	-1.275	-0.89375	-0.44583	-1.2625	-0.58958	-1.0104	-1.2146	-0.44167	182.931	49.760	228.439	59.362	46.997	266.947	325.116	298.960	136.917	275.835	297.358	328.230	290.199	298.510	213.712	46.015	0.00037414	0.00036216	0.00018693	1456.5	5.2849e-06	1.415e-05	1447.9	393.01	8.6061e-06	5.7448e-06	442.25	146.84	127.81	43.695	4.1506e-06	53.868	0.0011685	0.0011857	0.00030059	1509.7	1.3181e-05	1.2516e-05	1503.8	408.78	1.3194e-05	1.258e-05	466.31	156.37	141.02	46.912	1.1793e-05	57.887	182.035	132.826	174.536	48.712	220.618	87.335	48.586	53.323	196.892	246.222	52.603	57.718	58.431	62.385	247.141	61.518	-8191	255	
1757.660	1	1	0	0	0.22418	0.28722	0.078728	0.22753	0.2175	0.07084	0.2222	0.35535	0.10163	0.099236	0.098147	0.17262	0.076545	0.31538	0.26046	0.28505	-0.87083	-1.0146	-0.3	-1.4667	-0.66458	-0.91042	-1.5521	-0.68958	-1.2208	-1.175	-0.6875	-1.4292	-0.68333	-0.73125	-1.3333	-0.41875	359.019	362.453	65.102	357.221	345.062	393.109	359.770	335.641	260.869	144.046	306.118	209.608	77.393	333.503	231.918	364.916	0.00032043	0.00016927	8.7724e-05	1458.8	3.0538e-06	5.3712e-06	1447.1	391.74	1.7953e-06	8.4365e-06	442.8	147.47	128.45	43.838	4.0658e-06	53.751	0.0011809	0.0011551	0.0002951	1516.2	1.341e-05	1.2228e-05	1501.4	410.28	1.3149e-05	1.2448e-05	466.13	157.65	140.97	46.87	1.1542e-05	58.129	201.687	135.338	113.711	48.721	150.488	156.277	48.949	53.398	124.265	109.753	53.055	57.680	58.292	62.314	130.802	61.904	-8191	255	
1757.756	1	1	0	0	0.1205	0.26521	0.31123	0.35214	0.10036	0.19506	0.24848	0.54481	0.2679	0.23073	0.24336	0.14357	0.091718	0.35699	0.21037	0.20951	-0.7625	-1.0875	-0.65417	-1.4438	-0.8125	-0.58125	-1.5708	-0.68333	-0.93333	-1.1708	-0.5375	-1.2542	-0.92292	-0.66667	-1.4104	-0.60417	156.553	393.356	308.081	348.384	271.631	357.584	321.520	338.359	371.624	83.511	44.813	56.817	90.224	41.222	373.025	299.317	0.00032719	0.00015097	0.00022834	1458.7	5.8154e-06	5.1893e-06	1446.2	393.6	3.811e-06	4.0841e-06	442.24	146.96	127.77	43.754	1.3685e-05	53.79	0.0011673	0.0011429	0.00029287	1521.3	1.3155e-05	1.2151e-05	1501.9	412.25	1.2877e-05	1.2297e-05	465.71	158.2	140.06	46.702	1.1702e-05	58.461	174.896	258.594	109.308	48.658	146.414	153.921	48.769	53.417	159.351	268.663	52.923	57.813	57.956	62.048	189.607	61.506	-8191	255	
1757.852	1	1	0	0	0.047669	0.18608	0.26678	0.2629	0.073631	0.24623	0.15497	0.1515	0.11553	0.3662	0.4189	0.2063	0.12225	0.084865	0.1222	0.14422	-0.52083	-1.1854	-0.42292	-1.3625	-0.79792	-0.47708	-1.6771	-0.81458	-0.61458	-1.4562	-0.57917	-1.3229	-1.0104	-0.61875	-1.2521	-0.76042	294.012	214.612	276.475	376.706	305.728	98.432	327.244	248.298	54.786	250.556	309.600	347.588	276.768	383.825	84.967	385.207	0.00032133	0.00056802	0.00023415	1460.3	3.917e-06	1.2348e-05	1448.4	393.73	3.1932e-06	3.9499e-06	444.42	147.5	127.45	43.664	1.6343e-06	53.906	0.0011263	0.0011119	0.00029835	1525	1.274e-05	1.1787e-05	1503.9	413.37	1.2442e-05	1.1928e-05	467.92	158.58	139.94	46.581	1.2275e-05	58.491	188.239	372.580	142.347	48.622	180.003	112.504	48.707	53.208	193.671	265.620	52.793	57.807	57.827	62.010	186.788	61.583	-8191	255	
1757.971	1	1	0	0	0.20864	0.21902	0.26783	0.27609	0.19886	0.37987	0.12835	0.2865	0.18893	0.13033	0.053346	0.10358	0.27763	0.10977	0.16821	0.071979	-0.19167	-1.3813	-0.57708	-1.1521	-0.95	-0.22708	-1.4417	-0.93958	-0.81458	-1.3438	-0.68958	-1.1333	-1.225	-0.50208	-1.3167	-0.91458	124.370	367.131	262.497	369.704	337.546	79.091	161.559	380.367	53.117	391.672	64.657	378.399	37.537	374.392	190.411	218.609	0.00039302	0.00067995	0.00027061	1458.9	2.262e-06	1.4514e-05	1445.6	393	1.8688e-06	4.3772e-06	441.5	146.97	128.09	43.701	5.6445e-06	54.098	0.0010932	0.0010788	0.0003125	1524	1.2415e-05	1.1321e-05	1508.3	412.53	1.2148e-05	1.164e-05	469.88	157.81	139.6	46.592	1.2767e-05	58.411	187.848	108.651	147.830	48.758	183.548	205.932	48.750	53.381	158.112	191.442	52.638	57.776	57.842	62.245	219.821	61.518	-8191	255	
1758.042	1	1	0	0	0.063002	0.16674	0.11193	0.1222	0.050333	0.20231	0.3199	0.3475	0.15193	0.44318	0.35922	0.090826	0.24188	0.12365	0.22255	0.28073	-0.38125	-1.1208	-0.49792	-1.2188	-1.1875	-0.42292	-1.4583	-1.1667	-0.51667	-1.4521	-0.72083	-1.0792	-1.4375	-0.56042	-1.3479	-1.1292	51.608	91.042	394.422	321.755	270.664	112.294	285.329	351.700	365.125	389.632	344.088	56.639	365.479	366.280	152.097	341.430	0.00035183	0.00014824	6.542e-05	1456	1.1774e-06	1.1625e-05	1444.6	393.17	3.5116e-06	3.1423e-06	443.28	146.67	128.45	43.624	6.1675e-06	54.119	0.0010664	0.0010591	0.00032921	1519.6	1.2038e-05	1.1383e-05	1511.3	411.56	1.1629e-05	1.1626e-05	470.4	157.42	138.88	46.525	1.283e-05	58.044	171.787	181.761	216.005	48.657	192.448	227.567	48.796	53.315	121.223	185.156	52.773	57.678	57.868	62.094	289.046	61.542	-8191	255	
1758.139	1	1	0	0	0.24764	0.15776	0.20702	0.37107	0.20849	0.11007	0.23994	0.18798	0.083711	0.21732	0.1343	0.35588	0.055318	0.2495	0.15151	0.22004	-0.14167	-1.2396	-0.64583	-1.0417	-1.3771	-0.39792	-1.3479	-1.2542	-0.56458	-1.4375	-0.72292	-0.82083	-1.4708	-0.7375	-1.175	-1.1	216.000	330.330	260.464	389.735	125.505	68.977	384.056	334.995	268.772	103.733	389.308	340.392	382.347	354.609	50.891	374.753	0.00037118	0.00054629	7.9259e-05	1453.3	6.2433e-06	1.4654e-05	1447.3	393.54	4.6494e-06	8.4888e-06	441.85	147.16	128.05	43.841	1.0533e-05	53.833	0.0010171	0.0010734	0.00033026	1514	1.1512e-05	1.1701e-05	1510.3	410.95	1.1252e-05	1.197e-05	470.52	156.84	138.29	46.828	1.2809e-05	57.895	181.004	208.343	106.272	49.000	216.107	176.128	48.684	53.322	233.875	240.347	52.579	57.480	58.034	62.149	238.217	61.314	-8191	255	
1758.235	1	1	0	0	0.02611	0.14619	0.051183	0.15551	0.30175	0.21913	0.29032	0.77054	0.16599	0.16924	0.23972	0.30227	0.082857	0.19917	0.45529	0.15179	0.072917	-1.4833	-0.62708	-0.94375	-1.1521	-0.35833	-1.0583	-1.3729	-0.29375	-1.3625	-0.95417	-0.8125	-1.4667	-0.52292	-1.0146	-1.3188	144.772	42.819	265.668	375.504	357.154	238.311	37.326	324.488	88.359	169.091	289.575	369.538	353.218	242.186	118.769	45.306	0.00033857	0.00058085	6.0814e-05	1459.6	2.431e-07	1.0121e-05	1447.1	392.17	5.4544e-06	8.6683e-06	442.81	146.7	128.55	43.694	4.2506e-06	53.663	0.001002	0.0011394	0.0003291	1513.2	1.1344e-05	1.2511e-05	1509.5	409.73	1.1203e-05	1.2692e-05	470.4	156.45	138.43	47.011	1.2555e-05	57.739	177.619	127.045	120.943	48.732	276.814	162.494	49.135	53.293	217.779	174.203	52.917	57.927	58.169	62.368	88.235	61.706	-8191	255	
1758.355	1	1	0	0	0.054351	0.15772	0.21363	0.26394	0.033703	0.21292	0.32005	0.27901	0.11499	0.012127	0.15281	0.1785	0.08502	0.25774	0.095078	0.29652	-0.072917	-1.2167	-0.96667	-0.88125	-1.3708	-0.74375	-0.99792	-1.5792	-0.63333	-1.0854	-0.97708	-0.48958	-1.4667	-0.92708	-0.72917	-1.4667	298.451	68.633	68.912	385.750	151.508	224.770	279.590	336.264	249.283	161.655	38.879	300.670	173.937	350.463	75.049	383.255	0.0003912	0.00097676	0.00021627	1461.5	1.1437e-05	6.4861e-06	1449.9	393.11	1.8781e-06	6.4148e-06	442.78	147.66	128.1	43.729	4.2357e-06	54.133	0.0010163	0.0011952	0.00032351	1512.5	1.171e-05	1.3219e-05	1506.5	409.99	1.1543e-05	1.3135e-05	469.58	156.38	138.86	47.18	1.2164e-05	57.874	187.552	112.743	350.379	48.810	213.936	264.036	49.121	53.482	175.274	167.163	52.923	58.002	58.296	62.256	186.718	61.694	-8191	255	
1758.451	1	1	0	0	0.094185	0.0090462	0.16686	0.072315	0.029062	0.15439	0.28227	0.25604	0.17031	0.16694	0.23567	0.23228	0.21994	0.21676	0.34661	0.054756	-0.17292	-1.025	-0.95208	-0.50417	-1.2917	-0.80208	-0.87083	-1.6083	-0.62083	-1.0562	-1.1833	-0.6375	-1.5875	-0.90417	-0.78958	-1.5417	108.640	275.371	391.402	317.321	374.208	133.696	370.180	382.388	303.860	209.253	386.782	343.753	309.113	363.153	84.401	390.550	0.00041221	0.00034712	0.00015311	1458.2	1.3464e-06	6.7762e-06	1447.6	391.94	5.3243e-06	4.7711e-06	443.38	147	128.68	43.778	7.3306e-06	54.058	0.0010661	0.0012118	0.00031634	1511.4	1.2299e-05	1.3342e-05	1504.6	409.48	1.2358e-05	1.32e-05	469.34	156.17	140.08	47.228	1.203e-05	57.755	184.766	241.349	102.493	48.856	322.509	182.281	48.953	53.577	224.027	145.734	52.565	57.687	58.256	62.079	165.932	61.760	-8191	255	
1758.548	1	1	0	0	0.2512	0.047512	0.23304	0.19985	0.1288	0.025367	0.26409	0.28348	0.056857	0.20148	0.10078	0.072897	0.19467	0.059365	0.14652	0.36025	-0.15833	-0.8625	-1.1792	-0.73542	-1.275	-0.85625	-1.0583	-1.5729	-0.49583	-1.0187	-1.5271	-0.575	-1.2354	-1.0146	-0.74375	-1.4958	393.908	276.729	86.182	353.997	94.652	146.400	319.502	323.902	355.767	298.830	211.244	355.386	383.466	56.606	216.618	298.402	0.00050322	0.00065707	2.1898e-05	1463.4	6.4701e-06	8.9169e-06	1449.4	391.8	6.1456e-06	7.214e-06	443.73	146.93	128.54	43.648	4.5202e-06	54.015	0.0011398	0.0012037	0.00031687	1511.9	1.3025e-05	1.3081e-05	1504.1	409.31	1.3115e-05	1.287e-05	468.99	156.51	140.71	47.067	1.1881e-05	57.857	169.797	80.901	54.837	49.064	264.447	188.492	49.168	53.502	250.446	78.470	52.806	58.149	58.408	62.552	226.340	62.007	-8191	255	
1758.644	1	1	0	0	0.095034	0.09682	0.11968	0.13602	0.20088	0.11452	0.22969	0.21956	0.061581	0.16981	0.33238	0.14263	0.096689	0.27478	0.29281	0.24502	-0.1875	-0.77292	-1.4042	-0.71667	-1.1812	-1.1229	-0.72083	-1.7062	-0.79792	-0.84375	-1.4083	-0.8125	-1.1042	-1.2083	-0.57292	-1.5312	385.797	323.702	67.860	182.241	109.906	44.730	338.510	350.608	374.039	323.354	371.303	46.464	167.448	351.486	204.449	71.472	0.00036558	0.00041671	0.00015966	1458.9	3.1746e-06	7.4394e-06	1449	392.6	2.484e-06	6.0812e-06	443.41	146.62	128.65	43.823	5.8861e-06	53.955	0.0011951	0.0011721	0.00030983	1514.2	1.3566e-05	1.2913e-05	1503.2	411.14	1.3608e-05	1.2676e-05	468.16	157.06	141.42	47.166	1.1795e-05	58.261	188.979	309.162	390.758	49.152	216.746	352.560	49.046	53.692	159.191	128.689	52.726	57.535	57.990	62.029	188.272	61.599	-8191	255	
1758.740	1	1	0	0	0.10777	0.085876	0.13023	0.34234	0.1908	0.15611	0.33663	0.32925	0.23157	0.22301	0.31666	0.26776	0.19553	0.24759	0.12049	0.21608	-0.43542	-0.80625	-1.2625	-0.8	-1.1583	-1.2833	-0.625	-1.5729	-0.72292	-0.63333	-1.3729	-0.65833	-1.2042	-1.3542	-0.33542	-1.3646	54.685	235.114	227.888	395.176	211.845	90.914	300.425	302.506	213.296	308.079	74.471	68.042	47.350	76.257	361.982	347.992	0.00024464	0.0010169	0.00011398	1459.2	6.2479e-06	7.068e-06	1448.3	393.73	6.597e-06	3.5214e-06	442.85	147.75	128.31	43.818	6.8646e-06	54.072	0.001218	0.0011681	0.00030637	1521.4	1.3638e-05	1.2873e-05	1502.8	413.36	1.376e-05	1.2609e-05	469.18	158.75	141.44	47.138	1.1867e-05	58.68	172.960	316.562	53.042	48.717	254.174	72.032	48.858	53.482	207.850	159.018	52.632	57.645	58.199	61.974	158.493	61.659	-8191	255	
1758.836	1	1	0	0	0.093046	0.31048	0.037516	0.3379	0.3153	0.19729	0.3324	0.2226	0.075255	0.10233	0.27396	0.24999	0.11251	0.17811	0.071315	0.41713	-0.45208	-0.52917	-1.2437	-0.72292	-0.95625	-1.1979	-0.70208	-1.4792	-0.97708	-0.56458	-1.7104	-0.62083	-0.9375	-1.5063	-0.62083	-1.3167	250.729	179.205	268.988	41.632	60.615	130.628	353.463	308.168	273.567	331.613	260.682	334.617	296.609	64.553	391.186	328.457	0.00036463	0.00069286	0.00020791	1461.7	7.0319e-06	1.4798e-06	1450.8	392.85	7.8681e-06	2.3079e-06	442.93	147.52	127.95	43.633	1.0897e-05	53.777	0.0012045	0.0011497	0.00030665	1526.7	1.3281e-05	1.2552e-05	1503.3	413.91	1.3148e-05	1.2234e-05	468.66	158.94	140.35	46.901	1.1979e-05	58.688	173.281	40.819	162.575	48.660	209.812	226.018	48.767	53.479	181.961	236.229	52.675	57.475	58.237	62.043	168.079	61.610	-8191	255	
1758.932	1	1	0	0	0.084773	0.14907	0.10631	0.20641	0.14507	0.14661	0.094735	0.34528	0.11125	0.29292	0.21776	0.25886	0.063093	0.29707	0.26352	0.15483	-0.7875	-0.47083	-1.4667	-0.75625	-0.79167	-1.4042	-0.85	-1.4813	-0.975	-0.51458	-1.5438	-0.75833	-0.67708	-1.4562	-0.525	-1.2062	190.435	134.317	384.784	341.737	275.167	58.314	251.910	328.648	290.542	183.662	41.936	391.432	153.538	284.175	75.090	323.634	0.00046195	0.00059978	0.00018423	1454.1	3.0337e-06	1.0794e-05	1448.2	392.37	1.0575e-05	6.7923e-06	442.23	146.9	127.94	43.768	4.1884e-06	53.73	0.0011514	0.0010877	0.00031086	1524.3	1.2496e-05	1.1907e-05	1505.1	413.37	1.2513e-05	1.1545e-05	468.95	158.42	139.33	46.643	1.2404e-05	58.385	180.326	121.857	97.329	48.620	131.171	53.144	48.674	53.617	164.039	209.318	52.793	57.650	57.893	62.121	281.364	61.304	-8191	255	
1759.051	1	1	0	0	0.10298	0.20278	0.20095	0.3887	0.22109	0.23474	0.28684	0.42269	0.17127	0.33315	0.30907	0.29369	0.16889	0.33594	0.16761	0.17815	-0.84583	-0.61042	-1.4458	-0.86875	-0.83333	-1.2396	-0.67292	-1.1604	-1.175	-0.4625	-1.4125	-1.0396	-0.74792	-1.4125	-0.45833	-1.15	161.021	249.048	148.476	55.720	121.504	38.955	349.641	312.966	377.466	286.679	325.325	81.809	347.422	324.441	58.268	388.011	0.00031421	0.00019914	0.00024575	1459.4	2.8443e-06	1.2185e-05	1447.9	392.87	2.4569e-06	6.9721e-06	443.98	147	127.95	43.799	5.0915e-06	53.987	0.0011021	0.0010443	0.00032044	1522.3	1.1987e-05	1.145e-05	1506.1	411.8	1.209e-05	1.1305e-05	470.41	157.7	138.66	46.581	1.2876e-05	58.202	199.898	207.826	172.169	48.674	342.556	215.053	48.938	53.543	212.430	285.615	52.953	57.916	58.375	62.400	126.705	61.607	-8191	255	
1759.147	1	1	0	0	0.15396	0.086164	0.22048	0.16882	0.21045	0.094457	0.46258	0.25191	0.35189	0.068134	0.26998	0.12215	0.12826	0.1609	0.18141	0.070203	-0.96667	-0.4125	-1.1917	-1.2042	-0.43333	-1.3438	-0.67708	-0.9625	-1.1917	-0.37292	-1.2625	-1.0854	-0.44167	-1.5667	-0.54375	-0.81875	69.060	366.229	392.842	39.266	70.833	260.650	348.964	370.315	154.904	345.137	37.626	258.887	60.524	318.232	223.990	185.430	0.00029839	0.00040313	0.00017873	1456.5	4.1035e-07	8.7871e-06	1446.6	394.27	6.0379e-06	8.1805e-06	442.97	146.61	128.13	43.768	1.539e-05	53.872	0.0010759	0.0010588	0.00033473	1517.6	1.1855e-05	1.176e-05	1510.5	411.52	1.1972e-05	1.1799e-05	472.34	157.48	138.76	46.85	1.3424e-05	58.153	151.157	255.567	134.236	48.637	40.019	176.690	48.587	53.367	232.117	166.284	52.659	57.500	57.968	62.050	181.018	61.721	-8191	255	
1759.243	1	1	0	0	0.21706	0.020242	0.1038	0.20165	0.20259	0.025699	0.089524	0.37688	0.20918	0.09851	0.26299	0.14336	0.26121	0.17073	0.14535	0.073409	-1.1375	-0.53125	-1.0896	-1.2333	-0.32917	-1.4312	-0.91458	-0.69583	-1.3125	-0.49583	-1.1458	-1.3604	-0.49375	-1.4	-0.84375	-0.67708	286.155	157.182	338.929	345.249	58.376	251.128	348.867	345.044	306.714	157.969	365.497	372.883	311.499	348.515	45.099	319.620	0.00037329	0.00067063	0.00016539	1456.1	5.9955e-06	7.2253e-06	1439.6	392.8	2.6076e-06	4.7674e-06	444.93	146.95	127.79	43.808	5.7739e-06	53.668	0.0010674	0.0011309	0.00034326	1516.7	1.1794e-05	1.268e-05	1511.7	411.18	1.1931e-05	1.2814e-05	473.28	157.62	138.48	47.22	1.3536e-05	57.96	175.247	85.691	382.711	48.521	197.548	266.439	48.623	53.496	295.063	255.657	52.711	57.629	58.088	62.336	145.410	61.522	-8191	255	
1759.340	1	1	0	0	0.24324	0.29589	0.19259	0.35386	0.20682	0.21197	0.10565	0.54268	0.3061	0.1063	0.25234	0.10826	0.14328	0.28029	0.21721	0.14025	-0.84792	-0.30625	-0.83958	-1.3958	-0.33333	-1.0833	-0.8875	-0.68958	-1.3958	-0.68958	-0.90208	-1.3833	-0.64375	-1.3708	-1.0333	-0.79375	60.947	223.270	278.634	387.398	188.444	301.711	372.794	341.756	383.087	221.089	360.545	104.284	277.931	374.565	289.886	84.580	0.00028866	0.001382	0.00020332	1455.9	4.0388e-06	1.2954e-05	1442.3	393.13	7.8104e-06	9.2891e-06	441.55	146.47	128.25	43.674	5.0719e-06	53.785	0.001067	0.0012129	0.00033794	1516	1.1769e-05	1.3392e-05	1509.6	411.14	1.1977e-05	1.3468e-05	471.11	157.45	138.92	47.283	1.3075e-05	57.888	177.247	113.705	308.242	48.767	84.323	190.438	48.829	53.666	238.036	127.411	52.585	57.625	58.378	62.309	166.190	61.939	-8191	255	
1759.436	1	1	0	0	0.13253	0.4013	0.16533	0.48715	0.060656	0.2074	0.40462	0.62755	0.12019	0.19844	0.16226	0.14665	0.16914	0.18235	0.24042	0.26484	-1.1604	-0.65625	-0.78125	-1.5021	-0.58333	-1.0979	-1.4188	-0.77708	-1.3271	-0.52083	-0.85208	-1.4521	-0.55	-1.2417	-1.0792	-0.61667	71.397	371.935	390.631	374.332	116.328	382.370	366.602	316.297	314.821	192.295	328.573	134.378	379.789	386.044	135.690	339.405	0.0004188	0.00055788	7.7077e-05	1452.6	6.4437e-06	6.5484e-06	1444.2	392.8	9.3056e-06	2.7474e-06	443.8	147.1	128.73	43.766	2.5826e-06	53.85	0.0010825	0.0012648	0.00033079	1513.5	1.2249e-05	1.3757e-05	1508.1	410.53	1.24e-05	1.3887e-05	470.46	157.11	139.94	47.402	1.2939e-05	57.705	184.427	68.702	73.092	48.813	152.428	142.028	48.929	53.465	233.010	151.298	52.778	57.629	58.350	62.072	201.155	61.750	-8191	255	
1759.532	1	1	0	0	0.15403	0.21668	0.027436	0.13911	0.10812	0.14372	0.27655	0.24524	0.3079	0.066991	0.34245	0.098565	0.45529	0.21639	0.09407	0.18773	-1.1042	-0.56458	-0.46875	-1.4979	-0.47292	-1.2208	-1.2104	-0.7375	-1.4146	-0.97292	-0.76667	-1.5646	-0.50833	-1	-1.1354	-0.62917	316.853	106.531	74.339	211.088	87.965	355.186	299.626	390.595	381.642	176.710	347.176	363.821	359.378	353.675	355.043	319.948	0.00038123	0.0011063	4.2308e-05	1454.1	5.2372e-06	2.3153e-06	1445.8	393.31	5.9027e-06	7.9403e-07	444.98	147.93	128.45	43.881	7.3619e-06	53.849	0.0011521	0.001271	0.00032417	1509.6	1.3084e-05	1.3723e-05	1507.1	410.32	1.3342e-05	1.3733e-05	470.34	157	141.1	47.373	1.2754e-05	57.787	181.439	43.773	191.763	48.635	224.579	39.221	48.931	53.655	217.889	376.819	52.988	57.740	58.239	62.275	56.847	62.003	-8191	255	
1759.652	1	1	0	0	0.17726	0.17326	0.18104	0.44991	0.25691	0.13507	0.33251	0.15957	0.2548	0.078735	0.3385	0.36603	0.41393	0.091933	0.11522	0.30675	-0.98125	-0.88542	-0.50208	-1.5312	-0.36458	-0.95625	-1.525	-0.61042	-1.1792	-1.1229	-0.6375	-1.4854	-0.76458	-1.0187	-1.2812	-0.53125	337.157	370.518	288.168	391.511	173.130	344.171	383.770	80.366	313.025	157.650	109.197	286.354	321.827	269.437	306.069	269.716	0.00051685	0.000617	3.7868e-05	1459.5	6.9572e-06	1.2725e-05	1444.2	394.18	1.9282e-06	9.0894e-07	441.17	147.02	128.39	43.853	8.383e-06	53.991	0.0012118	0.0012477	0.00031739	1515.8	1.3792e-05	1.3352e-05	1505.4	410.89	1.3771e-05	1.3369e-05	468.44	157.07	141.51	47.164	1.2333e-05	58.013	165.880	268.781	299.248	49.165	255.649	124.807	49.027	53.606	216.858	60.825	52.859	57.665	58.156	62.632	174.613	61.870	-8191	255	
1759.749	1	1	0	0	0.14719	0.044293	0.36358	0.20684	0.1142	0.19672	0.43498	0.10741	0.41297	0.021186	0.26999	0.055733	0.17665	0.057356	0.1321	0.085229	-0.67917	-0.92917	-0.37292	-1.4521	-0.78958	-0.63958	-1.5938	-0.70417	-0.99167	-1.1375	-0.36875	-1.6562	-0.89792	-0.69583	-1.4354	-0.56667	100.906	121.461	170.347	359.828	122.820	116.938	310.098	326.760	320.475	42.552	386.827	387.636	85.304	334.431	68.139	337.829	0.00033233	0.00062493	0.00032164	1458.5	5.1446e-06	1.2547e-05	1444.4	392.7	7.5984e-06	6.2692e-06	442.25	147.14	128.38	43.884	3.2807e-06	53.895	0.0012356	0.0012119	0.00030827	1516.4	1.3957e-05	1.2832e-05	1503.7	411.38	1.3712e-05	1.2956e-05	467.31	157.79	141.2	47.062	1.195e-05	58.267	166.421	210.064	369.013	48.891	70.728	84.015	48.934	53.635	134.864	213.311	52.868	58.232	58.278	62.219	114.446	61.799	-8191	255	
1759.845	1	1	0	0	0.12621	0.33693	0.12144	0.23278	0.16379	0.05966	0.22847	0.23199	0.1519	0.14129	0.20806	0.13672	0.043241	0.35211	0.19032	0.17378	-0.77083	-1.1417	-0.52292	-1.4333	-0.88125	-0.58542	-1.575	-0.65208	-1.1292	-1.2229	-0.84792	-1.4958	-0.90833	-0.625	-1.4792	-0.74167	133.750	160.825	215.496	74.638	299.223	113.010	383.564	375.677	122.905	50.746	339.897	83.296	87.532	386.500	234.191	307.169	0.00039836	0.00018601	0.00011375	1459.2	4.344e-06	9.41e-06	1442.9	393.87	3.1727e-06	2.0945e-06	444.32	147.36	127.72	43.783	6.7178e-06	54.01	0.001213	0.00118	0.00030077	1521.1	1.3667e-05	1.2602e-05	1500.4	413.32	1.3372e-05	1.2823e-05	467.46	158.62	140.88	46.866	1.2036e-05	58.705	175.458	36.158	171.134	48.936	203.831	78.368	49.038	53.749	306.651	267.775	53.242	57.771	58.144	62.380	199.651	61.635	-8191	255	
1759.939	1	1	0	0	0.27883	0.32133	0.18656	0.21439	0.10347	0.019869	0.059768	0.38961	0.10925	0.23315	0.15326	0.22298	0.16142	0.28215	0.031434	0.17323	-0.5375	-1.0729	-0.38125	-1.2583	-1.0479	-0.38125	-1.4062	-0.675	-0.88333	-1.4396	-0.64792	-1.6562	-0.99167	-0.52708	-1.3021	-0.68958	120.292	141.125	219.111	394.059	67.525	282.151	61.126	344.977	365.538	348.155	307.307	382.308	304.095	356.363	377.769	339.625	0.00036552	0.00061282	0.00016827	1457.7	5.5043e-06	5.6423e-06	1442.8	392.34	3.6252e-06	1.8958e-06	441.69	146.96	128.55	43.844	8.8666e-06	53.732	0.0011718	0.0011513	0.00030569	1524.3	1.3209e-05	1.2115e-05	1501.5	413.08	1.2824e-05	1.2257e-05	467.75	158.79	140.27	46.76	1.2343e-05	58.605	180.915	266.672	92.401	49.007	258.929	286.170	49.327	53.501	267.584	51.483	53.243	58.384	58.340	62.607	216.129	61.766	-8191	255	
1760.013	1	1	0	0	0.17674	0.16492	0.30706	0.14164	0.21591	0.073143	0.30004	0.30563	0.057758	0.15657	0.21583	0.3096	0.19234	0.29128	0.088145	0.21962	-0.37083	-1.2	-0.49583	-1.2646	-0.98958	-0.62292	-1.625	-0.9375	-0.4875	-1.3167	-0.5875	-0.97708	-1.2354	-0.58542	-1.4562	-0.88333	68.078	380.885	191.689	331.924	238.136	164.101	320.811	367.949	279.875	262.164	49.470	331.511	350.852	368.035	283.958	328.273	0.0003852	0.0003035	0.00049364	1452.9	5.8366e-06	4.8194e-06	1451.6	392.42	7.3677e-06	7.672e-06	442.84	146.81	128.02	43.756	7.5361e-06	53.884	0.00112	0.0011027	0.0003155	1520.7	1.262e-05	1.1671e-05	1505.8	413.11	1.2268e-05	1.1791e-05	469.74	158.3	139.55	46.541	1.2876e-05	58.334	181.878	219.741	146.628	49.295	193.789	79.233	49.304	53.780	244.430	153.901	53.140	57.878	57.987	62.527	167.747	62.008	-8191	255	
#DATA ENDS
