BOXY.EXE: ISS Imagent and Oximeter Data Acquisition Program Version 0.80
Ascii Record File

#ACQ INFORMATION
2  Detector Channels 
16  External MUX Channels 
1  Auxiliary Channels 
5000  Waveform (CCF) Frequency (Hz)
1  Waveforms Skipped 
30  Waveforms Averaged 
1  Cycles Averaged 
16  Acquisitions per Waveform 
10.0806  Updata Rate (Hz) 

#FILE INFORMATION
TRUE -- External MUX Channel results are PARSED.
FALSE -- AC DC and Phase are NOT grouped.
TRUE -- Companion Program Settings File CREATED.
FALSE -- AC data not excluded
FALSE -- DC data not excluded
FALSE -- Phase data not excluded
FALSE -- Auxillary Chn. data not excluded
Tab delimiters

#CALIBRATION STATE
TRUE -- Waveform Calibration Values APPLIED.


#AUX CALIBRATION VALUES
Val Type	aux-1	

Term	1.0000e+00	
Factor	0.0000e+00	


#WF CALIBRATION VALUES
A = Detector Channel
Val Type	A-AC1	A-AC2	A-AC3	A-AC4	A-AC5	A-AC6	A-AC7	A-AC8	A-AC9	A-AC10	A-AC11	A-AC12	A-AC13	A-AC14	A-AC15	A-AC16	A-DC1	A-DC2	A-DC3	A-DC4	A-DC5	A-DC6	A-DC7	A-DC8	A-DC9	A-DC10	A-DC11	A-DC12	A-DC13	A-DC14	A-DC15	A-DC16	A-Ph1	A-Ph2	A-Ph3	A-Ph4	A-Ph5	A-Ph6	A-Ph7	A-Ph8	A-Ph9	A-Ph10	A-Ph11	A-Ph12	A-Ph13	A-Ph14	A-Ph15	A-Ph16	

Term	0.00000e+00	0.00000e+00	0.00000e+00	0.00000e+00	0.00000e+00	0.00000e+00	0.00000e+00	0.00000e+00	0.00000e+00	0.00000e+00	0.00000e+00	0.00000e+00	0.00000e+00	0.00000e+00	0.00000e+00	0.00000e+00	0.00000e+00	0.00000e+00	0.00000e+00	0.00000e+00	0.00000e+00	0.00000e+00	0.00000e+00	0.00000e+00	0.00000e+00	0.00000e+00	0.00000e+00	0.00000e+00	0.00000e+00	0.00000e+00	0.00000e+00	0.00000e+00	0.00000e+00	0.00000e+00	0.00000e+00	0.00000e+00	0.00000e+00	0.00000e+00	0.00000e+00	0.00000e+00	0.00000e+00	0.00000e+00	0.00000e+00	0.00000e+00	0.00000e+00	0.00000e+00	0.00000e+00	0.00000e+00	
Factor	1.00000e+00	1.00000e+00	1.00000e+00	1.00000e+00	1.00000e+00	1.00000e+00	1.00000e+00	1.00000e+00	1.00000e+00	1.00000e+00	1.00000e+00	1.00000e+00	1.00000e+00	1.00000e+00	1.00000e+00	1.00000e+00	1.00000e+00	1.00000e+00	1.00000e+00	1.00000e+00	1.00000e+00	1.00000e+00	1.00000e+00	1.00000e+00	1.00000e+00	1.00000e+00	1.00000e+00	1.00000e+00	1.00000e+00	1.00000e+00	1.00000e+00	1.00000e+00	X	X	X	X	X	X	X	X	X	X	X	X	X	X	X	X	

B = Detector Channel
Val Type	B-AC1	B-AC2	B-AC3	B-AC4	B-AC5	B-AC6	B-AC7	B-AC8	B-AC9	B-AC10	B-AC11	B-AC12	B-AC13	B-AC14	B-AC15	B-AC16	B-DC1	B-DC2	B-DC3	B-DC4	B-DC5	B-DC6	B-DC7	B-DC8	B-DC9	B-DC10	B-DC11	B-DC12	B-DC13	B-DC14	B-DC15	B-DC16	B-Ph1	B-Ph2	B-Ph3	B-Ph4	B-Ph5	B-Ph6	B-Ph7	B-Ph8	B-Ph9	B-Ph10	B-Ph11	B-Ph12	B-Ph13	B-Ph14	B-Ph15	B-Ph16	

Term	0.00000e+00	0.00000e+00	0.00000e+00	0.00000e+00	0.00000e+00	0.00000e+00	0.00000e+00	0.00000e+00	0.00000e+00	0.00000e+00	0.00000e+00	0.00000e+00	0.00000e+00	0.00000e+00	0.00000e+00	0.00000e+00	0.00000e+00	0.00000e+00	0.00000e+00	0.00000e+00	0.00000e+00	0.00000e+00	0.00000e+00	0.00000e+00	0.00000e+00	0.00000e+00	0.00000e+00	0.00000e+00	0.00000e+00	0.00000e+00	0.00000e+00	0.00000e+00	-1.92451e+02	-1.27396e+02	-1.21933e+02	-1.81702e+02	-8.52248e+01	-7.17860e+01	-1.59827e+02	-1.62015e+02	-9.79175e+01	-6.25268e+01	-1.72064e+02	-1.71235e+02	-1.81225e+02	-1.77148e+02	-7.86684e+01	-1.49556e+02	
Factor	3.17922e-05	1.27293e-04	3.00469e-05	1.53336e-01	1.19824e-06	1.32970e-06	1.61206e-01	4.07326e-02	1.19885e-06	1.02860e-06	6.92827e-02	2.47474e-02	3.05553e-02	7.28990e-03	1.03716e-06	1.04097e-02	2.12434e-06	2.26520e-06	6.27488e-07	8.18888e-02	2.46237e-08	2.48108e-08	8.10272e-02	2.18854e-02	2.46444e-08	2.48727e-08	3.58425e-02	1.28119e-02	1.63559e-02	3.93248e-03	2.46604e-08	5.42419e-03	X	X	X	X	X	X	X	X	X	X	X	X	X	X	X	X	



#DISTANCE SETTINGS
A = Detector Channel
A-1	A-2	A-3	A-4	A-5	A-6	A-7	A-8	A-9	A-10	A-11	A-12	A-13	A-14	A-15	A-16	

2.5000e+00	3.0000e+00	2.5000e+00	3.0000e+00	2.0000e+00	3.0000e+00	1.5000e+00	3.0000e+00	3.0000e+00	3.0000e+00	3.0000e+00	3.0000e+00	3.0000e+00	3.0000e+00	1.5000e+00	3.0000e+00	

B = Detector Channel
B-1	B-2	B-3	B-4	B-5	B-6	B-7	B-8	B-9	B-10	B-11	B-12	B-13	B-14	B-15	B-16	

1.0000e+01	1.0000e+01	1.0000e+01	1.4400e+00	1.0000e+01	1.0000e+01	1.5100e+00	1.9400e+00	1.0000e+01	1.0000e+01	1.9900e+00	2.4900e+00	2.4100e+00	2.9000e+00	1.0000e+01	2.9800e+00	




#DATA BEGINS
time	group	step	mark	flag	A-AC1	A-AC2	A-AC3	A-AC4	A-AC5	A-AC6	A-AC7	A-AC8	A-AC9	A-AC10	A-AC11	A-AC12	A-AC13	A-AC14	A-AC15	A-AC16	A-DC1	A-DC2	A-DC3	A-DC4	A-DC5	A-DC6	A-DC7	A-DC8	A-DC9	A-DC10	A-DC11	A-DC12	A-DC13	A-DC14	A-DC15	A-DC16	A-Ph1	A-Ph2	A-Ph3	A-Ph4	A-Ph5	A-Ph6	A-Ph7	A-Ph8	A-Ph9	A-Ph10	A-Ph11	A-Ph12	A-Ph13	A-Ph14	A-Ph15	A-Ph16	B-AC1	B-AC2	B-AC3	B-AC4	B-AC5	B-AC6	B-AC7	B-AC8	B-AC9	B-AC10	B-AC11	B-AC12	B-AC13	B-AC14	B-AC15	B-AC16	B-DC1	B-DC2	B-DC3	B-DC4	B-DC5	B-DC6	B-DC7	B-DC8	B-DC9	B-DC10	B-DC11	B-DC12	B-DC13	B-DC14	B-DC15	B-DC16	B-Ph1	B-Ph2	B-Ph3	B-Ph4	B-Ph5	B-Ph6	B-Ph7	B-Ph8	B-Ph9	B-Ph10	B-Ph11	B-Ph12	B-Ph13	B-Ph14	B-Ph15	B-Ph16	aux-1	digaux	

8230.170	1	1	0	768	0.062413	0.19682	0.071552	0.31192	0.15883	0.26531	0.27063	0.27721	0.24495	0.095888	0.058457	0.18792	0.28268	0.02142	0.29975	0.069082	0.48333	-0.94167	-0.097917	-0.35833	-0.85208	-0.15417	-0.7125	-0.46667	0.20417	-0.57708	-0.43542	-0.33958	-0.83542	0.15625	-0.32917	-0.85	304.627	136.978	185.768	263.471	241.384	188.320	62.999	52.302	176.112	227.064	230.663	56.866	355.846	20.066	339.265	44.329	0.00064378	0.0045967	0.00026327	488.43	6.7648e-06	5.1366e-05	606.51	159.23	1.6117e-05	3.0306e-05	271.11	111.81	57.31	28.13	1.6873e-05	62.43	0.010768	0.012306	0.0036382	955.46	0.00012483	0.00013483	1116.9	286.8	0.00012234	0.00013849	494.79	186.89	143.5	52.128	0.00013881	95.654	79.155	161.006	81.175	25.299	198.333	206.657	25.468	30.556	110.014	223.880	29.994	35.399	35.966	40.098	35.371	38.843	-8191	255	
8230.266	1	1	0	0	0.1272	0.30461	0.20797	0.1506	0.20831	0.10142	0.20218	0.18026	0.19636	0.077009	0.080694	0.014857	0.11074	0.14515	0.25976	0.20211	0.55625	-0.65833	-0.47708	-0.15417	-0.97917	-0.15208	-0.34792	-0.86042	0.072917	-0.53125	-0.45	-0.091667	-0.77292	-0.34583	-0.41042	-0.98958	50.499	259.373	28.224	357.980	345.978	94.166	47.436	323.449	221.451	146.669	226.118	203.467	279.548	222.076	28.596	333.010	0.00066762	0.0026518	0.0008575	489.82	1.2022e-05	2.4982e-05	608.74	160.06	1.8451e-05	1.1764e-05	274.77	113.11	58.623	28.7	2.1253e-05	63.694	0.010439	0.012669	0.0034202	931.8	0.00012115	0.00013532	1082.3	280.44	0.00011791	0.00013715	481.24	183.41	141.72	52.157	0.00012534	94.5	93.243	164.000	322.277	25.603	169.863	233.340	25.576	31.166	207.787	223.973	30.110	35.514	36.728	40.392	333.677	39.121	-8191	255	
8230.362	1	1	0	0	0.056879	0.2813	0.32401	0.16058	0.065068	0.11839	0.21791	0.25821	0.18081	0.12521	0.20454	0.2612	0.22688	0.098205	0.24757	0.41194	0.44375	-0.71667	-0.23333	-0.12292	-0.82917	-0.19583	-0.42083	-0.86458	0.0041667	-0.60208	-0.73333	0.039583	-0.78958	-0.17083	-0.2375	-1.1313	62.587	39.358	343.985	316.082	345.211	75.557	224.286	67.719	34.186	113.133	333.183	352.163	148.034	247.341	58.193	328.164	0.0014366	0.001415	0.0002153	494.68	3.1734e-05	6.4078e-06	616.48	162.88	2.8966e-05	2.6513e-05	278.01	115.32	59.881	29.113	1.3566e-05	64.451	0.010073	0.012097	0.0031071	903.16	0.00011821	0.00012948	1048	274.69	0.0001163	0.0001295	469.25	180.15	141.91	51.349	0.00011534	93.549	77.364	83.138	293.714	25.324	180.441	26.640	25.895	31.066	188.257	89.761	30.307	35.569	36.481	40.190	56.973	39.282	-8191	255	
8230.458	1	1	0	0	0.052977	0.15249	0.14348	0.038715	0.23984	0.079935	0.1717	0.31704	0.22088	0.23692	0.19323	0.22396	0.15592	0.10085	0.095317	0.0363	0.57292	-0.4625	-0.68542	0.19792	-0.83958	-0.2375	-0.36875	-0.91667	-0.095833	-0.37292	-0.87708	-0.0083333	-0.75	-0.54583	-0.16042	-1.1521	51.226	55.166	351.213	94.191	228.813	310.314	289.321	257.482	168.999	190.541	84.914	61.485	285.946	22.046	130.767	292.991	0.0012832	0.0021856	0.00031307	494.75	2.7102e-05	2.0166e-05	619.15	162.85	2.1892e-05	1.245e-05	276.9	113.77	59.467	28.68	1.0025e-05	63.877	0.010161	0.011403	0.0029031	881.55	0.00011858	0.00012031	1015.1	267.7	0.00011489	0.00011711	451.91	174.25	138.44	48.828	0.00010318	90.942	81.344	349.741	337.363	25.553	221.600	354.918	25.533	30.946	198.836	14.925	30.220	35.818	36.566	39.989	350.650	39.274	-8191	255	
8230.554	1	1	0	0	0.34728	0.19887	0.2053	0.37566	0.16324	0.19213	0.17248	0.19613	0.22213	0.21051	0.10886	0.10541	0.20358	0.31724	0.099631	0.27741	0.4375	-0.175	-0.60833	0.14167	-0.625	-0.23542	0.17917	-0.89167	0.14167	-0.34167	-0.70625	0.070833	-0.73542	-0.5125	0.029167	-1.0625	304.694	53.594	369.046	348.296	358.815	121.853	240.213	283.082	250.710	174.695	350.232	350.516	216.379	102.601	246.767	52.916	0.00090297	0.0014033	0.00018892	493.99	3.1504e-05	2.5019e-05	615.61	162.45	1.4549e-05	1.4385e-05	278.25	114.1	59.201	28.712	6.8162e-06	64.127	0.0097768	0.010106	0.0026171	852.54	0.00011245	0.00010682	977.35	261.65	0.00011004	0.00010461	437.98	172.65	134.74	46.964	9.4033e-05	90.7	89.305	344.441	240.408	25.636	195.379	52.349	25.514	31.145	190.367	58.625	30.444	35.669	35.464	39.874	372.071	39.192	-8191	255	
8230.651	1	1	0	0	0.24932	0.29521	0.25376	0.084467	0.14865	0.1795	0.22421	0.34522	0.11723	0.10307	0.28752	0.40587	0.29294	0.084162	0.17441	0.11467	0.23333	-0.25625	-0.825	0.014583	-0.45833	-0.48125	0.06875	-0.65208	-0.052083	0.025	-0.8375	-0.066667	-0.55208	-0.81667	0.089583	-1.0021	347.744	334.843	164.370	30.760	115.835	140.378	162.240	324.638	213.059	99.934	342.599	45.725	310.998	146.848	280.130	286.976	0.00093129	0.0012099	0.00031577	497.46	7.0712e-06	1.3384e-05	619.31	163.56	7.7093e-06	2.2542e-05	281.3	115.84	58.733	28.942	1.2387e-05	64.959	0.0092485	0.0090797	0.002402	854.56	0.00010628	9.9065e-05	962.79	263.55	0.00010542	9.7977e-05	433.61	175.55	131.62	46.531	9.0832e-05	92.135	76.206	53.957	221.654	25.845	61.594	94.224	25.746	31.297	151.798	63.640	30.400	35.518	36.101	40.171	214.622	39.581	-8191	255	
8230.770	1	1	0	0	0.069082	0.037088	0.36774	0.053736	0.26363	0.24905	0.16564	0.3254	0.29572	0.016833	0.2142	0.12276	0.07342	0.13238	0.22021	0.26896	0.12292	0.0083333	-0.89792	0.23333	-0.36042	-0.73958	0.03125	-0.87708	-0.46875	0.033333	-0.81667	-0.039583	-0.33333	-0.91458	0.15417	-0.8	367.711	13.116	107.786	106.613	65.860	286.451	191.143	13.317	178.261	257.781	324.422	127.369	81.276	261.743	120.796	305.174	0.00049408	0.00077633	0.00016828	496.91	1.3478e-05	1.1264e-05	624.4	164.59	1.2911e-05	1.6265e-05	282.72	116.01	59.118	28.969	8.0354e-06	65.301	0.0088909	0.0086762	0.0023216	863.86	0.00010068	9.5105e-05	960.81	265.88	0.00010072	9.4227e-05	435.3	178.11	128.66	45.977	9.174e-05	92.641	63.718	14.492	61.314	25.469	23.374	119.196	25.875	30.877	143.272	108.817	30.185	35.133	35.291	39.874	164.553	39.158	-8191	255	
8230.866	1	1	0	0	0.22118	0.18464	0.22151	0.20308	0.01786	0.19124	0.25468	0.17268	0.16031	0.095851	0.27743	0.1714	0.3548	0.14678	0.080447	0.065003	-0.0020833	0.23958	-0.81875	0.12083	-0.26458	-0.66042	0.052083	-0.68958	-0.30417	0.060417	-0.87708	-0.32917	-0.35833	-0.88542	0.18333	-0.72292	93.436	203.497	186.330	82.513	193.135	156.713	353.177	125.537	15.600	353.275	329.772	240.697	232.103	75.386	272.194	122.612	0.00070594	0.0018014	0.00037885	495.25	6.0241e-06	1.6377e-05	618.75	161.75	1.2077e-05	4.2108e-06	279.35	114.59	58.146	28.369	1.5457e-05	63.922	0.0085277	0.0084183	0.0023588	869.42	9.6776e-05	9.2005e-05	963.07	264.1	9.5519e-05	9.0679e-05	432.77	175.69	123.43	44.629	9.3641e-05	90.504	84.875	368.161	173.782	25.536	325.614	32.949	26.045	30.839	273.011	154.035	30.424	35.557	35.586	39.753	263.752	39.084	-8191	255	
8230.962	1	1	0	0	0.19039	0.24182	0.2305	0.31461	0.27731	0.28037	0.18862	0.042879	0.33424	0.02757	0.090933	0.43067	0.24096	0.066934	0.059545	0.27242	0.027083	0.066667	-0.53958	-0.29583	-0.14375	-0.72083	0.0020833	-0.49583	-0.51458	0.23125	-0.575	-0.35417	0.13958	-0.75417	-0.12292	-0.43125	58.889	289.786	198.423	351.776	234.138	132.485	297.008	228.746	208.184	46.216	79.377	44.255	342.430	92.720	90.702	350.739	0.00056728	0.0014461	0.00043123	488.35	1.8176e-05	2.7915e-06	613.93	161.06	4.1028e-06	1.4081e-05	278.93	113.99	58.211	28.25	3.2114e-05	63.831	0.0080338	0.0079927	0.0023754	848.11	9.0081e-05	8.5836e-05	962.33	257.01	8.8845e-05	8.5455e-05	432.53	171.74	119.27	43.795	9.5236e-05	89.207	114.457	355.020	185.899	25.065	355.947	99.571	25.898	30.817	15.362	166.854	30.604	35.355	35.492	39.959	184.638	38.924	-8191	255	
8231.058	1	1	0	0	0.1709	0.28507	0.42139	0.37708	0.11809	0.12874	0.14225	0.26648	0.22429	0.08342	0.1959	0.1698	0.049994	0.064165	0.12518	0.18465	-0.14583	0.10833	-0.73958	-0.20625	0.13958	-0.78333	-0.079167	-0.25625	-0.72708	-0.041667	-0.95417	-0.40417	0.014583	-0.85833	-0.041667	-0.47708	259.826	186.920	207.167	332.648	290.214	332.704	160.333	32.182	341.843	182.503	293.171	64.979	295.967	260.693	115.266	45.517	0.00080609	0.0013697	0.00034662	490.38	1.6504e-05	1.0408e-05	615.44	160.8	7.4501e-06	1.7354e-05	280.72	114.6	58.068	28.663	1.8317e-06	64.621	0.0076344	0.0078059	0.00244	834.03	8.7567e-05	8.6702e-05	979.31	254.79	8.8178e-05	8.8881e-05	441.82	171.5	119.44	44.757	9.9347e-05	89.731	115.291	81.281	86.539	24.963	42.723	238.168	25.649	30.635	344.487	196.429	30.221	35.338	35.241	40.094	219.325	39.102	-8191	255	
8231.154	1	1	0	0	0.18396	0.15459	0.18557	0.27175	0.25351	0.30506	0.087099	0.24829	0.22485	0.21537	0.073014	0.070456	0.20568	0.29478	0.2845	0.30845	-0.2125	0.083333	-0.56042	-0.475	0.25	-0.74167	-0.175	-0.09375	-0.93542	-0.0041667	-0.50417	-0.65208	0.22917	-0.81458	-0.29792	-0.18333	360.909	194.663	221.575	321.420	94.622	216.059	326.586	65.085	362.503	122.258	157.548	186.899	206.566	327.203	127.063	339.210	0.0010182	0.0017832	0.00021979	487.73	9.0423e-06	3.23e-05	619.73	161.98	1.1838e-05	2.081e-05	283.03	116.5	58.715	28.85	1.0434e-05	64.738	0.0076243	0.008264	0.0025404	830.09	8.7565e-05	9.2815e-05	993.76	254.73	8.7933e-05	9.3782e-05	445.81	171.93	118.92	45.801	9.7528e-05	89.142	89.678	148.581	55.360	25.176	186.367	211.669	25.683	30.887	46.766	204.869	30.699	35.650	36.341	39.598	59.287	39.052	-8191	255	
8231.250	1	1	0	0	0.19826	0.1077	0.057147	0.25555	0.070227	0.30726	0.22376	0.12213	0.023734	0.14205	0.17867	0.34196	0.21236	0.36048	0.1191	0.22088	-0.49583	0	-0.27292	-0.87292	0.14583	-0.77708	-0.35625	-0.077083	-0.73542	-0.054167	-0.61458	-0.77292	0.12083	-0.71875	-0.40417	0.029167	156.641	49.536	143.702	271.368	22.386	91.584	265.678	41.030	128.323	292.307	345.969	263.177	355.734	40.508	89.881	56.725	0.00056074	0.003055	0.00026376	491.05	1.2394e-05	1.1551e-05	616.28	161.39	1.1973e-05	8.4739e-06	280.48	114.25	57.418	28.306	1.1166e-05	63.549	0.0074365	0.0085753	0.0024452	817.86	8.4424e-05	9.5224e-05	973.48	250.19	8.5534e-05	9.6432e-05	435.37	168.04	117.47	45.713	9.4601e-05	87.369	97.640	146.987	349.726	25.479	237.956	169.832	25.463	30.565	288.062	206.104	30.167	35.161	35.439	40.130	357.763	39.080	-8191	255	
8231.346	1	1	0	0	0.054904	0.25959	0.13417	0.26679	0.35174	0.13688	0.28359	0.22229	0.21781	0.1372	0.26699	0.076934	0.096488	0.11139	0.20311	0.24397	-0.5125	0.010417	-0.28958	-0.78958	0.35	-0.68333	-0.44375	0.10625	-0.675	-0.19167	-0.3875	-0.9375	0.1	-0.50208	-0.38333	-0.020833	188.831	28.972	203.842	366.912	351.994	14.167	231.033	13.237	195.478	200.004	266.341	282.661	319.489	225.886	333.293	312.296	0.0012138	0.00052733	0.00016803	487.24	2.8739e-05	1.6834e-05	616.83	160.2	2.5144e-05	1.5381e-05	277.74	113.51	58.222	28.231	1.2622e-05	63.654	0.0075041	0.0089318	0.0023678	809.3	8.7014e-05	9.8786e-05	960.42	247.58	8.8624e-05	0.00010002	430.2	167.14	120.31	46.206	9.2766e-05	87.543	67.047	188.552	372.060	25.240	177.312	178.791	25.246	30.680	199.982	165.011	30.189	35.202	36.079	39.768	18.301	38.967	-8191	255	
8231.465	1	1	0	0	0.22892	0.014017	0.14377	0.15316	0.14452	0.18268	0.076261	0.22208	0.3307	0.17978	0.2607	0.29628	0.11471	0.018886	0.14711	0.098319	-0.32708	-0.10417	-0.13542	-0.91667	0.06875	-0.64375	-0.55417	0.091667	-0.675	-0.275	-0.25208	-1.0125	0.0375	-0.64375	-0.58958	-0.13958	63.323	34.119	132.268	88.306	275.670	201.978	238.115	302.457	262.506	155.022	27.182	329.781	68.196	346.348	289.601	294.174	0.0015626	0.00094463	0.00049534	488.16	2.2116e-05	7.4287e-06	614.53	160.32	2.3152e-05	8.4838e-06	279.71	114.99	58.929	28.781	5.3922e-06	64.974	0.0080023	0.0092724	0.0023498	812.3	9.4228e-05	0.00010053	959.66	248.69	9.502e-05	0.000101	431.14	168.35	125.5	46.527	9.0406e-05	88.882	82.076	311.593	282.950	25.494	198.806	85.925	25.333	30.772	184.858	65.799	30.487	35.436	36.164	39.627	29.643	39.029	-8191	255	
8231.561	1	1	0	0	0.077129	0.28606	0.024474	0.3099	0.23856	0.23802	0.21756	0.087088	0.054547	0.17653	0.054533	0.17707	0.21154	0.27312	0.18077	0.28463	-0.49375	-0.29792	-0.0125	-1.175	-0.072917	-0.48333	-0.70833	0.060417	-0.7625	-0.31042	0.022917	-0.65417	-0.16042	-0.39167	-0.61667	-0.014583	89.983	266.732	218.865	271.880	362.074	126.609	364.220	306.211	192.885	176.834	370.270	42.793	99.746	275.904	41.104	328.801	0.001551	0.0016833	0.00011709	492.67	1.3575e-05	1.5385e-05	622.41	162.71	1.4336e-05	9.8936e-06	282.78	116.97	59.369	29.386	1.3564e-05	65.852	0.0082768	0.0088711	0.0022656	805.9	9.6098e-05	9.48e-05	953.49	249.46	9.6647e-05	9.5258e-05	429.2	170.37	127.31	46.327	8.7614e-05	89.723	89.258	26.925	123.354	25.444	172.545	47.045	25.284	31.032	255.116	40.366	30.303	35.769	35.739	40.095	86.753	39.117	-8191	255	
8231.658	1	1	0	0	0.20347	0.12743	0.091729	0.065294	0.14464	0.14471	0.14952	0.23603	0.054468	0.088854	0.078363	0.29786	0.1064	0.11269	0.099582	0.13115	-0.16042	-0.375	0.0375	-0.78125	-0.01875	-0.0375	-0.6625	-0.03125	-0.7125	-0.39375	0.13958	-1.0312	-0.12917	-0.16458	-0.73542	0.029167	320.897	17.312	152.477	128.104	102.873	115.667	103.064	310.744	358.485	113.470	262.400	315.109	238.265	305.699	76.387	291.363	0.00071346	0.00051624	0.00033083	489.1	6.7668e-06	7.8076e-06	615.6	160.92	2.6749e-06	1.3058e-05	280.82	116.03	58.401	29.227	7.7204e-06	65.048	0.0084152	0.0084782	0.0021928	809.14	9.768e-05	9.0904e-05	936.27	249.29	9.5678e-05	9.0064e-05	419.61	169.77	125.38	45.243	8.4242e-05	89.678	72.717	272.499	281.197	25.608	262.565	109.343	25.888	30.901	127.196	21.993	30.528	35.782	35.353	40.144	40.438	39.125	-8191	255	
8231.731	1	1	0	0	0.075641	0.1964	0.099489	0.16438	0.16807	0.12186	0.14667	0.18018	0.04452	0.26834	0.063397	0.29171	0.055409	0.34904	0.15936	0.15607	-0.18125	-0.41875	0.18542	-0.79167	-0.0125	-0.19375	-0.83542	-0.04375	-0.50208	-0.76042	0.058333	-0.85625	-0.32083	-0.05625	-0.77292	-0.11042	179.728	141.592	93.822	358.508	284.136	312.712	32.691	56.862	346.154	288.288	327.876	29.763	280.437	22.462	82.199	314.553	0.00044868	0.00092372	0.00034707	483.49	1.94e-05	1.2016e-05	614.05	158.47	2.1111e-05	8.1951e-06	277.38	115.65	58.84	29.111	1.1331e-05	64.921	0.008272	0.0081665	0.0021463	818.15	9.631e-05	8.9323e-05	931.59	253.38	9.5026e-05	8.9577e-05	419.29	173.1	124.84	45.25	8.5175e-05	91.083	87.801	87.488	161.272	25.661	23.437	26.817	25.575	31.057	39.337	328.050	30.037	35.514	35.590	39.905	244.147	39.307	-8191	255	
8231.850	1	1	0	0	0.11306	0.12104	0.11067	0.15945	0.11375	0.083616	0.075108	0.3279	0.049236	0.075265	0.29921	0.26949	0.1148	0.043865	0.29333	0.20972	0.24375	-0.53333	0.26875	-0.79167	-0.23125	-0.020833	-0.74375	-0.039583	-0.17708	-0.6625	0.0625	-0.64167	-0.36875	-0.0125	-0.82083	-0.35833	246.965	183.228	162.217	364.000	15.643	14.075	88.828	291.362	193.766	37.769	93.817	63.488	228.753	145.797	281.588	262.584	0.0004798	0.00082273	0.00066896	483.33	3.9408e-06	5.0811e-06	614.2	159.3	7.9831e-06	1.4576e-05	280.91	117.02	59.441	29.4	5.7016e-06	66.114	0.0081063	0.0080685	0.0021888	834.22	9.3584e-05	8.7662e-05	939.06	256.29	9.2433e-05	8.7969e-05	424.65	175.5	123.17	45.158	8.8381e-05	92.109	87.379	25.682	108.252	25.289	121.382	49.932	25.722	30.882	260.379	107.178	30.351	35.395	34.875	39.742	158.137	38.917	-8191	255	
8231.946	1	1	0	0	0.13333	0.050782	0.24855	0.22126	0.13831	0.041278	0.19409	0.14103	0.21335	0.069224	0.28427	0.27669	0.19612	0.063013	0.23186	0.1967	0.10417	-0.65833	0.14583	-0.54167	-0.47708	-0.08125	-1.1063	-0.25	-0.27292	-0.825	-0.15208	-0.67708	-0.60625	-0.20417	-0.83333	-0.42292	331.802	324.947	326.455	138.029	196.967	243.566	366.233	310.598	358.235	216.449	312.346	339.150	188.235	361.566	151.533	352.163	0.00050785	0.0022744	0.00062623	490.27	3.9043e-06	2.0158e-05	622.84	162.15	1.028e-05	5.2317e-06	282.63	117.25	59.041	29.421	1.5928e-05	65.692	0.0077993	0.0079014	0.002244	840.7	9.0028e-05	8.4956e-05	959.85	257.93	8.8566e-05	8.5627e-05	432.51	175.48	121.05	44.757	9.2387e-05	91.441	59.541	326.798	155.356	25.417	105.287	332.858	25.871	30.470	152.229	345.652	30.372	35.301	35.320	39.834	196.383	38.817	-8191	255	
8232.042	1	1	0	0	0.14675	0.051237	0.20567	0.059792	0.079428	0.042051	0.1609	0.27386	0.060203	0.26717	0.11188	0.42526	0.096397	0.13612	0.29067	0.13397	0.29375	-0.99583	0.06875	-0.43958	-0.67083	0.17292	-0.79583	-0.2625	-0.11042	-0.82917	-0.11042	-0.43542	-0.57083	0.047917	-0.46667	-0.54583	316.599	185.224	105.848	63.820	340.515	224.594	294.879	183.721	355.512	344.568	41.326	296.460	169.465	370.051	223.055	82.539	0.00077919	0.0001564	0.0005013	486.02	7.3217e-06	1.0998e-05	614.81	159.67	1.9201e-05	1.6669e-05	279.44	115.32	57.814	28.707	1.5276e-05	64.677	0.0075599	0.0077771	0.0023412	828.19	8.7066e-05	8.2647e-05	964.14	252.52	8.4833e-05	8.5126e-05	433.31	170.95	119.16	44.192	9.5672e-05	89.542	79.427	295.753	145.519	24.745	294.931	256.114	25.560	30.232	37.139	214.143	29.983	35.176	35.602	39.868	156.295	38.759	-8191	255	
8232.163	1	1	0	0	0.2231	0.22976	0.28641	0.076421	0.21554	0.11471	0.18874	0.1543	0.1103	0.059149	0.23816	0.14067	0.13976	0.18212	0.24147	0.28661	0.28958	-0.72083	0.08125	-0.30833	-0.73542	0.11667	-0.73125	-0.52083	0.20417	-0.69375	-0.24375	-0.1875	-0.74792	-0.020833	-0.61875	-0.63333	279.856	183.674	135.379	48.763	166.584	143.233	276.346	348.312	249.549	301.522	193.027	259.588	17.285	352.783	102.506	288.879	0.00088673	0.0014436	0.00038617	482.77	2.1293e-05	2.1029e-05	612.4	158.85	4.3198e-06	8.685e-06	279.78	115.48	57.868	28.928	1.2062e-05	64.89	0.0073797	0.0079958	0.0024503	816.21	8.7067e-05	8.6882e-05	975.3	250.76	8.5001e-05	8.9323e-05	437.38	170.06	118.09	45.017	9.7075e-05	89.384	81.351	97.377	206.467	24.890	32.878	214.896	25.550	30.598	24.465	252.960	30.176	35.157	35.449	39.858	303.068	38.866	-8191	255	
8232.259	1	1	0	0	0.25162	0.13198	0.030774	0.39066	0.27559	0.19485	0.096933	0.11126	0.28257	0.091985	0.081888	0.29511	0.17574	0.24507	0.080272	0.23559	0.72083	-0.63333	-0.014583	-0.05	-0.9375	-0.029167	-0.68125	-0.73333	0.070833	-0.76458	-0.24792	-0.19583	-0.58542	0.0083333	-0.56875	-0.75833	336.097	160.569	48.522	306.426	37.071	352.747	89.676	318.424	197.364	255.730	86.027	290.899	280.579	88.703	139.237	123.375	0.00078251	0.0020262	0.00014856	484.69	9.0524e-06	2.8195e-05	616.46	160.18	1.4786e-05	2.0581e-05	280.08	116.19	59.093	29.384	6.7208e-06	65.793	0.0072982	0.0083751	0.0024635	812.35	8.6414e-05	9.2581e-05	979	251.24	8.476e-05	9.6193e-05	439.73	170.53	119.46	46.459	9.5627e-05	90.103	67.411	121.060	199.598	25.231	341.043	211.840	25.465	30.806	282.304	221.422	30.029	35.043	35.888	39.910	29.368	38.890	-8191	255	
8232.331	1	1	0	0	0.32057	0.1963	0.18752	0.053556	0.2817	0.1521	0.36655	0.14181	0.078528	0.13367	0.26702	0.12836	0.17633	0.28341	0.028806	0.15848	0.21458	-0.72917	-0.23542	-0.064583	-0.83542	0.027083	-0.42292	-0.63958	0.1625	-0.58542	-0.35	0.070833	-0.83958	-0.04375	-0.16042	-0.8875	245.544	127.995	292.464	136.184	51.591	220.326	321.087	223.979	230.131	79.515	247.628	129.148	185.006	41.520	173.561	85.824	0.00080309	0.0018399	0.00047607	491.5	1.4436e-05	2.9109e-05	620.86	162	1.668e-05	1.4686e-05	283.63	116.74	59.979	29.37	8.47e-06	65.481	0.007302	0.0088496	0.0024126	810.31	8.6506e-05	9.6541e-05	972.79	251.49	8.5162e-05	9.8552e-05	437.3	170.02	120.77	46.966	9.1567e-05	89.643	77.446	139.562	363.884	25.374	171.389	219.935	25.568	30.564	178.615	199.004	30.220	35.317	36.186	39.625	350.796	38.937	-8191	255	
8232.451	1	1	0	0	0.12272	0.26334	0.31844	0.44971	0.15222	0.10185	0.24337	0.017384	0.067195	0.24943	0.36537	0.21027	0.27106	0.23434	0.24314	0.2195	0.48333	-0.55	-0.1875	0.1625	-0.67708	0.12292	-0.052083	-0.68542	0.22708	-0.34583	-0.4875	0.16667	-0.77292	-0.060417	-0.085417	-0.87708	345.050	268.559	164.328	286.590	235.390	187.003	298.602	239.028	78.551	130.044	290.110	324.575	331.180	365.309	231.222	313.898	0.0012347	0.00055914	0.0003037	488.73	2.8168e-05	9.1107e-06	616.62	161.41	1.5829e-05	1.4251e-05	278.77	115.59	58.532	29.232	9.5509e-06	65.075	0.007467	0.0089168	0.0023052	798.17	8.7749e-05	9.5546e-05	945.99	246.69	8.6233e-05	9.554e-05	425.05	166.25	120.93	46.244	8.6287e-05	88.232	87.700	306.572	100.413	25.195	202.669	123.820	25.166	30.867	247.029	352.627	29.841	34.894	35.888	39.637	25.225	38.834	-8191	255	
8232.547	1	1	0	0	0.26051	0.168	0.16595	0.016269	0.1744	0.17292	0.15253	0.23603	0.22065	0.081642	0.19699	0.24036	0.08282	0.17212	0.11321	0.2159	0.43542	-0.375	-0.51875	0.10625	-0.69583	-0.15833	-0.13542	-0.91875	-0.052083	-0.58333	-0.77917	0.072917	-0.7	-0.30625	0.10833	-0.85417	216.626	49.089	274.439	288.464	120.791	172.593	343.433	308.815	53.212	229.335	53.542	295.015	204.396	324.125	286.001	62.872	0.0011079	0.0019619	9.6574e-05	488.65	2.0659e-05	5.7235e-06	616.92	159.31	1.7124e-05	2.1086e-05	278.91	115.66	59.357	29.399	5.6248e-06	65.507	0.0076828	0.0086028	0.0022134	787.31	9.1502e-05	9.3868e-05	936.53	244.68	9.171e-05	9.3857e-05	424.55	167.32	125.3	46.533	8.6852e-05	89.211	84.803	305.483	192.674	25.254	203.676	86.609	25.273	30.798	158.315	61.132	29.859	35.135	36.153	39.612	19.285	38.547	-8191	255	
8232.642	1	1	0	0	0.15265	0.098761	0.41844	0.13357	0.017222	0.20591	0.14442	0.25531	0.18195	0.23895	0.10663	0.21601	0.19722	0.10223	0.081405	0.14752	0.47083	-0.16458	-0.66875	0.19375	-0.63125	-0.25625	-0.00625	-0.70208	-0.10833	-0.17708	-0.79583	0.0625	-0.66875	-0.55625	0.1375	-0.96875	52.393	350.658	127.449	310.755	164.225	130.627	253.676	306.910	241.940	324.556	368.245	349.505	185.512	332.337	154.123	19.390	0.0014679	0.0024759	0.00032621	486.95	1.378e-05	1.8287e-05	614.87	160.23	1.526e-05	1.0657e-05	281.02	117.53	59.853	29.787	1.4191e-05	66.551	0.0082709	0.0086434	0.002251	802.93	9.7695e-05	9.4285e-05	945.83	249.71	9.892e-05	9.4735e-05	428.68	171.89	129.63	47.041	8.7964e-05	91.514	88.157	26.245	352.010	25.503	189.508	346.751	25.513	30.792	115.971	17.056	30.272	35.186	35.528	39.466	15.089	38.643	-8191	255	
8232.762	1	1	0	0	0.0035033	0.094163	0.11568	0.12133	0.11762	0.082059	0.16309	0.35663	0.0084117	0.29601	0.31644	0.19748	0.30554	0.35705	0.039251	0.28455	0.34583	-0.072917	-0.83333	0.01875	-0.65208	-0.72708	0.0125	-1.0438	-0.225	-0.072917	-0.90625	0.083333	-0.44167	-0.42292	0.23542	-0.80833	100.533	117.563	93.055	246.942	31.026	157.685	206.140	316.968	56.303	113.037	296.519	219.459	299.366	351.712	87.726	248.718	0.0010713	0.00074034	0.00013289	490.35	1.1539e-05	7.807e-06	622.16	162	1.3101e-05	9.7679e-06	281.65	117.74	59.659	29.527	7.2432e-06	65.565	0.008658	0.0085359	0.0022681	827.13	0.00010064	9.406e-05	951.41	256.78	0.00010005	9.3315e-05	430.4	175.61	129.85	46.871	8.8831e-05	92.441	95.806	362.801	257.802	25.358	363.273	97.221	25.152	31.022	370.916	148.380	30.101	35.218	35.540	39.529	21.216	38.911	-8191	255	
8232.859	1	1	0	0	0.32651	0.20953	0.23111	0.22328	0.0029771	0.098918	0.076893	0.057455	0.12901	0.10552	0.033708	0.2797	0.23123	0.26161	0.18527	0.21563	0.17708	-0.0020833	-0.62708	-0.010417	-0.59375	-0.54167	0.039583	-0.85625	-0.27292	0.054167	-1.0208	-0.22917	-0.20833	-0.60833	-0.047917	-0.73333	235.021	278.964	100.506	316.648	150.464	192.303	324.075	64.661	347.831	287.017	100.732	16.845	87.503	364.337	295.340	312.196	0.0004025	0.0017221	0.00052249	492.88	5.8504e-06	1.6189e-05	614.35	159.63	1.4404e-05	1.1691e-05	276.27	114.27	58.904	29.114	8.7449e-06	64.085	0.0088151	0.0086192	0.0023164	854.7	0.0001007	9.5498e-05	954.12	263.02	0.00010235	9.6451e-05	431.17	177.48	130.37	46.722	9.4899e-05	92.582	109.004	329.753	120.216	25.087	314.590	13.542	25.603	30.667	63.109	88.794	29.998	35.109	35.804	39.451	127.169	39.076	-8191	255	
8232.955	1	1	0	0	0.21618	0.055755	0.31653	0.24395	0.15549	0.07259	0.067252	0.19758	0.13996	0.1163	0.19596	0.43185	0.080133	0.22061	0.19298	0.024572	0.20833	0.052083	-0.59583	-0.0375	-0.033333	-0.65	0.11042	-0.70625	-0.61875	0.075	-0.96875	-0.19375	-0.22083	-0.71667	0.17083	-0.35417	173.401	222.014	24.945	281.061	322.671	28.325	33.229	30.001	82.528	64.349	314.187	22.817	48.272	38.527	58.298	283.934	0.00060916	0.0019674	0.00062025	488.68	3.2362e-05	2.0956e-05	609.78	159.23	1.1691e-05	3.7358e-06	275.48	113.51	58.683	29.114	3.9755e-05	64.058	0.0088686	0.008781	0.0024607	875.39	0.00010151	9.6929e-05	968.74	266.92	0.00010209	9.7163e-05	439.01	179.45	130.39	47.074	0.0001045	94.04	97.269	26.708	157.627	24.974	340.107	62.383	25.684	30.762	337.557	332.729	30.442	35.086	35.500	39.579	199.644	38.786	-8191	255	
8233.026	1	1	0	0	0.23825	0.039109	0.24706	0.26246	0.10053	0.24304	0.26333	0.17789	0.22661	0.19823	0.081272	0.21481	0.3505	0.23706	0.1754	0.19087	-0.15208	0.097917	-0.74375	-0.064583	-0.010417	-0.82083	-0.016667	-0.54792	-0.40833	-0.070833	-1.0125	-0.36042	-0.16042	-1.0688	0.20833	-0.56667	239.507	352.646	256.787	264.491	55.152	27.208	170.493	38.498	333.313	295.783	57.554	274.443	39.510	263.933	236.739	305.943	0.00032975	0.0016308	0.0010684	487.7	3.9573e-06	9.1312e-06	605.94	158.94	2.7075e-05	5.6839e-06	275.18	113.6	58.457	29.102	2.5157e-05	64.343	0.0091406	0.0091467	0.0027486	899.01	0.00010563	0.00010189	1007.5	272.09	0.00010676	0.00010254	458.79	183.05	134.96	48.429	0.00011963	95.868	111.585	349.607	157.225	24.666	265.809	322.532	25.772	30.676	57.067	234.902	30.588	35.261	35.545	39.646	210.635	38.786	-8191	255	
8233.147	1	1	0	0	0.27353	0.22042	0.14371	0.18425	0.24369	0.15836	0.13149	0.15897	0.2	0.17881	0.18231	0.23709	0.35479	0.26631	0.2369	0.21652	-0.30833	0.16875	-0.65625	-0.25625	0.097917	-0.7875	-0.027083	-0.3625	-0.73958	0.04375	-0.73125	-0.50833	0.17083	-0.72917	-0.03125	-0.32917	89.433	273.431	37.220	53.885	363.526	191.458	324.936	319.338	366.487	145.405	35.149	316.584	326.234	58.199	199.942	140.217	0.00058845	0.00090588	0.00023541	488.77	5.8665e-06	2.212e-05	608.48	158.43	1.8661e-05	1.8097e-05	273.98	112.35	57.728	28.912	1.0203e-05	62.996	0.0098625	0.010063	0.0031832	927.69	0.00011413	0.00011306	1061.1	277.57	0.00011374	0.00011203	474.23	182.97	135.05	48.946	0.0001248	93.769	98.477	164.703	154.397	25.094	369.108	176.484	25.518	30.641	35.637	234.489	30.555	35.053	35.815	39.936	235.621	38.833	-8191	255	
8233.243	1	1	0	0	0.30215	0.11972	0.15448	0.071722	0.041951	0.079013	0.26871	0.10919	0.17908	0.14781	0.21386	0.32821	0.28779	0.11815	0.33324	0.048741	-0.29792	0.00625	-0.41042	-0.66042	0.085417	-0.77083	-0.10625	-0.060417	-0.82292	-0.039583	-0.54583	-0.57083	0.225	-0.73542	-0.20417	-0.18125	29.834	317.665	128.765	52.614	51.805	89.018	282.969	316.103	297.676	32.932	157.969	332.374	57.715	168.884	189.111	354.656	0.00062693	0.0031334	0.00027157	480.74	5.0931e-06	1.9063e-05	598.76	155.63	1.3527e-05	1.2131e-05	269.13	110.37	56.545	28.092	1.1417e-05	61.762	0.0097003	0.010355	0.0032337	904.51	0.00011098	0.00011859	1059.3	272.7	0.00011462	0.00012069	475.37	181.33	134.76	49.967	0.00012977	92.385	84.342	159.026	20.214	24.963	30.180	240.724	25.244	30.842	141.142	255.096	29.876	35.254	35.233	40.140	79.528	39.154	-8191	255	
8233.339	1	1	0	0	0.16583	0.18893	0.19359	0.25933	0.13789	0.072956	0.036475	0.11703	0.15962	0.2869	0.36641	0.16591	0.21295	0.31553	0.16404	0.39279	-0.26875	0.15625	-0.60417	-0.46875	0.21667	-0.74583	-0.31667	-0.035417	-0.9	0.16667	-0.45625	-0.65417	0.097917	-0.70417	-0.24167	-0.11042	345.355	77.201	109.124	24.304	324.004	148.818	322.619	355.534	181.104	106.311	53.054	14.298	22.086	263.620	27.981	367.639	0.0011037	0.0031151	0.00069406	472.89	1.3446e-05	3.3663e-05	587.51	152.17	1.0805e-05	2.4078e-05	264.7	109.22	56.225	27.702	1.4398e-05	61.311	0.0099478	0.011382	0.0033114	903.13	0.00011284	0.00012926	1052.7	268.68	0.00011603	0.00012974	469.77	180.19	135.52	51.091	0.00012959	92.251	72.733	201.060	356.696	24.804	136.823	205.940	24.973	31.012	191.707	211.126	30.080	35.033	36.169	39.909	313.921	38.887	-8191	255	
8233.436	1	1	0	0	0.070013	0.16654	0.01451	0.28198	0.043206	0.32327	0.22169	0.32432	0.21224	0.10022	0.30793	0.18948	0.067048	0.078507	0.18768	0.19819	-0.48125	-0.072917	-0.22708	-0.77083	0.33958	-0.83958	-0.325	-0.15833	-0.78542	-0.13125	-0.45	-0.80208	0.2625	-0.62708	-0.3125	0.066667	141.027	77.664	58.772	263.851	312.950	49.697	328.392	212.234	232.862	202.317	310.336	352.432	332.768	147.382	177.548	256.611	0.0013622	0.0024439	0.00039141	465.37	2.7634e-05	4.097e-05	586.11	151.71	2.644e-05	9.3818e-06	263.76	109.34	56.411	27.754	1.8195e-05	61.27	0.010339	0.0123	0.0032897	904.98	0.00011915	0.00013838	1051.4	268.84	0.00012335	0.00013772	467.59	180.31	140.02	51.698	0.00012686	91.758	79.090	83.702	25.782	25.070	207.597	209.816	25.021	30.374	205.357	263.635	30.366	34.954	36.537	39.942	91.116	38.653	-8191	255	
8233.554	1	1	0	0	0.19116	0.27966	0.30271	0.43719	0.19424	0.073528	0.14549	0.025477	0.20782	0.34794	0.22124	0.26961	0.24953	0.055607	0.26839	0.16566	-0.20208	-0.029167	-0.14583	-0.85833	-0.058333	-0.63542	-0.65625	0.16042	-0.86042	-0.29167	-0.089583	-0.97917	-0.079167	-0.6875	-0.59375	0.20833	298.806	208.213	246.081	21.588	256.771	82.457	28.029	71.238	351.342	63.846	350.441	330.444	103.866	143.992	81.335	236.573	0.0015537	0.0014119	0.00020734	464.65	3.3867e-05	7.1687e-06	586.45	150.28	3.4875e-05	2.4126e-05	262.39	108.13	55.344	27.283	6.8599e-06	60.499	0.010835	0.012381	0.0031531	891.04	0.0001241	0.00013551	1033.6	264.44	0.00012768	0.00013472	458.08	177.47	142.5	50.322	0.00012161	90.161	90.972	369.733	276.720	24.833	182.423	138.020	25.217	30.496	186.716	360.907	30.094	34.908	36.108	39.615	25.754	38.856	-8191	255	
8233.628	1	1	0	0	0.23539	0.11477	0.17735	0.17599	0.1254	0.082311	0.28329	0.06895	0.12552	0.26834	0.18869	0.28531	0.041456	0.066065	0.18008	0.29793	-0.4	-0.31458	0.2875	-0.87708	0.10208	-0.37083	-0.72083	0.17708	-0.675	-0.46458	-0.05	-0.68542	-0.097917	-0.34583	-0.575	0.010417	261.249	51.457	249.330	265.803	131.038	161.726	342.893	262.220	256.367	61.603	17.063	223.295	129.316	341.257	133.898	341.629	0.001483	0.00052568	0.00038642	460.08	2.306e-05	1.2259e-05	578.28	149.21	2.128e-05	1.2963e-05	258.47	107.6	54.868	26.586	1.3904e-05	59.498	0.011103	0.011815	0.0030159	871.55	0.00012736	0.00012855	1008.7	259.62	0.00013076	0.00012802	445.5	175.49	143.69	48.491	0.00011721	89.069	89.159	122.760	323.780	25.198	207.412	364.213	25.078	30.798	184.052	25.976	29.981	35.465	36.363	39.559	79.887	38.982	-8191	255	
8233.724	1	1	0	0	0.056828	0.28353	0.17861	0.10834	0.12045	0.091642	0.2419	0.11502	0.071028	0.1533	0.098785	0.17501	0.29709	0.29379	0.31164	0.27134	-0.25417	-0.23125	0.25833	-0.75625	-0.10417	-0.2875	-0.74792	0.08125	-0.46667	-0.20833	0.10208	-0.81875	-0.17083	-0.18542	-0.82708	0.020833	245.805	348.316	274.018	281.915	32.832	179.378	24.171	145.385	361.020	181.201	261.220	330.899	352.672	334.241	306.454	325.261	0.0014071	0.0014828	0.0002829	457.76	1.2092e-05	2.5209e-05	575.65	148.71	1.3522e-05	2.47e-05	258.28	107.22	54.078	26.611	1.5431e-05	59.493	0.011328	0.011357	0.0029066	882.23	0.00013027	0.00012323	997.51	263.2	0.00013054	0.00012189	438.77	176.47	141.83	47.368	0.00011175	89.87	68.504	334.364	345.935	25.455	203.668	349.958	25.443	31.073	86.554	98.490	30.254	35.511	35.656	39.371	131.890	38.988	-8191	255	
8233.843	1	1	0	0	0.10241	0.20106	0.22905	0.26766	0.10669	0.20821	0.13019	0.042618	0.15209	0.019624	0.033987	0.23676	0.42947	0.24724	0.09217	0.14139	-0.13333	-0.75208	0.18542	-0.76875	-0.10625	-0.025	-0.64375	-0.058333	-0.51042	-0.47083	0.13958	-0.83542	-0.29167	0.15417	-0.61042	0.025	51.444	64.996	364.949	49.917	97.857	235.892	163.179	25.880	214.677	143.378	257.114	76.680	338.870	94.539	110.913	241.431	0.0007112	0.00095158	0.00060271	462.5	2.4639e-06	8.4818e-06	582.36	149.91	1.6088e-05	9.2908e-06	260.47	107.54	54.444	26.493	1.0554e-05	59.827	0.010925	0.010745	0.0027895	891.86	0.00012499	0.0001159	983.22	266.33	0.00012378	0.00011676	435.86	179.02	139.37	46.721	0.0001104	91.363	77.589	66.599	73.512	25.496	355.362	94.180	25.786	30.680	289.212	369.778	30.018	35.486	35.269	39.518	187.273	38.913	-8191	255	
8233.939	1	1	0	0	0.15125	0.18168	0.14122	0.26013	0.15501	0.11167	0.41729	0.20612	0.084471	0.10745	0.24286	0.11957	0.25891	0.10315	0.15731	0.27841	0.10625	-0.75417	0.12708	-0.66667	-0.25417	0.19167	-0.59167	0.054167	-0.12917	-0.4875	-0.045833	-0.44792	-0.2125	0.2375	-0.88125	-0.15	273.151	80.402	205.423	27.498	118.454	120.863	17.083	327.239	170.823	171.104	283.284	19.169	266.119	347.313	360.332	46.291	0.00021649	0.0013764	0.00014793	462.14	2.5159e-05	2.242e-05	580.9	150.2	2.8951e-05	7.6673e-06	260.7	106.87	53.641	26.311	2.9223e-05	58.651	0.010528	0.010484	0.0027823	907.03	0.0001206	0.000113	986.93	270.33	0.00011876	0.00011375	437.94	179.79	135.51	45.728	0.00011237	90.933	30.992	222.635	196.967	25.199	34.214	46.739	25.612	30.855	348.216	47.692	30.444	35.111	35.202	39.541	202.959	38.593	-8191	255	
8234.035	1	1	0	0	0.33683	0.10804	0.1429	0.070603	0.10747	0.15537	0.10368	0.15751	0.096139	0.19777	0.12841	0.23767	0.16012	0.30052	0.21983	0.074952	0.070833	-0.79375	0.27917	-0.42708	-0.33125	0.13542	-0.77083	-0.22292	-0.24167	-0.84167	-0.05	-0.45	-0.57083	-0.035417	-0.84375	-0.24792	284.085	299.854	371.712	15.650	60.381	106.534	247.579	364.229	76.704	372.079	213.416	64.869	269.804	291.162	187.479	317.473	0.00063362	0.00070405	0.00071764	461.1	8.4173e-06	1.0652e-05	580.22	147.55	2.4685e-05	1.4267e-05	256.94	105.7	53.189	25.837	3.0941e-05	58.982	0.01005	0.010138	0.0028571	900.34	0.00011519	0.00010815	989.8	265.9	0.00011256	0.00010802	438.58	175.88	130.63	44.521	0.00011481	89.548	50.205	308.135	165.633	24.871	367.803	221.629	25.699	30.677	50.488	88.160	30.374	35.358	35.832	39.650	220.327	38.376	-8191	255	
8234.131	1	1	0	0	0.086765	0.11353	0.28545	0.11342	0.1717	0.23095	0.17228	0.097072	0.27634	0.10873	0.18216	0.28949	0.16151	0.033601	0.32771	0.21088	0.32917	-0.86042	0.13542	-0.54583	-0.60833	0.091667	-0.67917	-0.15625	-0.15625	-0.69167	-0.12292	-0.42917	-0.70208	0.041667	-0.5375	-0.52917	102.228	127.274	307.791	324.420	192.008	23.204	34.413	220.132	28.655	244.164	354.922	247.213	294.111	367.522	239.156	25.377	0.00062627	0.00098344	0.00086866	456.62	1.1482e-05	7.0438e-06	579.9	146.73	1.6373e-05	1.743e-05	258.87	106.2	54.135	26.269	1.2724e-05	59.314	0.0095219	0.0097023	0.0029216	878.37	0.0001094	0.00010375	997.7	259.73	0.00010592	0.00010374	442.43	172.58	126.94	44.365	0.00011494	88.543	100.853	204.062	165.967	25.151	71.421	266.236	25.703	30.303	57.515	119.556	30.280	34.899	35.148	39.524	162.736	38.319	-8191	255	
8234.227	1	1	0	0	0.18364	0.21816	0.25156	0.2857	0.16559	0.22166	0.24493	0.11638	0.13391	0.12989	0.10492	0.16003	0.25368	0.16818	0.16527	0.21447	0.37708	-0.70625	-0.089583	-0.18542	-0.56458	0.077083	-0.71875	-0.32917	0.28333	-0.96458	-0.0875	-0.2125	-0.71875	0.1	-0.65417	-0.45417	121.319	352.277	99.882	30.545	96.613	236.399	311.906	310.231	105.676	206.088	226.170	328.348	132.234	66.207	239.106	366.987	0.0008095	0.00058296	0.00068578	465.48	1.6675e-05	2.1583e-05	587.19	149.86	1.5063e-06	2.133e-05	263.04	108.08	54.422	26.708	1.0694e-05	60.394	0.0089497	0.0094917	0.0029415	860.55	0.00010445	0.00010425	1012.3	258.69	0.00010311	0.0001074	451.51	172.81	127.08	45.871	0.00011742	88.849	86.230	137.664	143.182	24.540	54.814	206.945	25.177	29.801	79.523	195.376	29.680	34.954	35.515	39.689	37.905	38.502	-8191	255	
8234.324	1	1	0	0	0.1618	0.11602	0.28974	0.14814	0.19982	0.070087	0.13212	0.40197	0.31732	0.18741	0.10293	0.14667	0.25682	0.17742	0.011	0.15133	0.6125	-0.69583	-0.13125	-0.26667	-0.69583	0.1125	-0.4375	-0.58125	0.15417	-0.59167	-0.21042	-0.24375	-0.7875	0.1375	-0.55	-0.65625	223.900	362.326	111.241	307.046	312.517	297.668	95.918	309.296	147.675	157.630	243.608	370.218	209.824	12.566	330.406	282.082	0.00065108	0.0029941	0.0006126	470.47	1.0907e-05	2.2708e-05	593.5	151.59	9.6005e-06	2.6412e-05	262.35	107.86	54.691	26.807	7.6544e-06	59.711	0.0087765	0.0099125	0.0029534	854	0.00010193	0.00010927	1013.7	257.02	0.00010068	0.00011248	448.92	170.79	125.23	46.589	0.00011447	87.491	88.624	149.841	127.684	24.747	86.082	223.572	24.911	30.229	353.811	205.179	29.816	35.147	35.259	39.932	51.187	38.565	-8191	255	
8234.444	1	1	0	0	0.22707	0.16071	0.040295	0.24903	0.066772	0.24107	0.049881	0.23992	0.085567	0.076872	0.10033	0.38718	0.12128	0.2613	0.36504	0.22619	0.59167	-0.47917	-0.20833	0.15625	-0.67917	0.13542	-0.29375	-0.52292	0.27292	-0.825	-0.42917	0.016667	-0.88333	0.13125	-0.23333	-0.87083	231.067	226.327	38.627	361.436	102.391	356.665	232.354	312.515	142.869	16.295	308.767	257.320	219.428	310.585	307.978	120.590	0.00078316	0.003176	0.00066088	470.66	2.2618e-05	2.7949e-05	585.64	150.75	2.6952e-05	1.8604e-05	261.75	106.83	55.067	26.552	1.6392e-05	59.224	0.0086908	0.010472	0.0028715	843.41	0.00010176	0.00011384	992.97	253.64	0.00010045	0.00011704	439.77	167.61	126.62	46.996	0.00011001	86.651	73.298	167.078	314.262	24.920	123.477	213.893	25.324	30.501	165.805	222.169	29.857	34.890	36.185	39.731	357.448	38.770	-8191	255	
8234.540	1	1	0	0	0.050201	0.2671	0.29829	0.2295	0.095758	0.050497	0.15351	0.22947	0.22862	0.16829	0.24691	0.20214	0.2264	0.16228	0.094088	0.26434	0.51667	-0.45833	-0.46667	0.16458	-0.6375	-0.025	-0.23958	-0.83333	0.35208	-0.33958	-0.39792	0.15	-0.62083	-0.125	-0.0020833	-0.78125	274.936	298.878	278.050	305.724	238.029	270.059	96.167	215.557	58.523	32.119	287.965	310.896	252.159	326.367	184.132	60.231	0.0012887	0.0018604	0.00058789	468.05	1.7257e-05	1.816e-05	584.3	150.08	1.9413e-05	3.072e-06	260.26	107.07	54.728	26.76	1.5888e-05	59.843	0.0089361	0.010881	0.0028204	838.78	0.00010813	0.00012018	988.49	255.06	0.0001089	0.00012286	441.15	169.71	133.64	48.325	0.00011268	88.092	98.967	116.617	23.909	24.709	158.509	35.051	25.114	30.170	205.260	48.666	29.815	35.077	36.204	39.733	355.742	38.618	-8191	255	
8234.635	1	1	0	0	0.021143	0.2296	0.02271	0.40894	0.067544	0.14016	0.092765	0.15809	0.064867	0.16762	0.086957	0.031117	0.057566	0.30057	0.26078	0.047525	0.48125	-0.39792	-0.3625	0.13958	-0.70417	-0.19583	0.027083	-0.7	0.23333	-0.44792	-0.63333	0.075	-0.61458	-0.30208	0.22708	-0.96875	193.270	357.238	181.013	62.507	132.269	325.201	260.794	188.729	194.230	192.182	209.827	293.666	180.480	50.891	136.125	124.208	0.0015561	0.0021257	0.00051435	467.8	2.9854e-05	1.1394e-05	585.92	152.61	1.8899e-05	5.4179e-06	263.85	109.11	56.32	27.297	1.7748e-05	61.023	0.0099693	0.011294	0.0028804	849.9	0.0001186	0.00012236	989.87	257.16	0.00011702	0.0001203	441.88	170.49	137.78	48.111	0.00010748	89.121	72.607	257.777	35.927	25.081	245.544	370.122	25.355	30.782	149.132	358.376	30.255	35.254	35.809	39.592	365.338	38.919	-8191	255	
8234.731	1	1	0	0	0.096086	0.41915	0.16216	0.11303	0.093753	0.19806	0.11368	0.11423	0.14417	0.10844	0.17991	0.051359	0.10794	0.12577	0.10737	0.12592	0.41042	-0.225	-0.59792	0.21875	-0.63125	-0.24583	0.10417	-1.0938	-0.12708	-0.16875	-1.0104	0.15208	-0.72708	-0.24792	0.19375	-0.89792	182.008	199.749	257.241	55.241	306.322	107.188	243.290	242.527	319.173	339.819	353.643	250.574	180.229	358.339	53.723	192.932	0.0013121	0.0020446	0.00044072	471.17	8.3927e-06	1.9908e-05	586.57	152.69	3.4621e-05	1.8553e-05	264.88	108.29	55.411	26.94	9.0632e-06	60.179	0.01032	0.010777	0.0028113	856.84	0.00012322	0.00011901	991.02	262.32	0.00012463	0.00011904	443.94	174.31	143.13	48.072	0.00010997	90.242	64.437	26.036	333.509	25.015	66.654	111.491	25.008	31.108	196.865	76.978	30.017	35.662	35.698	39.307	34.841	39.121	-8191	255	
8234.852	1	1	0	0	0.2934	0.29209	0.35745	0.14846	0.17092	0.21759	0.065385	0.17218	0.26532	0.10102	0.29697	0.15761	0.086879	0.14995	0.21281	0.26868	0.22917	-0.2375	-0.62083	0.31042	-0.39167	-0.38958	-0.060417	-0.99167	-0.11667	-0.12083	-0.83333	-0.095833	-0.51667	-0.36458	0.15208	-0.71458	337.578	119.699	238.841	42.214	253.944	365.136	224.094	201.566	191.544	222.050	310.246	303.214	258.137	163.741	89.448	276.833	0.00089737	0.0015992	0.00025895	468.27	1.0461e-05	2.2502e-06	584.5	151.45	8.4586e-06	2.4747e-06	259.75	108.29	54.827	26.954	3.4591e-06	59.98	0.010981	0.010736	0.0028366	882.43	0.00012652	0.00011741	982.36	266.35	0.00012593	0.00011592	436.83	176.68	140.43	47.169	0.00010685	90.786	93.677	317.135	369.567	25.657	27.435	133.903	25.336	31.053	362.806	309.624	29.662	35.551	34.920	39.213	188.458	38.979	-8191	255	
8234.923	1	1	0	0	0.25774	0.21839	0.065211	0.18181	0.12201	0.083554	0.2311	0.21275	0.13056	0.15054	0.21406	0.056056	0.15545	0.15103	0.071462	0.18362	0.15833	0.175	-0.76042	0.18958	-0.325	-0.55208	0.175	-0.63125	-0.30417	0.058333	-0.72917	-0.11042	-0.1625	-0.57292	0.28125	-0.59167	204.790	173.627	224.060	197.392	245.635	228.785	302.648	309.591	230.362	195.349	290.513	97.470	312.159	13.596	98.688	204.142	0.00054319	0.00099748	0.0002004	470.41	7.9995e-06	1.5338e-05	586.02	151.41	1.987e-05	1.097e-05	262.77	108.78	55.817	27.444	2.879e-05	61.206	0.01059	0.010222	0.0027392	893.36	0.00011939	0.00011208	970.2	268.44	0.00011859	0.00010961	434.65	178.78	135.78	46.74	0.00010538	92.165	83.864	39.367	27.557	25.191	41.167	362.224	25.411	30.739	31.687	133.850	30.221	35.300	35.284	39.640	210.902	39.025	-8191	255	
8235.019	1	1	0	0	0.31198	0.19853	0.033162	0.14476	0.21384	0.22085	0.14512	0.16624	0.12397	0.22566	0.091944	0.23103	0.18939	0.2217	0.16491	0.20862	0.10625	0.13125	-0.74167	-0.01875	-0.091667	-0.6625	0.16667	-0.7625	-0.44792	0.25417	-0.89167	-0.16667	-0.033333	-0.89167	0.072917	-0.66667	50.210	365.949	279.250	269.868	297.683	359.033	322.967	312.189	217.773	265.533	308.296	311.324	24.421	293.344	95.231	19.707	0.00086245	0.0008586	0.00033301	473.5	2.4104e-05	2.319e-05	592.7	154.63	2.7008e-05	1.2507e-05	266.02	110.95	56.39	27.837	2.9178e-05	62.262	0.0099675	0.0098041	0.0027461	906.4	0.0001134	0.00010809	985.16	271.72	0.00011173	0.00010496	440.92	180.43	131.96	46.432	0.00010722	92.618	92.781	76.654	163.112	25.157	26.978	359.955	25.795	30.743	13.782	27.723	30.231	35.037	35.433	39.790	192.332	38.902	-8191	255	
8235.116	1	1	0	0	0.16595	0.15115	0.46043	0.26114	0.11372	0.13721	0.32397	0.19419	0.30788	0.27084	0.23003	0.42653	0.23333	0.42117	0.11552	0.17306	-0.175	0.2125	-0.72708	-0.058333	-0.125	-0.83125	-0.033333	-0.525	-0.47083	0.1625	-0.95417	-0.22083	0.064583	-0.74167	0.066667	-0.48333	181.352	50.131	334.636	92.391	44.510	43.966	274.429	360.011	241.346	256.986	283.244	348.571	44.979	368.276	317.780	247.485	0.00060527	0.00058202	0.0006658	480.57	9.4232e-06	7.7501e-06	599.33	155.23	1.3013e-05	4.1826e-06	269.25	110.4	56.717	27.762	2.7634e-05	61.176	0.009308	0.0092339	0.0027686	893.36	0.00010488	0.00010095	994.92	266.57	0.00010447	9.9363e-05	445.98	177.32	128.15	45.804	0.00011236	91.11	93.499	55.027	161.843	24.869	88.962	151.671	25.708	30.513	21.653	73.149	30.710	35.291	35.747	39.857	208.561	38.878	-8191	255	
8235.212	1	1	0	0	0.10935	0.09343	0.18288	0.11695	0.19158	0.19623	0.08997	0.28991	0.1246	0.27867	0.14858	0.073623	0.26069	0.2044	0.37051	0.36381	-0.30417	0.25208	-0.67917	-0.4125	0.15208	-0.78958	-0.033333	-0.34583	-0.55417	0.37083	-0.78958	-0.23542	0.045833	-0.89583	-0.00625	-0.28333	223.514	176.728	41.734	218.717	174.004	29.302	242.060	272.507	158.864	338.092	325.209	307.174	147.496	95.200	226.432	291.560	0.00014202	0.0015665	0.00027394	478.44	1.4713e-05	1.6105e-05	589.29	153.49	1.3426e-05	1.4437e-05	263.31	107.65	54.992	27.293	1.4673e-05	60.05	0.0092606	0.0094429	0.0030158	900.79	0.00011001	0.00011075	1045.6	274.06	0.0001178	0.0001175	480.63	184.92	141.34	49.863	0.00014696	95.499	33.898	158.547	196.281	24.941	353.607	213.096	25.649	30.424	352.345	152.338	30.425	35.052	35.399	40.003	200.451	38.657	-8191	255	
8235.332	1	1	0	0	0.17774	0.40728	0.13433	0.29487	0.14388	0.15294	0.19631	0.37056	0.082866	0.23579	0.26949	0.054371	0.20499	0.2614	0.13254	0.29942	-0.30833	0.18958	-0.79167	-0.54583	-0.05	-0.80208	-0.4375	-0.35833	-0.91042	0.033333	-0.61667	-0.61042	0.2375	-1.1667	-0.18542	-0.42292	173.120	220.399	308.247	45.881	238.669	302.149	324.912	291.522	71.048	150.866	40.766	27.980	369.716	336.983	13.455	25.672	0.00063418	0.0020507	0.00054202	470.63	2.757e-05	4.9182e-05	584.26	151.6	1.4869e-05	2.793e-05	261.56	106.89	55.352	27.491	1.8612e-05	60.347	0.011632	0.012698	0.0040636	1005.6	0.00014074	0.00015129	1175.9	298.78	0.00014582	0.00015328	523.61	195.66	154.4	55.112	0.00017277	99.919	61.024	192.990	32.472	24.604	29.747	204.517	25.123	30.482	344.771	206.457	29.905	34.965	35.241	40.395	56.634	38.887	-8191	255	
8235.428	1	1	0	0	0.28358	0.076913	0.26945	0.036809	0.10072	0.060101	0.13837	0.22381	0.25022	0.21782	0.31656	0.18303	0.10509	0.48543	0.2808	0.11067	-0.47917	0.17917	-0.28542	-0.59375	0.097917	-0.63333	-0.57083	0.09375	-0.99792	0.016667	-0.55625	-0.82292	0.0375	-0.99375	-0.38333	-0.066667	287.494	211.458	368.648	196.981	181.488	359.214	249.254	14.107	83.543	86.541	350.994	230.305	289.493	348.797	257.268	54.522	0.0010219	0.004484	0.0003057	474.4	9.9197e-06	4.1442e-05	585.44	152.11	9.1493e-06	2.5012e-05	261.42	108.45	55.907	27.887	2.8283e-05	60.654	0.013314	0.015535	0.0045707	1052.7	0.00015342	0.00017479	1208.8	304.87	0.00015387	0.00017406	535.86	200.9	161.29	58.552	0.00017367	100.2	89.531	146.992	369.895	25.015	208.948	205.282	25.306	30.375	243.596	205.737	29.827	35.157	35.678	40.275	17.080	38.988	-8191	255	
8235.525	1	1	0	0	0.21744	0.050037	0.16473	0.10186	0.20596	0.233	0.28533	0.24689	0.22279	0.27601	0.30771	0.10381	0.11595	0.10967	0.23274	0.26273	-0.575	0.075	-0.20208	-0.67292	0.035417	-0.54583	-0.6125	0.18958	-0.83125	0.06875	-0.47083	-0.72292	0.029167	-0.55	-0.55625	-0.058333	73.937	109.808	172.455	278.536	29.454	191.720	188.512	361.981	366.271	198.040	310.023	299.772	266.637	199.627	42.546	359.539	0.00094504	0.0028062	0.00044394	474.57	1.4607e-05	1.7419e-05	586.73	152.22	3.0036e-05	1.8645e-05	263.01	108.12	56.659	27.748	7.5216e-06	60.481	0.013448	0.015859	0.0041844	1011.2	0.00014407	0.00016711	1137	287.11	0.00014085	0.00015603	488.59	185.65	147.15	53.618	0.00013585	92.435	58.907	132.557	344.428	24.518	250.189	256.252	25.030	30.532	212.924	201.749	30.131	34.929	36.259	39.514	360.894	38.839	-8191	255	
8235.621	1	1	0	0	0.083994	0.11032	0.2811	0.27738	0.074905	0.026178	0.29527	0.28504	0.16842	0.14796	0.1136	0.22567	0.12366	0.20589	0.13587	0.1251	-0.46875	0.13958	-0.25	-0.83958	0.30208	-0.5125	-0.53125	0.24583	-0.69167	-0.23958	-0.12708	-0.85	-0.1625	-0.46458	-0.60208	-0.14375	40.713	289.663	323.785	318.438	167.615	328.512	287.545	25.354	114.449	180.823	296.741	320.052	38.904	81.507	31.936	20.505	0.001395	0.00015324	0.00018878	468.81	5.0489e-05	1.6308e-05	583.22	152.27	2.2679e-05	1.4535e-05	261.4	109.12	56.872	28.068	1.3641e-05	61.563	0.011367	0.013058	0.0032583	900.24	0.00012412	0.00013531	1022.3	260.55	0.00012053	0.0001239	438.99	170.28	131.49	47.767	0.00010021	86.467	86.597	24.292	352.098	25.240	185.390	108.076	25.293	30.373	181.795	349.185	29.883	35.315	36.255	39.585	90.162	38.770	-8191	255	
8235.715	1	1	0	0	0.22195	0.30433	0.14033	0.18116	0.10495	0.28083	0.093943	0.339	0.11722	0.21271	0.094335	0.16475	0.15945	0.34468	0.24128	0.22717	-0.32708	-0.17292	0.04375	-0.88125	0.0083333	-0.43333	-0.73333	0.20417	-0.71667	-0.22292	-0.047917	-0.98125	-0.09375	-0.16458	-0.67708	0.14583	224.802	137.124	328.697	13.109	317.367	56.440	226.938	305.607	150.729	179.088	289.134	357.661	125.108	63.783	358.091	274.456	0.0012637	0.0007087	0.00043292	480.52	1.8503e-05	2.2407e-05	603.1	157.21	1.4167e-05	1.9769e-05	273.5	113.26	58.662	28.982	1.0716e-05	63.982	0.008925	0.0094659	0.0023726	806.32	9.9069e-05	9.9011e-05	941.44	244.14	9.7852e-05	9.6342e-05	417.73	166.05	125.35	45.887	8.6874e-05	87.313	94.377	102.270	26.074	25.015	203.288	33.305	24.907	30.630	188.112	34.384	29.933	35.290	35.640	39.651	316.239	38.924	-8191	255	
8235.813	1	1	0	0	0.11898	0.32909	0.22056	0.20445	0.031405	0.024838	0.14245	0.13293	0.20261	0.2326	0.10567	0.17954	0.075438	0.22992	0.256	0.33652	-0.19167	-0.28333	0.125	-0.88333	0.022917	-0.13958	-0.68958	-0.029167	-0.6125	-0.19792	0.21042	-0.8375	-0.022917	-0.2875	-0.77917	0.0375	189.341	218.737	174.452	355.091	212.999	365.830	356.561	321.428	367.395	245.675	33.940	25.497	304.973	222.109	152.034	230.630	0.00081944	0.0017189	0.00035866	488.71	2.0913e-05	1.6231e-05	619.6	160.62	2.3307e-05	1.9774e-05	278.38	115.53	59.662	29.576	1.0283e-05	65.221	0.0083646	0.0084314	0.0021666	807.59	9.6046e-05	9.0503e-05	937.33	247.94	9.6059e-05	9.0349e-05	417.61	169.26	126.02	45.697	8.3349e-05	89.226	86.440	356.936	354.991	25.144	192.939	345.251	25.273	31.065	172.550	370.699	29.707	35.273	35.274	39.746	197.075	39.031	-8191	255	
8235.932	1	1	0	0	0.15394	0.12803	0.29549	0.22137	0.065678	0.067275	0.22882	0.2073	0.10224	0.26053	0.071141	0.34324	0.20195	0.32792	0.22205	0.074841	-0.12292	-0.45417	0.18333	-0.625	-0.39167	0.014583	-0.75833	0.020833	-0.45417	-0.59583	0.097917	-0.72083	-0.23542	-0.15208	-0.69792	-0.2	90.347	262.485	285.384	297.809	353.281	34.598	351.859	353.388	288.115	66.985	290.933	319.380	69.281	336.929	338.761	116.978	0.0010098	0.0014162	0.00025038	496.54	4.0365e-06	2.7428e-06	621.75	161.49	1.5672e-05	1.3247e-05	278.38	114.76	58.853	29.357	6.6754e-06	64.129	0.0081484	0.0080062	0.0020785	820.31	9.3303e-05	8.6322e-05	931.8	252.04	9.2863e-05	8.7016e-05	414.01	170.38	123.23	44.815	8.1638e-05	88.87	81.874	339.422	250.428	25.456	53.868	209.771	25.093	30.536	56.198	78.499	30.051	35.146	35.021	39.624	204.900	38.750	-8191	255	
8236.028	1	1	0	0	0.31055	0.15819	0.058936	0.1768	0.16064	0.29228	0.27306	0.26232	0.1955	0.15655	0.21817	0.098821	0.38845	0.11723	0.024855	0.35768	-0.15417	-0.64792	0.21042	-0.81042	-0.56667	-0.089583	-0.78958	-0.125	-0.42083	-0.78958	0.14792	-0.57708	-0.325	0.21667	-0.81042	-0.15417	327.787	235.178	264.135	169.520	100.491	190.335	37.729	276.053	173.733	161.088	153.772	366.015	353.181	255.390	358.180	298.855	0.00060512	0.00018583	0.0002153	488.26	9.1997e-06	5.3009e-06	614	159.92	1.0479e-05	1.2114e-05	276.71	114.91	58.98	29.289	2.8164e-05	64.248	0.0077451	0.0076821	0.0020436	821.23	8.8774e-05	8.2471e-05	920.33	250.74	8.6961e-05	8.2438e-05	411.22	169.93	118.95	44.209	8.1441e-05	89.212	65.617	220.561	113.743	25.471	72.756	341.033	25.455	30.658	267.864	70.005	30.169	35.127	35.360	39.647	175.108	38.700	-8191	255	
8236.124	1	1	0	0	0.41745	0.16818	0.12913	0.13475	0.34809	0.18742	0.12105	0.13926	0.2316	0.13865	0.17186	0.072323	0.11347	0.13742	0.28697	0.32187	0.14583	-0.61458	0.14167	-0.50208	-0.42083	0.17917	-0.72292	-0.34167	-0.28958	-0.73958	0.18125	-0.5875	-0.575	0.041667	-0.6375	-0.34583	313.203	80.369	250.444	38.311	192.001	368.979	203.219	70.573	276.048	131.485	243.966	134.755	153.919	334.914	268.611	328.254	0.00049987	0.00052008	0.00036067	489.03	1.5386e-05	9.8189e-06	620.29	161.05	1.7393e-05	7.7378e-06	279.77	115.94	59.699	29.795	1.4943e-05	65.59	0.0073211	0.007365	0.0020835	822.01	8.432e-05	7.9853e-05	935.42	252.33	8.3595e-05	8.0774e-05	420.14	171.25	118.55	44.531	8.6327e-05	90.158	115.896	291.638	228.620	24.823	360.272	72.006	25.683	30.502	320.076	23.233	30.076	34.850	35.406	39.721	209.721	38.664	-8191	255	
8236.220	1	1	0	0	0.086901	0.10199	0.21822	0.025576	0.29053	0.24276	0.19741	0.040266	0.10686	0.24125	0.23352	0.22258	0.10191	0.14693	0.14445	0.39443	0.32083	-0.73125	0.29167	-0.44167	-0.47708	0.16042	-0.83958	-0.24167	-0.11458	-0.78125	-0.060417	-0.31042	-0.73958	0.30625	-0.67083	-0.24375	55.409	201.707	214.876	98.684	261.207	52.894	261.202	125.389	165.158	38.956	353.691	336.165	213.598	337.128	168.796	329.404	0.00064748	0.0012805	0.00063787	492.65	1.1632e-05	4.0575e-06	628.6	162.91	1.066e-05	1.3812e-05	284.28	117.63	60.515	30.398	1.9622e-05	66.196	0.0071976	0.007359	0.0022212	824.08	8.3702e-05	7.9529e-05	958.77	253.69	8.2947e-05	8.1465e-05	432.12	172.09	118.86	45.216	9.0912e-05	90.391	85.717	149.002	145.377	24.766	239.249	121.302	25.393	30.438	17.306	245.622	29.949	34.774	35.424	39.881	200.998	38.556	-8191	255	
8236.317	1	1	0	0	0.050561	0.10536	0.26431	0.21544	0.098947	0.1785	0.18916	0.28895	0.24741	0.14448	0.094313	0.19621	0.20496	0.22617	0.021753	0.06107	0.3125	-0.70417	0.10417	-0.39167	-0.62708	0.19167	-0.75625	-0.3875	0.12083	-0.85833	-0.13958	-0.19792	-0.86875	0.19583	-0.63958	-0.55625	333.407	207.362	236.738	281.154	118.466	29.214	317.336	54.333	102.936	233.186	299.459	329.225	324.193	331.871	273.174	334.226	0.00067526	0.0014597	0.00055742	496.63	7.8639e-06	1.029e-05	627.23	163.38	7.3322e-06	7.683e-06	282.36	116.26	59.964	29.976	1.0846e-05	65.184	0.0070652	0.0074268	0.002309	815.62	8.1339e-05	8.1088e-05	967.96	250.47	8.0036e-05	8.2841e-05	432.89	168.4	116.47	45.078	9.0059e-05	88.168	96.767	116.480	153.824	24.825	27.058	195.191	25.953	30.283	365.400	245.302	29.958	35.160	35.256	39.864	72.329	38.500	-8191	255	
8236.413	1	1	0	0	0.22307	0.059808	0.11664	0.12172	0.11161	0.28269	0.3023	0.063947	0.16288	0.083842	0.28468	0.20961	0.031872	0.1678	0.1765	0.088921	0.38125	-0.65208	0.047917	-0.27292	-0.775	0.12083	-0.51875	-0.44583	0.13125	-0.60625	-0.13333	-0.19375	-0.7375	-0.09375	-0.36667	-0.75833	27.604	34.174	257.055	113.527	246.938	152.604	351.093	298.982	101.356	253.261	36.214	49.356	160.475	49.213	236.790	318.819	0.00098341	0.0016888	0.0001489	497.38	2.6802e-06	2.5447e-05	623.56	161.76	3.0327e-06	1.9072e-05	279.22	115.7	59.922	29.704	1.5884e-05	64.8	0.0067639	0.0076057	0.0022732	798.34	7.8285e-05	8.3613e-05	956.68	246.09	7.7548e-05	8.6508e-05	427.59	166.08	115.27	45.604	8.8842e-05	87.472	78.677	187.347	147.290	25.166	191.209	201.099	25.339	30.311	356.372	211.516	29.764	34.961	35.207	39.867	35.507	38.546	-8191	255	
8236.533	1	1	0	0	0.3651	0.1464	0.21997	0.12182	0.096836	0.1113	0.31826	0.15486	0.30758	0.16517	0.33836	0.18058	0.23309	0.30549	0.24161	0.10867	0.52708	-0.39375	-0.35833	0.054167	-0.67917	-0.1	-0.37708	-0.73958	0.10417	-0.46875	-0.47708	-0.01875	-0.86042	-0.025	-0.26042	-0.86875	312.731	289.296	296.811	48.391	17.714	132.022	244.481	66.889	201.186	262.375	348.286	126.203	194.928	336.436	314.251	309.368	0.0010765	0.0016848	0.00041287	495.93	6.9149e-06	8.9128e-06	621.76	162.67	9.591e-06	1.1226e-05	282.1	116.83	60.21	30.129	2.0291e-05	65.367	0.0067566	0.0081436	0.0022563	796.68	7.9488e-05	8.9069e-05	950.77	246.22	7.8166e-05	9.099e-05	425.85	165.83	116.87	46.541	8.5723e-05	88.096	75.132	124.767	323.540	25.011	175.781	244.520	25.280	30.217	185.414	144.647	29.906	35.070	35.056	39.783	28.058	38.396	-8191	255	
8236.628	1	1	0	0	0.030923	0.18306	0.074919	0.15728	0.3751	0.16712	0.17833	0.14692	0.073478	0.23487	0.14675	0.26346	0.070444	0.18276	0.082669	0.31118	0.60417	-0.5625	-0.37917	0.16875	-0.75625	0.16458	-0.23958	-0.65417	0.13542	-0.52708	-0.46875	0.05	-0.8375	-0.25417	0	-0.98125	316.984	95.197	321.883	49.089	364.280	268.954	366.341	248.440	41.190	102.246	143.208	173.011	279.575	235.852	45.186	287.260	0.0010911	0.0011634	0.00023023	498.22	1.5728e-05	1.1493e-05	627.42	162.95	1.3634e-05	3.7044e-06	283.69	116.63	60.907	30.289	8.6156e-06	65.816	0.0069185	0.0084253	0.0021993	793.73	8.3262e-05	9.2593e-05	949.87	246.57	8.2902e-05	9.3469e-05	426.71	166.95	121.02	47.231	8.4255e-05	88.505	99.407	64.309	365.088	24.829	153.747	320.324	25.303	30.576	167.092	156.315	29.989	34.896	35.939	39.560	108.245	38.441	-8191	255	
8236.724	1	1	0	0	0.1256	0.12894	0.29023	0.3084	0.27985	0.09513	0.060383	0.1999	0.13285	0.21994	0.35102	0.19626	0.10303	0.23665	0.12159	0.080629	0.40208	-0.38542	-0.43125	0.05625	-0.68542	-0.24375	-0.18125	-0.95	0.10625	-0.59583	-0.6625	-0.039583	-0.72917	-0.27292	-0.18125	-0.9125	153.399	230.083	135.265	313.820	22.926	207.712	169.148	16.199	75.663	175.550	369.111	104.096	26.980	58.938	140.521	321.184	0.0014347	0.00019838	0.00047953	497.26	1.9619e-05	1.9642e-05	622.76	162.83	9.4103e-06	2.2247e-05	280.18	115.92	59.765	29.811	7.112e-06	64.393	0.0074267	0.0084883	0.0021578	789.33	8.795e-05	9.1915e-05	938.3	245.02	8.7612e-05	9.1252e-05	420.26	164.82	122.45	46.215	8.1973e-05	86.848	88.654	99.519	48.959	24.998	230.211	87.395	25.497	30.689	185.981	355.369	30.044	35.073	36.095	39.456	27.759	38.681	-8191	255	
8236.796	1	1	0	0	0.1611	0.02855	0.11226	0.24366	0.12666	0.26606	0.25953	0.016029	0.21729	0.35085	0.081817	0.10303	0.18561	0.099606	0.28305	0.21998	0.31875	-0.1375	-0.71458	-0.0083333	-0.58333	-0.37708	0.125	-0.93542	-0.0020833	-0.3125	-0.95833	0.095833	-0.65417	-0.425	0.13333	-1.0312	341.401	177.006	183.215	21.766	365.042	149.359	365.869	69.218	64.207	32.419	251.236	239.491	114.846	293.262	142.550	271.332	0.0011622	0.00061036	0.00027537	490.44	1.2448e-05	1.8684e-05	619.91	161.32	5.3174e-06	1.511e-05	276.91	114.73	59.834	29.488	8.0003e-06	63.821	0.0077572	0.0081412	0.002121	786.61	9.2483e-05	8.9335e-05	926.06	244.96	9.2124e-05	8.904e-05	417	165.28	124.84	45.628	8.2082e-05	87.51	89.282	16.513	75.422	25.446	243.503	322.736	25.311	30.756	202.309	53.808	29.907	35.086	35.640	39.637	175.025	38.786	-8191	255	
8236.916	1	1	0	0	0.12161	0.037335	0.056864	0.24867	0.13184	0.40577	0.23368	0.19863	0.18043	0.23449	0.37098	0.07299	0.08206	0.09219	0.23966	0.31017	0.42083	-0.32917	-0.73125	0.16667	-0.6125	-0.43125	0.21667	-0.67708	-0.09375	-0.21875	-0.64583	-0.010417	-0.40833	-0.73333	0.26667	-0.87292	229.842	338.120	306.203	360.423	96.488	34.086	14.157	370.448	55.063	113.903	298.751	72.150	268.428	337.139	44.591	323.145	0.0011137	0.0024107	0.00027133	486.55	1.1343e-05	2.825e-06	613.04	159.39	6.6012e-06	1.4918e-05	277.93	115.19	59.69	29.577	1.2706e-05	64.018	0.0082159	0.0081379	0.0021635	806.99	9.6975e-05	9.0371e-05	928.89	250.95	9.613e-05	8.8662e-05	418.99	169.71	126.62	45.891	8.2926e-05	89.39	79.946	366.362	130.261	24.886	371.876	80.958	25.128	30.753	52.183	71.061	30.229	35.154	35.333	39.616	168.954	38.679	-8191	255	
8237.012	1	1	0	0	0.25602	0.073471	0.43766	0.10668	0.035536	0.047571	0.12044	0.14677	0.32285	0.19274	0.11288	0.21539	0.037754	0.25445	0.11489	0.34931	0.0041667	-0.00625	-0.84167	0.18958	-0.29792	-0.33333	0.03125	-0.67083	-0.28125	0.0875	-0.87292	-0.06875	-0.36875	-0.80208	0.27917	-0.9	120.664	84.486	259.246	24.123	303.281	130.580	103.254	324.967	157.364	305.112	176.357	72.538	115.750	25.426	351.103	297.792	0.00052312	0.0017446	8.8705e-05	492.01	1.6945e-05	7.4828e-06	617.85	162.14	3.0505e-06	1.0967e-05	282.01	116.03	59.382	29.719	1.21e-05	64.863	0.0083089	0.0080736	0.0021808	829.83	9.5233e-05	8.9282e-05	934.13	256.22	9.4047e-05	8.7051e-05	422.4	173.17	124.32	45.81	8.3303e-05	90.313	104.823	50.533	134.342	25.481	370.091	184.142	25.111	30.670	133.776	103.490	30.015	35.293	34.905	39.826	184.147	38.665	-8191	255	
8237.108	1	1	0	0	0.24849	0.13796	0.26767	0.24225	0.091437	0.087422	0.052879	0.065057	0.17122	0.10579	0.21575	0.38342	0.17735	0.23428	0.19457	0.077486	-0.085417	0.077083	-0.57917	0.064583	-0.28542	-0.6125	0.1	-0.70625	-0.45417	0.13542	-0.57708	-0.34792	-0.027083	-0.89167	0.2	-0.49375	139.579	97.351	222.406	361.867	81.033	144.091	239.819	16.356	90.178	279.476	173.857	283.842	36.943	275.994	36.507	365.216	0.00055821	0.00069501	0.00038893	491.74	1.0461e-05	1.6338e-05	616.12	160.32	2.7658e-05	1.0212e-05	277.49	114.76	58.995	29.229	2.747e-05	63.49	0.0079211	0.0077679	0.0021654	838.46	8.998e-05	8.619e-05	937.12	256.29	8.9821e-05	8.494e-05	422.08	172.82	121.25	44.982	8.7975e-05	89.194	113.523	207.807	146.933	25.322	24.851	347.548	25.866	30.676	364.714	55.377	30.234	35.072	35.233	39.675	219.457	38.621	-8191	255	
8237.205	1	1	0	0	0.14704	0.29586	0.49393	0.099256	0.19569	0.10344	0.15786	0.37253	0.057025	0.13146	0.31193	0.19051	0.20423	0.23223	0.15955	0.12731	0.079167	0.18125	-0.53958	-0.03125	-0.1	-0.90417	-0.058333	-0.50417	-0.42083	0.11042	-0.81042	-0.23125	0.00625	-1.0208	0.1375	-0.57083	252.952	153.973	282.784	57.863	219.733	64.067	327.972	265.443	343.145	63.443	277.814	45.374	253.453	308.043	89.248	111.255	0.00053467	0.0023504	0.00020792	483.1	1.111e-05	8.0713e-06	610.9	159.13	1.5216e-05	6.394e-06	276.85	113.97	58.905	29.425	1.8811e-05	63.604	0.0077362	0.0076938	0.0022692	835.5	8.7789e-05	8.4363e-05	950.37	253.67	8.7523e-05	8.3693e-05	426.84	171.68	120.18	44.923	9.3365e-05	89.035	75.923	39.590	147.868	24.993	159.244	362.467	25.561	30.408	27.389	72.045	30.249	34.679	35.833	39.883	210.480	38.669	-8191	255	
8237.325	1	1	0	0	0.19735	0.24465	0.1114	0.25514	0.13331	0.21265	0.10496	0.069354	0.27207	0.12098	0.22291	0.13059	0.070429	0.073452	0.1098	0.065696	0.010417	0.26458	-0.77292	-0.38333	0.17083	-0.72917	-0.01875	-0.25625	-0.69583	0.17917	-0.73542	-0.40417	-0.035417	-0.84792	-0.00625	-0.42292	206.635	114.968	294.522	128.994	62.136	189.714	80.092	141.005	237.207	220.759	19.698	282.681	269.122	87.020	149.903	347.553	0.00068521	0.00059154	0.00035825	483.65	6.2121e-06	1.7819e-05	616.99	160.59	1.1132e-05	7.5064e-06	279.65	115.4	59.156	29.847	1.3094e-05	64.234	0.0076004	0.0077756	0.0024282	832.16	8.7577e-05	8.6171e-05	972.76	254.09	8.7802e-05	8.5986e-05	438.82	171.69	120.1	45.915	9.7547e-05	89.464	84.982	185.374	115.388	24.549	189.932	195.526	25.511	30.487	111.765	253.973	29.971	34.693	35.853	39.829	204.981	38.633	-8191	255	
8237.397	1	1	0	0	0.22536	0.091251	0.11282	0.34156	0.22391	0.19781	0.16961	0.33328	0.046949	0.122	0.13086	0.11932	0.078797	0.10116	0.068158	0.14319	-0.25	0.42292	-0.47708	-0.59792	0.18333	-0.72083	-0.0625	-0.18542	-0.45833	0.15	-0.54583	-0.37083	0.079167	-0.77083	-0.070833	-0.25208	222.152	328.866	330.951	358.503	93.719	47.246	192.243	337.442	213.226	254.276	314.441	84.550	62.436	188.188	108.284	23.677	0.00059561	0.0016692	0.00029154	488.56	9.8765e-06	1.7705e-05	619.59	160.99	1.3293e-05	2.3809e-05	282.41	116.46	60.475	30.473	1.1868e-05	65.106	0.0075765	0.0080121	0.0025144	825.62	8.5935e-05	9.0549e-05	986.88	253.19	8.7123e-05	9.0813e-05	446.98	172.79	120.79	47.627	0.0001001	89.895	78.865	177.181	149.666	25.106	37.670	213.652	25.293	30.549	178.550	236.062	30.069	34.740	35.813	39.771	100.498	38.590	-8191	255	
8237.493	1	1	0	0	0.12875	0.13531	0.13474	0.23667	0.18789	0.33066	0.42384	0.39494	0.18727	0.15139	0.35903	0.14713	0.34278	0.29418	0.2273	0.12595	-0.35	0.28542	-0.42292	-0.5375	0.15625	-0.64167	-0.38125	0.10833	-0.78333	0.060417	-0.61042	-0.71458	0.18333	-0.63125	-0.17292	-0.1	333.268	328.285	187.306	351.021	159.631	141.134	311.406	358.894	362.262	118.513	81.896	56.548	38.297	48.620	294.787	321.178	0.00063045	0.0034257	0.00016964	490.97	5.2631e-06	4.0421e-05	618.89	161.33	1.0909e-05	1.4751e-05	278.8	114.78	60.329	29.819	1.938e-05	63.553	0.0076499	0.0086061	0.002541	826.3	8.5697e-05	9.773e-05	985.37	252.14	8.835e-05	9.7883e-05	440.6	170.72	120.59	47.995	9.7723e-05	87.95	78.526	138.962	173.711	24.821	102.005	209.419	24.942	30.558	166.840	244.269	29.716	35.062	36.118	40.074	134.556	38.477	-8191	255	
8237.614	1	1	0	0	0.44893	0.30601	0.080142	0.035926	0.088491	0.29752	0.15205	0.25268	0.18046	0.061974	0.25517	0.17643	0.24723	0.21401	0.067414	0.29058	-0.34375	0.29792	-0.15833	-0.65	0.175	-0.54375	-0.43333	0.25208	-0.57292	0.014583	-0.24583	-0.8875	0.11667	-0.69167	-0.575	0.0083333	37.949	299.515	251.231	350.545	92.890	289.771	153.193	328.629	208.140	140.192	320.389	367.089	95.946	330.470	39.793	263.594	0.0010743	0.0014381	0.00071333	484.13	8.8306e-06	1.7788e-05	610.17	160.03	2.287e-05	1.0792e-05	277.48	114.02	60.09	29.885	1.7565e-05	63.578	0.0076743	0.0090735	0.0024524	816.96	8.7615e-05	0.00010124	966.6	248.76	8.9954e-05	0.00010126	431.68	169.01	122.13	48.325	9.4856e-05	87.669	81.162	125.931	338.037	24.915	274.638	174.601	25.271	30.612	169.134	212.340	29.695	34.884	35.817	39.749	17.604	38.442	-8191	255	
8237.708	1	1	0	0	0.17403	0.10578	0.17137	0.13942	0.24097	0.15365	0.13226	0.23534	0.23639	0.37123	0.25452	0.14728	0.11992	0.14401	0.12899	0.32526	-0.5125	0.20833	0.033333	-0.66458	0.23958	-0.48542	-0.7	0.0875	-0.65625	-0.225	-0.16875	-0.79167	0.1375	-0.48542	-0.40417	0.20833	342.775	271.285	17.679	355.019	300.467	246.608	284.418	264.958	182.126	306.858	357.718	32.127	271.042	57.284	84.250	256.665	0.0013971	0.0012456	0.0004235	489.19	3.711e-05	1.2883e-05	617.59	160.55	2.893e-05	1.221e-05	277.91	114.88	61.089	30.213	5.8965e-06	64.822	0.0080338	0.0093201	0.0023785	815.47	9.258e-05	0.00010334	964.05	248.69	9.5675e-05	0.00010271	431.61	169.41	127.11	48.627	9.3164e-05	88.587	94.661	89.256	50.524	25.363	187.336	153.316	25.092	30.496	172.574	201.484	30.072	34.749	36.587	39.675	78.618	38.787	-8191	255	
8237.806	1	1	0	0	0.066324	0.11021	0.20646	0.042978	0.1604	0.21183	0.26472	0.19457	0.053608	0.10711	0.25014	0.28289	0.10506	0.072034	0.01892	0.28602	-0.16042	-0.097917	-0.020833	-0.53958	0.3	-0.21042	-0.57917	0.10625	-0.64792	-0.28125	0.083333	-0.79792	0.027083	-0.33125	-0.5625	0.15	168.593	324.831	280.586	222.315	237.314	219.537	141.102	349.180	48.385	204.798	341.498	362.459	248.068	312.327	366.906	15.373	0.0012786	0.0022919	0.00022707	491.4	3.0917e-05	2.1973e-05	618.61	162.68	1.596e-05	1.8793e-05	283.13	116.84	61.314	30.831	9.4217e-06	64.946	0.008461	0.0092468	0.0023422	816.45	9.8113e-05	0.00010008	966.08	252.05	0.00010084	0.00010062	434.05	172.24	132.04	48.758	9.1606e-05	89.532	80.059	12.884	77.506	24.795	200.836	29.531	25.180	30.822	211.622	19.153	30.129	35.176	36.145	39.791	278.950	38.809	-8191	255	
8237.925	1	1	0	0	0.32547	0.20161	0.092547	0.088152	0.075906	0.092012	0.19472	0.14783	0.097689	0.15003	0.20917	0.064017	0.12946	0.336	0.28583	0.38534	-0.1	-0.37292	0.19375	-0.77292	0.14167	-0.17292	-0.825	0.27917	-0.60417	-0.13542	0.085417	-0.87083	0.066667	-0.11875	-0.65417	0	269.389	48.411	71.992	129.827	264.189	217.967	237.780	42.919	226.183	192.692	240.444	209.641	312.384	25.242	358.428	370.394	0.001021	0.0027659	0.00010082	493.57	6.9432e-06	1.736e-05	615.65	161.71	9.0216e-06	1.8066e-05	277.53	114.94	60.821	30.247	7.2571e-06	63.877	0.0087438	0.0089239	0.0022919	825.77	0.00010195	9.7052e-05	957.5	254.34	0.00010317	9.7891e-05	426.95	172.48	133.12	47.789	9.0956e-05	89.382	69.617	20.701	367.400	25.504	125.418	73.107	25.281	30.534	104.062	47.482	30.029	35.557	35.850	39.765	220.352	39.010	-8191	255	
8238.021	1	1	0	0	0.17734	0.063813	0.12198	0.16855	0.27102	0.076853	0.10596	0.19297	0.20446	0.29018	0.08185	0.39282	0.19436	0.11429	0.1755	0.32266	-0.17083	-0.51667	0.28542	-0.63542	0.010417	-0.10208	-0.725	0.035417	-0.13958	-0.20208	0.033333	-0.91875	-0.15833	-0.095833	-0.81042	-0.016667	24.870	61.202	105.890	364.800	282.232	336.407	307.948	238.640	232.339	342.031	307.571	56.171	119.059	344.615	297.596	331.685	0.00090687	0.0021591	0.00025684	490.32	2.6331e-06	9.7489e-06	614.52	161	2.0407e-05	1.2132e-05	276.05	114.38	59.867	30.247	8.4474e-06	63.864	0.0089167	0.0087472	0.0022668	838.46	0.00010234	9.4367e-05	950.65	258.4	0.0001019	9.5552e-05	423.56	174.57	131.71	47.493	9.1486e-05	90.824	73.913	275.174	201.537	25.249	127.870	118.804	25.272	30.668	14.908	82.928	29.973	35.195	35.256	39.701	173.745	38.568	-8191	255	
8238.093	1	1	0	0	0.22114	0.31173	0.12439	0.3244	0.080332	0.12898	0.20934	0.034507	0.10164	0.11724	0.2405	0.1681	0.076293	0.3223	0.12565	0.13202	0.10417	-0.4625	0.1125	-0.73542	-0.28958	0.09375	-0.83958	-0.077083	-0.425	-0.66875	0.13125	-0.78125	-0.20417	0.089583	-0.82917	-0.29792	198.339	255.057	44.944	99.002	217.890	123.213	241.687	275.119	344.147	61.403	35.326	260.846	18.158	353.951	310.654	34.123	0.00098841	0.0011502	0.00037433	491	1.2575e-05	5.981e-06	617.3	162.72	1.11e-05	7.0546e-06	277.66	115.74	61.59	30.6	2.8872e-05	64.899	0.0087935	0.0087681	0.0023125	866.81	0.00010148	9.4355e-05	961.23	265.8	0.00010003	9.4893e-05	429.93	178.41	131.04	47.625	9.341e-05	92.671	85.145	338.308	128.765	25.126	89.542	236.365	25.735	30.984	369.173	314.549	30.084	35.307	35.367	39.732	225.474	38.742	-8191	255	
8238.189	1	1	0	0	0.2745	0.1074	0.15676	0.22335	0.11326	0.27727	0.10991	0.14689	0.024872	0.13308	0.13558	0.28366	0.045739	0.4153	0.066402	0.32965	0.072917	-0.575	0.19792	-0.43125	-0.20625	0.125	-0.94167	-0.17083	0.0375	-0.65417	0.010417	-0.47917	-0.51458	0.26458	-0.62083	-0.325	262.364	347.293	63.760	42.059	51.299	73.866	14.961	366.088	25.187	28.331	218.348	340.979	173.242	304.788	328.524	347.773	0.00037539	0.0013443	0.00064699	500.16	8.4069e-06	1.0497e-05	623.33	165.34	1.1892e-05	1.4133e-05	283.93	118.09	62.18	31.24	2.7092e-05	65.484	0.0084416	0.008496	0.0023612	878.48	9.7271e-05	9.1294e-05	979.63	269.24	9.5377e-05	9.2525e-05	440.75	180	128.97	47.741	9.6564e-05	92.853	99.762	296.577	138.000	24.834	354.843	328.427	25.347	30.583	27.725	57.993	30.334	35.044	35.363	39.654	206.785	38.518	-8191	255	
8238.309	1	1	0	0	0.25272	0.19836	0.030955	0.25818	0.074463	0.31083	0.24051	0.15481	0.24856	0.21031	0.19614	0.17885	0.2391	0.32759	0.27913	0.080603	0.21458	-0.7875	0.11667	-0.40208	-0.48958	0.24583	-0.72083	-0.28333	0.24583	-0.70417	0.13542	-0.30417	-0.62083	0.13125	-0.71667	-0.45833	162.664	313.444	43.790	289.125	181.260	15.029	366.205	244.321	310.552	113.447	15.181	272.779	314.183	13.552	169.598	366.155	0.00018006	0.0014145	0.00069026	498.2	1.3028e-05	1.2465e-06	620.17	163.11	4.9895e-06	1.5249e-05	280.89	115	61.341	31.036	1.0597e-05	64.269	0.0080861	0.0082314	0.0024661	864.95	9.3823e-05	8.9279e-05	987.86	264.59	9.2367e-05	9.0516e-05	442.76	175.76	126.64	47.267	0.00010068	90.83	85.508	58.934	102.820	24.758	371.752	212.621	25.631	30.414	321.906	137.188	30.213	34.886	35.164	39.414	160.441	38.226	-8191	255	
8238.406	1	1	0	0	0.23925	0.152	0.083942	0.10354	0.046433	0.0742	0.31229	0.23717	0.21113	0.11292	0.43852	0.31434	0.13271	0.16261	0.07091	0.1478	0.4	-0.86875	0.20208	-0.079167	-0.63333	0.060417	-0.69375	-0.43333	0.22917	-0.67708	-0.11667	-0.25417	-0.62292	0.29583	-0.52708	-0.48958	299.971	319.949	312.768	285.509	367.148	355.806	305.958	370.480	130.577	263.674	326.031	323.078	230.163	253.442	292.059	347.368	0.00095	0.0017311	0.00059856	488.73	1.3287e-05	2.3831e-05	617.76	162.35	1.062e-05	1.9852e-05	278.31	115.58	61.343	30.989	1.2847e-05	64.193	0.0078958	0.0082806	0.0025754	846.98	9.1754e-05	9.0285e-05	993.99	260.1	9.0323e-05	9.3077e-05	445.97	173.79	125.68	47.953	0.00010438	90.412	72.335	164.122	149.041	25.200	343.418	186.017	25.303	30.487	109.887	195.171	30.171	34.840	35.350	39.781	111.602	38.532	-8191	255	
8238.502	1	1	0	0	0.1558	0.0835	0.10813	0.1715	0.22828	0.1948	0.1969	0.031166	0.14137	0.23057	0.15794	0.23348	0.19632	0.08813	0.15247	0.13296	0.67292	-0.78333	0.10417	-0.04375	-0.65417	0.23542	-0.51458	-0.52917	0.175	-0.57083	-0.21875	-0.035417	-0.64375	0.0125	-0.475	-0.71458	147.561	258.633	229.518	250.263	277.441	87.396	78.570	338.609	121.174	306.681	38.747	342.072	282.993	87.838	280.118	359.864	0.00052625	0.0018108	0.00033622	493.91	7.1904e-07	2.7959e-05	622.44	162.69	2.1516e-05	2.1282e-05	279.31	116.02	62.453	31.284	1.0168e-05	65.14	0.0078621	0.0088548	0.0026882	848.94	9.3501e-05	9.8672e-05	1016.5	262.68	9.2825e-05	0.00010313	455.91	175.56	128.61	49.939	0.00010834	91.938	84.484	111.987	84.423	24.740	286.593	227.290	25.471	30.529	310.927	220.091	29.583	34.913	35.739	39.669	111.853	38.498	-8191	255	
8238.598	1	1	0	0	0.18213	0.11615	0.23325	0.10049	0.21379	0.29663	0.076122	0.010519	0.21392	0.17165	0.14831	0.13007	0.11441	0.17569	0.077351	0.31882	0.55208	-0.625	-0.15208	-0.00625	-0.87917	0.17708	-0.32292	-0.53333	0.425	-0.62083	-0.36667	-0.010417	-0.75417	-0.0020833	-0.26458	-0.69167	344.805	132.600	199.701	128.269	247.793	97.290	211.235	98.620	299.708	17.541	340.638	36.075	63.510	47.676	150.800	342.151	0.00092105	0.0023894	0.0005246	503.91	3.8599e-06	2.5127e-05	630.3	166.41	1.5908e-05	1.5644e-05	284.6	116.72	62.808	31.409	1.2896e-05	64.821	0.0081498	0.0097903	0.0027438	859.46	9.5802e-05	0.00010647	1018.8	265.01	9.3257e-05	0.00010915	454.83	175.31	130.07	51.026	0.00010426	91.414	76.292	189.346	317.104	24.881	91.308	208.753	25.466	30.010	153.597	179.503	29.565	35.084	35.340	39.708	59.779	38.675	-8191	255	
8238.692	1	1	0	0	0.24529	0.17045	0.1216	0.2888	0.19601	0.12196	0.24262	0.13492	0.15368	0.40313	0.074634	0.10307	0.11126	0.19548	0.23981	0.072503	0.5875	-0.68125	-0.40208	-0.054167	-0.70833	0.0625	-0.30833	-0.71875	0.225	-0.61667	-0.43125	0.066667	-0.75625	-0.022917	-0.060417	-0.77708	143.474	158.890	290.757	299.404	176.402	224.902	262.581	189.353	98.320	14.034	81.187	268.215	97.277	322.934	31.870	280.859	0.0011806	0.0014274	0.00030768	497.93	2.6038e-05	1.246e-05	622.78	165.05	2.8543e-05	8.227e-06	278.09	115.25	62.14	31.109	6.9434e-06	63.891	0.0083054	0.010164	0.0026683	850.92	9.9458e-05	0.00011119	1001.3	262.25	9.7653e-05	0.00011135	444.56	172.11	131.55	50.566	9.8778e-05	89.564	87.683	127.762	334.589	24.639	189.188	137.522	25.094	30.392	202.304	113.014	29.890	34.899	36.026	39.763	326.576	38.557	-8191	255	
8238.788	1	1	0	0	0.41259	0.061222	0.080101	0.059021	0.37123	0.11925	0.28056	0.043707	0.072515	0.27372	0.26264	0.12196	0.063668	0.14267	0.036039	0.17649	0.48958	-0.39167	-0.39167	0.06875	-0.6625	-0.12292	-0.225	-0.80417	0.3125	-0.42083	-0.72292	0.04375	-0.84167	-0.11875	0.12292	-0.92083	42.650	186.675	364.792	325.123	108.624	347.287	287.131	104.626	123.553	292.787	278.409	367.390	108.327	63.515	236.751	237.683	0.0013355	0.00052465	0.00028764	494.97	1.4619e-05	7.2048e-06	618.6	164.21	3.1661e-05	1.4678e-05	277.07	115.09	62.354	31.11	7.1096e-06	64.466	0.0085733	0.0099208	0.0025268	834.3	0.00010243	0.00010789	981.69	258.75	0.00010175	0.00010721	438.71	171.06	134.85	50.239	9.55e-05	89.89	92.916	317.190	342.343	24.934	182.501	136.050	25.106	30.821	181.769	44.321	29.772	34.927	36.460	39.461	255.747	38.576	-8191	255	
8238.886	1	1	0	0	0.18623	0.35316	0.08647	0.11774	0.22	0.22723	0.33271	0.20363	0.26335	0.038094	0.12685	0.34858	0.093154	0.052687	0.21873	0.19424	0.48542	-0.36875	-0.74167	0.15	-0.73542	-0.38333	-0.025	-0.86875	-0.039583	-0.31458	-0.60625	0.2875	-0.4875	-0.40417	0.03125	-0.94792	290.046	190.703	222.926	325.274	289.577	46.367	357.821	364.443	185.066	241.355	323.655	304.434	364.316	171.159	340.338	230.443	0.001211	0.0021604	0.00029261	495.94	2.4046e-05	1.4525e-05	624.62	165.18	1.6945e-05	1.8192e-05	281.54	116.19	62.642	31.624	2.3227e-06	65.377	0.0089852	0.0095196	0.0024537	832.94	0.00010511	0.00010348	975.32	259.69	0.00010559	0.00010225	438.78	173.8	137.84	50.399	9.5392e-05	91.96	81.390	307.152	278.226	25.303	185.476	46.973	25.366	30.825	141.735	355.443	30.058	35.454	36.085	39.482	46.128	38.669	-8191	255	
8239.005	1	1	0	0	0.15034	0.36721	0.22474	0.37085	0.14514	0.088153	0.11748	0.088869	0.030061	0.17421	0.24683	0.11818	0.2698	0.14644	0.14219	0.15933	0.46042	-0.11458	-0.61875	0.029167	-0.49167	-0.3875	0.18958	-0.79792	-0.097917	-0.11458	-0.84583	-0.014583	-0.58125	-0.52708	0.020833	-0.72917	361.367	354.027	165.092	51.632	335.166	231.277	142.577	182.919	152.488	170.299	363.280	315.073	343.323	141.422	341.311	354.641	0.0010818	0.0021222	0.00046525	505.67	8.9442e-06	2.4809e-06	631.84	167.92	9.1632e-06	1.4171e-05	283.04	117.26	62.747	31.669	1.7475e-05	65.028	0.0094817	0.00937	0.0024778	866.7	0.00011082	0.00010338	984.88	268.84	0.00011004	0.00010183	442.02	178.62	139.41	50.383	9.5638e-05	93.406	90.994	352.259	333.412	25.170	154.224	106.672	25.359	31.137	251.266	30.675	30.047	35.480	35.740	39.784	110.424	39.029	-8191	255	
8239.101	1	1	0	0	0.19353	0.084047	0.091893	0.23276	0.27749	0.13206	0.10566	0.35097	0.18349	0.22307	0.33585	0.16757	0.20264	0.11119	0.23282	0.13633	0.23333	0.079167	-0.91875	0.24792	-0.32708	-0.29375	0.1375	-0.7375	-0.15208	-0.08125	-0.9875	0.09375	-0.14167	-0.75833	0.15625	-0.66042	170.710	352.844	109.309	39.577	341.721	366.471	66.584	325.748	365.062	308.832	13.126	352.068	180.745	300.437	31.882	361.889	0.00064782	0.0018051	0.00016138	506.08	2.207e-05	5.2989e-06	624.59	166.81	2.6257e-05	2.0311e-05	278.24	114.98	61.701	31.151	5.7491e-06	64.029	0.0095973	0.0092728	0.0024739	888.18	0.00010922	0.00010264	980.11	273.92	0.00010951	0.00010085	438.85	180.15	136.9	49.55	9.6083e-05	93.286	64.794	18.167	359.791	25.115	22.768	102.765	25.344	30.797	70.937	19.207	30.116	35.276	35.093	39.855	214.020	38.902	-8191	255	
8239.198	1	1	0	0	0.051013	0.24128	0.11207	0.06982	0.10624	0.16829	0.11243	0.19879	0.2764	0.062666	0.35182	0.26623	0.028772	0.10686	0.14153	0.2047	0.18333	0.11042	-0.73542	-0.11042	-0.225	-0.63333	0.12083	-0.76458	-0.32917	0.13958	-0.67917	-0.020833	-0.36458	-0.77917	0.30417	-0.60208	96.747	74.755	49.821	292.856	197.307	49.052	77.068	45.869	319.705	192.533	357.637	34.679	328.382	348.679	69.044	268.315	0.00066583	0.0010608	0.00033634	497.57	1.4814e-05	7.3323e-06	619.13	165.23	2.327e-05	1.3872e-05	278.87	115.78	62.546	31.485	1.4411e-05	64.709	0.0092488	0.0090519	0.0024996	899.94	0.00010517	0.00010035	982.81	276.32	0.00010558	9.8494e-05	442.42	181.63	134.42	49.375	9.979e-05	93.944	98.290	310.442	185.018	25.058	42.965	46.828	25.594	30.537	67.211	48.158	30.257	35.180	34.891	39.744	189.978	38.812	-8191	255	
8239.294	1	1	0	0	0.1819	0.39873	0.17175	0.11183	0.28996	0.034833	0.022181	0.37607	0.20239	0.33962	0.13577	0.25248	0.19526	0.11417	0.31534	0.070517	-0.1375	0.24375	-0.5875	-0.12083	-0.079167	-0.70208	-0.014583	-0.62917	-0.42917	0.2125	-0.71458	-0.21458	-0.072917	-0.83125	0.24583	-0.41875	371.255	93.051	261.051	59.249	206.872	223.339	246.709	347.162	341.058	90.295	366.299	147.123	56.713	246.834	226.239	63.270	0.00065535	0.0019889	0.0006331	506.06	7.8394e-06	1.1959e-05	625.07	166.99	1.0725e-05	2.161e-06	282.48	116.5	63.394	31.884	3.0042e-05	65.784	0.0088751	0.0087943	0.0025902	906.05	0.00010074	9.7259e-05	1002.1	275.51	0.00010033	9.5581e-05	451.37	181.07	131.84	49.365	0.00010376	94.212	127.326	48.722	154.211	25.102	28.451	366.228	25.863	30.635	65.592	80.412	30.449	35.017	35.315	40.020	189.296	38.471	-8191	255	
8239.390	1	1	0	0	0.21457	0.3895	0.12122	0.27217	0.23669	0.097927	0.23462	0.14612	0.086151	0.24107	0.29968	0.4178	0.04553	0.17551	0.1353	0.35269	-0.24167	0.17083	-0.6875	-0.275	0.0083333	-0.64375	0.029167	-0.26875	-0.60833	0.21667	-0.7875	-0.44167	0.19167	-0.78542	0.10833	-0.29167	43.466	348.099	110.495	302.831	291.864	141.296	284.015	261.495	119.543	44.975	362.853	30.462	333.606	366.882	164.150	327.828	0.00040689	0.0018524	0.00036938	506.23	1.8825e-05	7.9437e-06	630.65	169.1	9.9319e-06	5.3366e-06	283.58	116.57	62.662	31.729	1.0477e-05	65.402	0.0085451	0.008523	0.0026797	891.82	9.6433e-05	9.5557e-05	1022.5	272.92	9.7872e-05	9.4763e-05	458.65	179.67	130.47	49.623	0.00010824	92.847	104.528	152.733	137.127	24.529	86.594	131.428	25.392	30.635	365.021	106.446	30.230	34.673	35.663	39.916	214.569	38.466	-8191	255	
8239.486	1	1	0	0	0.18117	0.36185	0.10815	0.11105	0.12949	0.14614	0.21472	0.37514	0.18702	0.27608	0.14605	0.090638	0.061028	0.3196	0.18469	0.42927	-0.10833	0.225	-0.45625	-0.26458	0.097917	-0.61667	-0.24167	-0.20417	-0.75208	0.01875	-0.4875	-0.45	-0.14583	-0.87083	-0.2625	-0.27917	39.099	144.074	59.529	308.618	345.781	93.421	353.742	296.861	241.557	262.523	319.783	33.115	282.950	324.706	31.183	290.981	0.00061397	0.0014066	0.00047067	506.07	1.1984e-05	1.2545e-05	621.8	167.24	1.0074e-05	1.5686e-05	278.66	114.64	62.396	31.481	9.9086e-06	64.251	0.0083584	0.0087745	0.0027621	874.45	9.4185e-05	9.7777e-05	1018.5	266.14	9.4571e-05	9.7844e-05	453.6	174.69	127.01	49.591	0.00010656	90.668	81.144	160.494	131.028	25.216	371.046	192.298	25.186	30.560	271.317	235.304	29.936	34.882	35.288	40.318	53.507	38.826	-8191	255	
8239.607	1	1	0	0	0.19678	0.1105	0.19597	0.20164	0.10638	0.13611	0.19735	0.27462	0.033092	0.18369	0.083914	0.21577	0.060193	0.47352	0.22831	0.27715	-0.35833	0.06875	-0.40625	-0.58542	0.16667	-0.725	-0.35625	-0.12917	-0.65	-0.010417	-0.6125	-0.72708	0.085417	-0.62708	-0.27917	-0.075	363.994	369.898	90.479	59.587	311.844	200.238	344.210	335.874	306.561	51.225	58.727	120.632	122.389	26.255	119.268	285.137	0.0010135	0.0044426	0.00020677	498.45	1.4998e-05	2.5521e-05	620.59	165.84	2.0929e-05	2.8468e-05	279.25	115.63	62.172	31.717	5.09e-07	65.094	0.0081156	0.0090994	0.0027089	858.1	9.1657e-05	0.00010248	1012.3	262.65	9.3381e-05	0.00010356	450.15	174.26	126.8	50.643	0.00010413	90.578	77.624	138.449	73.774	24.778	65.239	208.994	25.399	30.473	288.062	210.658	29.926	34.794	35.502	40.163	166.335	38.578	-8191	255	
8239.703	1	1	0	0	0.31972	0.031378	0.13012	0.13576	0.24228	0.2054	0.14567	0.11649	0.28986	0.16559	0.19529	0.16227	0.15575	0.21211	0.2505	0.16798	-0.22917	0.26458	-0.2	-0.66458	0.37708	-0.54583	-0.48125	0.1	-0.78333	-0.08125	-0.30625	-0.67083	0.25625	-0.55417	-0.33125	0.13125	106.897	268.172	351.371	25.993	27.710	292.764	328.459	127.843	331.947	119.627	255.739	351.596	298.520	365.658	105.040	98.901	0.00099335	0.0019844	0.00030626	503.85	3.3964e-06	2.4518e-05	627.31	166.84	7.9734e-06	1.7116e-05	281.55	116.52	63.314	32.153	1.2049e-05	65.108	0.008139	0.0096094	0.0026285	855.54	9.2651e-05	0.0001074	1006	262.38	9.4933e-05	0.00010747	446.55	174.2	128.68	51.42	9.9748e-05	90.736	59.425	195.338	347.271	25.100	159.086	195.123	25.345	30.849	246.482	174.132	29.723	35.016	35.820	40.059	60.029	38.712	-8191	255	
8239.797	1	1	0	0	0.13766	0.15491	0.12583	0.18706	0.1742	0.086718	0.28955	0.073586	0.17433	0.1072	0.047641	0.23984	0.19944	0.13238	0.16751	0.29746	-0.4875	0.0125	-0.25833	-0.95208	0.27292	-0.56042	-0.47917	0.060417	-0.74375	-0.09375	-0.11458	-1.0812	0.1875	-0.63125	-0.43958	-0.027083	297.160	46.981	146.624	284.853	153.556	149.804	44.911	240.853	360.185	349.317	348.335	353.446	215.639	302.120	68.585	330.461	0.0017874	0.00088753	0.00047221	507.05	3.2508e-05	6.8601e-06	632.52	168.56	1.9166e-05	1.098e-05	282.95	115.63	62.322	31.429	1.0408e-06	64.623	0.0083685	0.0098293	0.0025237	854.85	9.6886e-05	0.00010912	1000	261.4	0.00010061	0.00010842	442.42	173.23	132.06	51.076	9.8043e-05	89.419	91.403	101.114	26.387	24.636	167.496	244.031	25.210	30.606	177.567	58.768	30.333	35.017	36.247	39.760	310.656	38.716	-8191	255	
8239.893	1	1	0	0	0.23228	0.06151	0.19421	0.3151	0.094108	0.099807	0.22355	0.19999	0.358	0.095576	0.24692	0.20209	0.22233	0.19843	0.1396	0.20321	-0.26667	-0.22292	0.064583	-0.73125	0.14167	-0.34583	-0.62917	0.11458	-0.56458	-0.21667	-0.37708	-1.1354	0.15625	-0.48125	-0.71875	0.00625	118.623	256.250	95.161	352.577	53.288	339.501	271.174	27.716	17.644	210.664	136.036	69.248	138.690	134.143	194.382	240.903	0.0014638	0.0022803	7.436e-05	506.15	2.0317e-05	1.8312e-05	619.34	165.8	2.1406e-05	1.0486e-05	277.48	114.45	62.455	31.173	7.7709e-06	63.448	0.0088462	0.0096664	0.0024399	843.47	0.00010167	0.00010478	979.58	257.7	0.00010491	0.00010516	434.65	172.03	135.97	50.243	9.8502e-05	89.047	98.597	274.611	203.032	25.155	198.049	37.615	25.277	30.797	197.898	37.988	30.266	35.066	35.823	39.608	246.903	38.728	-8191	255	
8239.989	1	1	0	0	0.029166	0.26749	0.17866	0.071091	0.043096	0.091795	0.28939	0.26531	0.21027	0.071623	0.16648	0.24853	0.062391	0.11745	0.23908	0.34461	-0.25625	-0.325	0.17917	-0.73333	-0.04375	-0.33125	-0.72292	0.10833	-0.64792	-0.31875	0.0375	-0.71875	0.1375	-0.1875	-0.83333	0	231.806	142.190	276.277	303.463	215.264	134.003	13.331	336.097	353.328	361.724	244.028	34.138	101.510	296.462	98.621	348.284	0.0011063	0.003189	0.0005173	502.82	2.5209e-05	1.1712e-05	621.94	165.08	1.1905e-05	1.1647e-05	277.64	114.81	61.743	31.164	6.3721e-06	63.996	0.0094824	0.0096544	0.0024529	861.83	0.00010942	0.00010416	982.73	262.9	0.00010951	0.00010318	434.02	174.05	138.08	49.568	9.6207e-05	90.375	83.498	25.260	354.568	25.510	226.797	42.778	25.095	30.897	332.013	54.264	30.087	35.422	36.052	39.973	317.883	38.841	-8191	255	
#DATA ENDS
