BOXY.EXE: ISS Imagent and Oximeter Data Acquisition Program Version 0.80
Ascii Record File

#ACQ INFORMATION
2  Detector Channels 
16  External MUX Channels 
1  Auxiliary Channels 
5000  Waveform (CCF) Frequency (Hz)
1  Waveforms Skipped 
30  Waveforms Averaged 
1  Cycles Averaged 
16  Acquisitions per Waveform 
10.0806  Updata Rate (Hz) 

#FILE INFORMATION
TRUE -- External MUX Channel results are PARSED.
FALSE -- AC DC and Phase are NOT grouped.
TRUE -- Companion Program Settings File CREATED.
FALSE -- AC data not excluded
FALSE -- DC data not excluded
FALSE -- Phase data not excluded
FALSE -- Auxillary Chn. data not excluded
Tab delimiters

#CALIBRATION STATE
TRUE -- Waveform Calibration Values APPLIED.


#AUX CALIBRATION VALUES
Val Type	aux-1	

Term	1.0000e+00	
Factor	0.0000e+00	


#WF CALIBRATION VALUES
A = Detector Channel
Val Type	A-AC1	A-AC2	A-AC3	A-AC4	A-AC5	A-AC6	A-AC7	A-AC8	A-AC9	A-AC10	A-AC11	A-AC12	A-AC13	A-AC14	A-AC15	A-AC16	A-DC1	A-DC2	A-DC3	A-DC4	A-DC5	A-DC6	A-DC7	A-DC8	A-DC9	A-DC10	A-DC11	A-DC12	A-DC13	A-DC14	A-DC15	A-DC16	A-Ph1	A-Ph2	A-Ph3	A-Ph4	A-Ph5	A-Ph6	A-Ph7	A-Ph8	A-Ph9	A-Ph10	A-Ph11	A-Ph12	A-Ph13	A-Ph14	A-Ph15	A-Ph16	

Term	0.00000e+00	0.00000e+00	0.00000e+00	0.00000e+00	0.00000e+00	0.00000e+00	0.00000e+00	0.00000e+00	0.00000e+00	0.00000e+00	0.00000e+00	0.00000e+00	0.00000e+00	0.00000e+00	0.00000e+00	0.00000e+00	0.00000e+00	0.00000e+00	0.00000e+00	0.00000e+00	0.00000e+00	0.00000e+00	0.00000e+00	0.00000e+00	0.00000e+00	0.00000e+00	0.00000e+00	0.00000e+00	0.00000e+00	0.00000e+00	0.00000e+00	0.00000e+00	0.00000e+00	0.00000e+00	0.00000e+00	0.00000e+00	0.00000e+00	0.00000e+00	0.00000e+00	0.00000e+00	0.00000e+00	0.00000e+00	0.00000e+00	0.00000e+00	0.00000e+00	0.00000e+00	0.00000e+00	0.00000e+00	
Factor	1.00000e+00	1.00000e+00	1.00000e+00	1.00000e+00	1.00000e+00	1.00000e+00	1.00000e+00	1.00000e+00	1.00000e+00	1.00000e+00	1.00000e+00	1.00000e+00	1.00000e+00	1.00000e+00	1.00000e+00	1.00000e+00	1.00000e+00	1.00000e+00	1.00000e+00	1.00000e+00	1.00000e+00	1.00000e+00	1.00000e+00	1.00000e+00	1.00000e+00	1.00000e+00	1.00000e+00	1.00000e+00	1.00000e+00	1.00000e+00	1.00000e+00	1.00000e+00	X	X	X	X	X	X	X	X	X	X	X	X	X	X	X	X	

B = Detector Channel
Val Type	B-AC1	B-AC2	B-AC3	B-AC4	B-AC5	B-AC6	B-AC7	B-AC8	B-AC9	B-AC10	B-AC11	B-AC12	B-AC13	B-AC14	B-AC15	B-AC16	B-DC1	B-DC2	B-DC3	B-DC4	B-DC5	B-DC6	B-DC7	B-DC8	B-DC9	B-DC10	B-DC11	B-DC12	B-DC13	B-DC14	B-DC15	B-DC16	B-Ph1	B-Ph2	B-Ph3	B-Ph4	B-Ph5	B-Ph6	B-Ph7	B-Ph8	B-Ph9	B-Ph10	B-Ph11	B-Ph12	B-Ph13	B-Ph14	B-Ph15	B-Ph16	

Term	0.00000e+00	0.00000e+00	0.00000e+00	0.00000e+00	0.00000e+00	0.00000e+00	0.00000e+00	0.00000e+00	0.00000e+00	0.00000e+00	0.00000e+00	0.00000e+00	0.00000e+00	0.00000e+00	0.00000e+00	0.00000e+00	0.00000e+00	0.00000e+00	0.00000e+00	0.00000e+00	0.00000e+00	0.00000e+00	0.00000e+00	0.00000e+00	0.00000e+00	0.00000e+00	0.00000e+00	0.00000e+00	0.00000e+00	0.00000e+00	0.00000e+00	0.00000e+00	-1.12232e+02	-1.31493e+02	-1.26301e+02	-1.82925e+02	-6.61961e+01	-6.93729e+01	-1.56697e+02	-1.62015e+02	-6.64507e+01	-6.47760e+01	-1.69789e+02	-1.71884e+02	-1.87016e+02	-1.77077e+02	-6.21522e+01	-1.49516e+02	
Factor	1.55884e-05	1.50606e-04	4.28834e-05	2.77585e-01	1.30341e-06	1.75495e-06	1.60847e-01	4.74421e-02	1.05426e-06	1.60286e-06	8.23926e-02	2.73325e-02	3.04750e-02	8.53322e-03	1.33339e-06	1.20591e-02	1.05579e-05	1.86671e-05	5.21731e-06	1.46876e-01	1.94660e-07	2.09585e-07	8.03013e-02	2.53644e-02	1.85624e-07	2.07253e-07	4.25778e-02	1.42240e-02	1.63516e-02	4.59333e-03	1.96714e-07	6.29039e-03	X	X	X	X	X	X	X	X	X	X	X	X	X	X	X	X	



#DISTANCE SETTINGS
A = Detector Channel
A-1	A-2	A-3	A-4	A-5	A-6	A-7	A-8	A-9	A-10	A-11	A-12	A-13	A-14	A-15	A-16	

2.5000e+00	3.0000e+00	2.5000e+00	3.0000e+00	2.0000e+00	3.0000e+00	1.5000e+00	3.0000e+00	3.0000e+00	3.0000e+00	3.0000e+00	3.0000e+00	3.0000e+00	3.0000e+00	1.5000e+00	3.0000e+00	

B = Detector Channel
B-1	B-2	B-3	B-4	B-5	B-6	B-7	B-8	B-9	B-10	B-11	B-12	B-13	B-14	B-15	B-16	

1.0000e+01	1.0000e+01	1.0000e+01	1.4400e+00	1.0000e+01	1.0000e+01	1.5100e+00	1.9400e+00	1.0000e+01	1.0000e+01	1.9900e+00	2.4900e+00	2.4100e+00	2.9000e+00	1.0000e+01	2.9800e+00	




#DATA BEGINS
time	group	step	mark	flag	A-AC1	A-AC2	A-AC3	A-AC4	A-AC5	A-AC6	A-AC7	A-AC8	A-AC9	A-AC10	A-AC11	A-AC12	A-AC13	A-AC14	A-AC15	A-AC16	A-DC1	A-DC2	A-DC3	A-DC4	A-DC5	A-DC6	A-DC7	A-DC8	A-DC9	A-DC10	A-DC11	A-DC12	A-DC13	A-DC14	A-DC15	A-DC16	A-Ph1	A-Ph2	A-Ph3	A-Ph4	A-Ph5	A-Ph6	A-Ph7	A-Ph8	A-Ph9	A-Ph10	A-Ph11	A-Ph12	A-Ph13	A-Ph14	A-Ph15	A-Ph16	B-AC1	B-AC2	B-AC3	B-AC4	B-AC5	B-AC6	B-AC7	B-AC8	B-AC9	B-AC10	B-AC11	B-AC12	B-AC13	B-AC14	B-AC15	B-AC16	B-DC1	B-DC2	B-DC3	B-DC4	B-DC5	B-DC6	B-DC7	B-DC8	B-DC9	B-DC10	B-DC11	B-DC12	B-DC13	B-DC14	B-DC15	B-DC16	B-Ph1	B-Ph2	B-Ph3	B-Ph4	B-Ph5	B-Ph6	B-Ph7	B-Ph8	B-Ph9	B-Ph10	B-Ph11	B-Ph12	B-Ph13	B-Ph14	B-Ph15	B-Ph16	aux-1	digaux	

930.329	1	1	0	256	0.025372	0.19602	0.16069	0.14479	0.23971	0.1628	0.077477	0.1666	0.18698	0.2391	0.16983	0.11048	0.13283	0.29552	0.33574	0.098433	0.975	0.15208	0.058333	0.73125	-0.14167	0.46875	0.44792	-0.085417	0.6625	0.26458	-0.11458	0.8	0.01875	0.28333	0.62708	-0.060417	290.094	126.859	-8.172	219.907	298.904	321.834	141.357	308.611	37.587	9.727	177.880	39.115	107.622	292.608	143.857	259.208	8.2872e-05	0.00033589	8.3937e-05	440.23	2.1036e-06	3.4143e-06	406.52	162.78	1.967e-06	1.214e-06	172.26	63.574	61.409	24.989	1.823e-06	23.914	0.00044675	0.0006612	0.00017849	432.85	6.9149e-06	7.3185e-06	398.72	160.25	6.3862e-06	6.8216e-06	168.14	63.006	61.102	24.78	6.6071e-06	23.693	152.464	16.832	68.426	-18.672	86.318	106.974	-20.343	-13.777	129.046	96.326	-16.481	-12.938	-9.545	-5.618	222.923	-8.938	-8191	255	
930.423	1	1	0	0	0.11812	0.24549	0.25251	0.14184	0.16361	0.21146	0.080512	0.031713	0.073915	0.30237	0.17025	0.14494	0.10649	0.19844	0.12856	0.23645	0.9875	0.29583	0.00625	0.73542	-0.12292	0.32292	0.45208	-0.39792	0.42917	0.40208	-0.28125	0.72917	0.06875	0.00625	0.67292	-0.22708	192.502	206.985	270.418	25.577	103.697	220.735	137.741	217.551	114.337	259.956	-24.017	240.761	57.351	96.579	61.801	150.629	0.00010084	0.00040527	4.48e-05	436.78	1.4842e-06	4.0116e-06	406.39	161.5	1.7733e-06	2.5419e-06	172.75	63.696	61.397	24.858	3.783e-06	24.102	0.00042432	0.00062196	0.0001677	425.9	6.5803e-06	6.7766e-06	397.04	159.94	6.4733e-06	6.9382e-06	169.01	63.298	61.155	24.702	6.769e-06	23.775	146.633	74.020	93.891	-18.812	144.466	121.325	-20.894	-13.832	94.212	119.157	-17.002	-12.847	-9.888	-5.772	152.396	-8.957	-8191	255	
930.544	1	1	0	0	0.10327	0.029997	0.029818	0.086837	0.038052	0.19135	0.070774	0.22097	0.055283	0.062088	0.112	0.35419	0.15332	0.09263	0.20429	0.011589	0.8	0.33542	-0.25208	0.50833	-0.0020833	-0.13542	0.71875	-0.18542	0.22083	0.55417	-0.15833	0.4375	0.25625	0.03125	0.57292	-0.175	291.178	116.610	14.325	300.545	101.481	217.505	279.551	94.358	142.227	219.455	21.920	247.033	272.658	60.535	34.416	-16.098	8.2994e-05	9.7756e-05	7.3999e-05	435.87	2.2549e-06	2.0415e-06	404.37	163.21	1.0697e-06	1.27e-06	172.61	64.32	60.85	24.905	2.7007e-06	24.048	0.00042067	0.00062651	0.00017279	426.92	6.6959e-06	7.208e-06	395.96	160.56	6.3831e-06	7.171e-06	168.63	63.669	60.806	24.697	6.7665e-06	23.72	139.492	-3.854	39.558	-18.922	149.790	122.385	-20.484	-13.918	271.484	152.086	-17.562	-12.795	-9.574	-5.668	160.603	-9.035	-8191	255	
930.640	1	1	0	0	0.27306	0.12002	0.083686	0.17374	0.21057	0.051459	0.17556	0.23748	0.054073	0.23896	0.19207	0.28923	0.14861	0.049884	0.094746	0.18282	0.61667	0.37708	-0.41458	0.53125	0.15417	0.11042	0.42292	-0.27917	0.2375	0.425	-0.41667	0.425	0.15833	0.0875	0.75	0.052083	1.669	217.933	40.916	-22.277	140.403	-6.311	0.182	-23.029	262.277	297.609	137.606	29.069	223.079	32.230	115.783	216.564	8.2281e-05	0.00026156	5.5554e-05	437.04	3.4563e-06	3.5618e-06	403.92	163.06	2.3368e-06	3.2392e-06	171.51	62.865	60.886	24.745	4.2329e-06	23.664	0.00044086	0.00065074	0.00017702	428.48	6.981e-06	7.5311e-06	394.71	160.26	6.8569e-06	7.3713e-06	168.03	62.678	60.825	24.536	8.014e-06	23.431	170.917	7.408	94.329	-19.039	131.582	78.353	-20.865	-13.846	120.326	114.320	-17.225	-12.801	-9.835	-5.760	117.029	-9.732	-8191	255	
930.736	1	1	0	0	0.2058	0.16845	0.2218	0.063623	0.27378	0.50294	0.10793	0.23496	0.17278	0.10358	0.079997	0.18131	0.13105	0.26708	0.12923	0.13657	0.7375	0.6875	-0.225	0.58958	0.12292	-0.2625	0.66667	0.00625	0.17083	0.54792	-0.23125	0.57292	0.52708	-0.22083	0.74375	-0.0083333	4.021	157.038	-2.911	137.156	43.527	43.033	207.160	231.151	290.395	282.153	162.267	144.771	-21.623	263.304	153.521	35.949	6.2053e-05	0.00019322	5.172e-05	436.89	1.924e-06	1.5036e-06	399.37	162	1.0361e-06	4.2722e-06	170.68	62.493	60.67	24.48	1.1732e-06	23.818	0.00045296	0.00073665	0.00020019	428.52	7.539e-06	8.2393e-06	392.67	159.12	7.5812e-06	8.259e-06	166.66	62.195	60.411	24.381	8.2673e-06	23.446	152.383	25.291	80.567	-19.344	211.471	118.781	-20.874	-13.523	45.158	127.075	-17.115	-12.730	-9.574	-5.878	58.687	-9.388	-8191	255	
930.832	1	1	0	0	0.11049	0.33465	0.20707	0.34936	0.10321	0.18843	0.15823	0.21902	0.066782	0.12941	0.0072044	0.27358	0.1853	0.18398	0.19146	0.032907	0.19375	0.66458	-0.083333	0.48125	0.46458	-0.15417	0.62292	0.11042	0.12917	0.47083	-0.19167	0.2125	0.63958	-0.20625	0.54167	0.24583	267.712	272.657	109.129	176.378	282.810	-2.420	309.152	2.386	120.045	279.901	247.309	109.720	6.511	277.209	283.456	155.408	6.1718e-05	0.00023685	8.2681e-05	430.35	1.761e-06	4.0909e-06	401.64	162.39	1.9478e-06	1.7533e-06	170.36	62.299	60.291	24.569	1.1729e-06	23.531	0.00048542	0.00077795	0.00021345	425.15	7.9373e-06	8.3454e-06	391.25	159.05	7.8051e-06	8.5716e-06	166.18	61.997	60.443	24.39	8.4825e-06	23.358	144.676	113.190	82.131	-19.372	184.298	135.927	-20.478	-13.944	141.227	228.718	-17.255	-12.875	-10.223	-5.505	53.279	-9.277	-8191	255	
930.904	1	1	0	0	0.10723	0.30536	0.18195	0.10878	0.13758	0.24994	0.14523	0.1705	0.36175	0.14365	0.0988	0.066224	0.31876	0.20043	0.072489	0.14093	0.36667	0.60208	-0.0083333	0.1875	0.49792	-0.0625	0.58542	0.23958	-0.0875	0.69792	0.01875	0.1125	0.42708	-0.10417	0.4	0.425	62.077	282.260	3.878	89.660	-7.938	148.550	275.298	219.314	264.060	256.727	264.202	196.907	294.934	-0.973	-0.196	242.989	5.8955e-05	0.00027194	4.2288e-05	434.71	2.0142e-06	4.428e-06	400.7	161.5	1.8147e-06	1.8387e-06	168.75	62.27	60.228	24.577	3.8712e-06	23.555	0.00049138	0.0008084	0.00020615	425.96	8.0695e-06	8.5515e-06	390.73	159.18	7.4969e-06	8.3169e-06	166.43	62.048	60.371	24.287	7.9612e-06	23.315	139.433	16.470	41.068	-19.072	110.182	127.308	-20.330	-13.842	139.360	84.742	-16.772	-12.784	-9.902	-5.581	121.489	-9.475	-8191	255	
931.024	1	1	0	0	0.27051	0.26694	0.14972	0.11331	0.31625	0.19956	0.14326	0.20795	0.26763	0.084591	0.07878	0.15167	0.30315	0.11997	0.21312	0.22369	0.070833	0.61458	0.014583	-0.022917	0.51667	-0.041667	0.35417	0.37708	-0.10625	0.62083	0.10417	0.17917	0.55417	-0.32708	0.62292	0.5375	108.265	269.987	85.548	6.525	-28.409	5.814	158.701	180.541	174.330	12.013	294.290	195.620	-25.477	-9.945	24.816	17.291	5.2552e-05	0.00024401	6.095e-05	430.26	1.7279e-06	2.5639e-06	396.54	160.3	2.5699e-06	3.9988e-06	167.62	62.049	60.451	24.131	4.4814e-06	23.37	0.00047515	0.0007326	0.00020386	423.21	7.6716e-06	8.0131e-06	387.78	158.22	7.2475e-06	8.196e-06	164.55	61.367	59.962	24.023	7.7071e-06	23.05	153.061	6.916	-21.464	-19.359	144.696	37.202	-20.314	-13.991	141.596	170.271	-16.342	-13.325	-9.805	-5.368	121.011	-9.228	-8191	255	
931.121	1	1	0	0	0.1245	0.27557	0.33614	0.19812	0.16553	0.39103	0.12725	0.12268	0.045253	0.19043	0.17972	0.22086	0.18095	0.11373	0.21866	0.052316	0.047917	0.63542	0.20625	-0.027083	0.57917	-0.12083	0.13542	0.61042	-0.31667	0.50208	0.20208	-0.077083	0.68125	-0.095833	0.32708	0.54167	56.821	64.315	318.580	227.515	33.583	142.463	242.086	121.079	235.547	-11.389	314.936	220.405	111.754	76.413	-14.255	77.576	7.8544e-05	0.00032649	0.00011433	428.22	2.0549e-06	2.0587e-06	392.94	161.13	5.9635e-07	1.6349e-06	166.27	61.724	60.317	24.366	3.7676e-06	23.41	0.00044473	0.00070663	0.00018895	421.03	6.8399e-06	7.225e-06	385.61	157.84	6.9276e-06	7.4132e-06	163.32	61.155	59.931	24.197	6.8997e-06	23.057	157.423	51.028	50.436	-19.061	152.011	86.209	-20.096	-13.573	183.664	121.144	-17.048	-12.748	-9.645	-5.568	113.651	-9.496	-8191	255	
931.217	1	1	0	0	0.19861	0.25271	0.075425	0.15279	0.16069	0.13851	0.22743	0.10579	0.15887	0.06459	0.12767	0.17011	0.24248	0.10547	0.10267	0.16593	0.30208	0.66042	0.15625	-0.020833	0.59375	-0.18542	0.24583	0.58125	-0.18333	0.6375	0.26042	-0.24167	0.87083	0.15417	0.1375	0.62292	319.514	210.764	48.075	139.187	120.719	169.408	-21.207	33.222	259.358	260.940	290.497	218.605	278.462	76.314	-26.589	225.295	6.5363e-05	0.00030665	7.8571e-05	430.68	1.6571e-06	4.1848e-06	394.66	160.25	1.685e-06	2.2857e-06	166.26	61.345	60.204	24.592	3.1723e-06	23.428	0.00042212	0.00067443	0.00018457	422.91	7.3196e-06	7.9385e-06	387.07	157.93	7.0974e-06	7.6317e-06	163.08	61.115	60.142	24.327	6.7276e-06	23.134	137.558	63.935	71.716	-19.324	111.575	144.436	-20.513	-13.614	74.025	173.777	-16.624	-13.245	-9.557	-5.519	180.229	-9.314	-8191	255	
931.313	1	1	0	0	0.21615	0.064692	0.081458	0.13621	0.14763	0.087215	0.17698	0.11522	0.077555	0.19058	0.060351	0.1045	0.15388	0.14269	0.14328	0.098874	0.30208	0.48125	0.40208	-0.2875	0.825	-0.025	0.10208	0.4125	-0.11667	0.18125	0.40625	-0.29375	0.64375	0.23125	-0.010417	0.71667	262.311	77.431	110.003	-10.575	70.434	139.876	279.422	82.541	291.214	265.650	104.077	176.856	308.654	10.887	169.538	325.757	7.2744e-05	5.7849e-05	7.8096e-05	436.34	2.7747e-06	1.4471e-06	396.33	161.17	1.5336e-06	3.0696e-06	166.96	61.038	59.697	24.52	1.6473e-06	23.407	0.0004093	0.00062006	0.00017426	426.18	6.8131e-06	7.3508e-06	386.03	158.14	6.5069e-06	7.2124e-06	163	61.026	59.91	24.306	6.7711e-06	23.199	166.370	89.639	64.131	-19.465	145.412	144.252	-20.532	-13.986	140.768	87.154	-17.112	-13.324	-9.673	-5.820	152.281	-9.511	-8191	255	
931.432	1	1	0	0	0.13133	0.18497	0.091064	0.082223	0.17393	0.077597	0.40509	0.14689	0.046548	0.060215	0.21281	0.14848	0.053988	0.18849	0.1324	0.05001	0.22708	0.35625	0.64583	-0.24375	0.575	0.14167	0.047917	0.56042	-0.17083	0.33125	0.60833	-0.31458	0.54375	0.2625	-0.072917	0.72917	5.446	311.479	230.466	190.898	87.324	116.305	269.102	-16.678	278.412	23.209	164.129	-2.512	-25.160	257.700	153.721	87.949	7.5774e-05	0.000268	6.6307e-05	428.58	2.4667e-06	2.1567e-06	393.56	160.58	1.315e-06	2.3806e-06	164.25	61.351	60.087	24.182	1.168e-06	23.198	0.00041836	0.00060808	0.00016895	421.47	6.3427e-06	6.6783e-06	384.77	157.64	6.1851e-06	6.3981e-06	161.91	60.729	59.709	24.051	6.5428e-06	22.985	139.036	41.675	101.633	-19.029	121.382	109.367	-20.525	-13.665	206.043	-27.824	-16.895	-13.345	-9.826	-5.459	74.821	-9.537	-8191	255	
931.528	1	1	0	0	0.12138	0.14615	0.12639	0.13115	0.15656	0.10584	0.24722	0.2023	0.099324	0.11927	0.16204	0.30168	0.23425	0.12255	0.11194	0.10463	0.38333	0.18333	0.75625	-0.075	0.4	0.31458	-0.089583	0.60208	-0.10417	0.275	0.74167	-0.1	0.14583	0.43542	-0.23958	0.475	159.201	-20.411	314.417	175.661	62.252	175.270	29.653	16.874	164.994	121.956	108.643	17.299	-10.506	268.545	58.030	266.562	6.0008e-05	0.00042137	7.3714e-05	430.1	2.5218e-06	6.6416e-06	388.55	158.76	2.5235e-06	8.538e-07	164.88	60.815	59.457	24.249	3.3478e-06	23.455	0.00042093	0.00064534	0.00018001	420.95	6.8581e-06	7.2237e-06	381.34	156.45	6.7799e-06	6.8899e-06	161.29	60.443	59.51	24.015	7.2231e-06	22.984	141.092	39.958	71.414	-19.333	126.281	108.411	-20.201	-13.853	165.070	94.897	-16.405	-12.851	-9.736	-5.276	137.755	-8.961	-8191	255	
931.624	1	1	0	0	0.16945	0.1826	0.14839	0.12102	0.19349	0.29804	0.18044	0.050433	0.22575	0.12684	0.24904	0.10104	0.097374	0.1624	0.1352	0.22736	0.49167	0.16042	0.74583	-0.19167	0.375	0.4125	-0.29375	0.55	0.11458	-0.079167	0.65208	-0.079167	0.24792	0.39167	-0.05625	0.41458	198.574	7.307	60.114	315.810	294.231	236.595	240.348	261.480	41.711	2.485	174.295	27.950	188.414	20.213	81.954	188.036	8.203e-05	0.00018632	0.00010975	427.63	3.5091e-06	1.3271e-06	390.28	158.57	1.1926e-06	1.927e-06	164.62	61.252	59.278	24.025	2.3935e-07	23.352	0.00045802	0.00067905	0.00019112	420.13	7.2426e-06	7.5804e-06	381.76	156.04	6.9578e-06	7.5254e-06	161.91	60.513	59.15	23.884	7.4718e-06	22.986	181.615	78.346	69.496	-19.085	134.775	1.020	-20.027	-13.134	235.046	159.015	-16.544	-12.114	-9.356	-4.983	95.980	-8.994	-8191	255	
931.720	1	1	0	0	0.28646	0.039069	0.18358	0.17688	0.097113	0.25059	0.18984	0.1749	0.25646	0.18255	0.1012	0.14421	0.15499	0.21639	0.29367	0.08041	0.61042	-0.19583	0.75833	-0.0041667	0.17292	0.47708	-0.32917	0.2	0.12292	-0.22292	0.61042	-0.0125	0.25208	0.4375	-0.17708	0.38542	108.265	138.481	243.569	240.815	236.185	223.087	242.322	292.498	257.816	272.458	197.407	241.663	3.733	274.797	82.498	226.179	5.2356e-05	0.00034772	5.4473e-05	428.35	1.3124e-06	2.1747e-06	389.83	159.09	3.4004e-06	1.3199e-06	165.28	61.183	59.3	23.964	3.1595e-06	23.315	0.00043943	0.00068271	0.00019404	419.59	6.9968e-06	7.8298e-06	381.42	156.52	7.0491e-06	6.9715e-06	161.39	60.627	59.035	23.828	7.2981e-06	23.079	138.282	19.628	11.692	-18.998	168.471	95.872	-19.719	-12.987	145.546	18.169	-16.295	-12.293	-9.117	-4.928	142.795	-9.410	-8191	255	
931.816	1	1	0	0	0.1103	0.084671	0.12003	0.27207	0.26461	0.20928	0.16584	0.066853	0.034428	0.10044	0.088264	0.15787	0.10347	0.34376	0.13515	0.20312	0.76042	-0.0875	0.67292	0.13958	0.21667	0.31458	-0.2125	0.40625	0.58958	-0.21667	0.42292	0.054167	0.0041667	0.4875	-0.10833	0.35625	274.419	184.151	98.131	276.539	80.196	276.905	95.085	101.969	152.835	-14.938	287.182	258.386	198.263	310.327	-28.505	235.897	7.0428e-05	0.00023433	8.0046e-05	429.06	2.2558e-06	3.1469e-06	388.64	158.39	1.1975e-06	3.5841e-06	165.04	60.724	59.316	23.936	1.7629e-06	23.056	0.00044264	0.00066859	0.00018456	419.99	6.8825e-06	7.5293e-06	379.55	156.15	6.7366e-06	7.2711e-06	161.53	60.329	59.019	23.757	7.1969e-06	22.901	149.294	120.741	96.309	-19.089	83.244	59.236	-19.350	-13.592	212.889	90.122	-16.731	-12.234	-9.635	-5.251	227.911	-8.962	-8191	255	
931.913	1	1	0	0	0.18452	0.047616	0.13468	0.16606	0.19109	0.078525	0.12678	0.090706	0.18994	0.098874	0.20212	0.13522	0.25472	0.15543	0.04722	0.33613	0.85833	-0.23125	0.57083	-0.0083333	0.045833	0.63958	-0.20833	0.15625	0.48958	-0.27917	0.71875	0.33125	0.1125	0.61875	-0.072917	0.11875	224.641	-19.201	262.060	44.778	144.459	99.466	169.631	132.905	224.986	231.055	38.927	212.162	31.647	293.636	-15.805	308.722	8.0904e-05	0.0004661	4.0916e-05	426.35	9.1892e-07	4.8615e-06	391.34	158.92	1.3233e-06	3.9615e-06	164.21	61.219	59.527	24.113	1.9423e-06	23.407	0.00042291	0.00066474	0.00018693	417.94	6.8095e-06	7.5342e-06	380.21	155.87	6.6999e-06	7.2318e-06	160.96	60.582	59.181	23.949	7.1743e-06	23.114	157.545	68.461	43.883	-18.417	211.753	123.069	-20.208	-13.917	129.894	99.681	-16.890	-12.256	-9.452	-5.175	58.653	-9.654	-8191	255	
932.033	1	1	0	0	0.2597	0.15321	0.2646	0.15698	0.13409	0.07736	0.15985	0.14042	0.12136	0.15274	0.22829	0.37092	0.14231	0.16917	0.3089	0.15819	0.95833	-0.05625	0.51458	0.33958	-0.014583	0.71667	-0.12917	0.28542	0.53125	-0.275	0.45208	0.38958	-0.22292	0.56667	0.060417	-0.1	-6.621	155.137	243.659	152.759	86.877	205.406	175.650	301.375	144.523	62.417	266.097	300.700	42.676	304.943	135.371	221.727	7.1503e-05	0.00014319	9.1434e-05	425.56	1.0082e-06	4.0155e-06	390.79	159.4	8.802e-07	3.2682e-06	164.69	61.046	59.16	24.374	8.7817e-07	23.319	0.00044231	0.00064888	0.00018324	417.47	7.0994e-06	7.6127e-06	380.59	156.13	7.0154e-06	7.3329e-06	160.74	60.552	59.116	24.14	7.2354e-06	23.271	148.636	44.170	63.963	-18.687	65.795	112.131	-19.873	-13.404	253.844	118.813	-17.074	-13.406	-9.992	-6.019	181.407	-9.669	-8191	255	
932.129	1	1	0	0	0.19612	0.25096	0.1045	0.34856	0.089549	0.22548	0.17698	0.133	0.16887	0.080238	0.16737	0.31817	0.04502	0.3117	0.25856	0.27775	0.80833	-0.10208	0.54792	0.37083	-0.14167	0.5	-0.041667	0.014583	0.60417	-0.53125	0.17708	0.25833	-0.20417	0.64167	0.15625	-0.022917	259.372	177.381	40.040	-24.203	28.609	30.076	251.759	180.810	175.368	96.361	56.217	291.232	148.886	282.309	301.538	-2.535	7.7851e-05	0.00027586	0.00013422	424.47	1.8425e-06	5.8071e-07	385.18	157.67	3.4696e-06	1.7145e-06	166.27	62.311	59.243	24.553	3.0928e-06	23.945	0.00045513	0.00072996	0.00019196	417.27	7.23e-06	8.114e-06	378.5	155.58	7.6411e-06	7.9378e-06	162.75	61.302	59.33	24.314	7.6878e-06	23.628	150.645	18.797	99.604	-19.470	235.546	135.393	-20.340	-14.336	129.932	136.573	-17.484	-12.604	-9.746	-5.789	111.003	-9.159	-8191	255	
932.201	1	1	0	0	0.23667	0.31636	0.14288	0.088511	0.053728	0.27915	0.19903	0.35908	0.11392	0.065609	0.12719	0.028257	0.30011	0.050981	0.20448	0.097246	1.0146	-0.16875	0.21667	0.67083	-0.2375	0.7125	0.22708	-0.19583	0.51042	0.0375	0.16042	0.55417	-0.085417	0.29792	0.33542	-0.28125	143.501	27.489	290.394	-6.025	11.601	144.412	294.201	-4.120	39.073	57.439	223.340	268.593	299.423	284.464	121.529	190.043	4.5159e-05	0.00027348	4.1263e-05	422.21	2.1255e-06	1.5144e-06	389.88	158.7	1.0986e-06	4.8567e-06	165.35	62.279	60.084	24.423	1.4524e-06	24.082	0.00049756	0.00075819	0.00020688	415.71	8.08e-06	8.6908e-06	381.75	156.48	8.0758e-06	8.604e-06	163.31	61.653	59.95	24.383	8.3681e-06	23.701	152.878	31.074	108.618	-19.094	162.508	129.728	-20.395	-13.531	135.316	126.388	-17.110	-12.902	-9.720	-5.466	174.649	-9.235	-8191	255	
932.322	1	1	0	0	0.28236	0.36356	0.42266	0.092366	0.059139	0.20855	0.080165	0.15149	0.062912	0.12271	0.3035	0.2404	0.017475	0.16532	0.21085	0.27052	0.8375	0.0041667	0.20208	0.74583	-0.19583	0.43125	0.34583	-0.17917	0.57708	0.010417	-0.10208	0.6125	-0.38542	0.16042	0.30417	-0.30625	230.932	244.797	20.999	275.401	254.658	166.456	123.573	303.780	-29.052	160.442	-13.369	60.420	240.593	-3.878	156.164	129.116	8.2811e-05	0.00024399	6.8343e-05	420.7	3.7016e-06	3.0043e-06	388.52	159.9	2.2201e-06	2.818e-06	167.93	61.966	59.7	24.369	4.5605e-06	23.704	0.00053892	0.00080727	0.00022202	415.26	8.8643e-06	9.5658e-06	380.88	157.07	8.9359e-06	9.1632e-06	165.03	61.609	59.523	24.165	9.8295e-06	23.536	156.494	50.548	27.397	-18.931	118.338	128.357	-20.030	-13.760	109.718	124.156	-16.557	-12.143	-9.661	-5.530	118.169	-8.911	-8191	255	
932.416	1	1	0	0	0.063252	0.064475	0.12144	0.20183	0.14667	0.26884	0.088742	0.11262	0.16733	0.34334	0.1454	0.15499	0.1231	0.27793	0.22094	0.064995	0.80417	0.18125	0	0.42083	-0.10625	0.18958	0.52708	-0.23125	0.425	0.1	-0.25625	0.4875	-0.13958	0.19583	0.3625	-0.24583	37.186	130.769	71.426	227.294	120.338	157.404	176.888	75.188	89.070	254.715	-21.803	328.310	210.547	109.143	79.420	44.647	8.5375e-05	0.00034748	0.00012285	420.59	3.0563e-06	3.8626e-06	389.87	159.23	1.9485e-06	1.4775e-06	167.2	61.586	59.18	24.192	2.0783e-06	23.818	0.0006007	0.00096948	0.00026199	416.46	1.0104e-05	1.0827e-05	383.12	156.95	1.041e-05	1.1374e-05	164.79	61.423	59.472	24.151	1.1557e-05	23.631	132.169	43.419	63.358	-19.098	89.540	136.501	-20.084	-13.186	115.858	47.921	-16.859	-12.290	-9.213	-5.427	128.263	-8.952	-8191	255	
932.512	1	1	0	0	0.15057	0.013819	0.10548	0.11612	0.16605	0.13779	0.12423	0.26243	0.025674	0.05657	0.19055	0.11098	0.11631	0.17169	0.19818	0.2969	0.77292	0.27292	-0.22292	0.65625	-0.016667	0.075	0.54792	-0.3375	0.42708	0.40208	-0.17708	0.3875	-0.054167	-0.0125	0.41875	-0.23542	196.488	118.179	84.898	6.050	254.915	192.594	3.560	305.494	174.257	256.984	7.573	186.625	178.313	321.852	67.339	282.151	5.6316e-05	0.00033029	6.2304e-05	422.56	1.5439e-06	2.3016e-06	397.5	158.57	1.7152e-06	4.1961e-06	169.43	61.475	59.276	24.084	2.8238e-06	23.609	0.00067865	0.0011051	0.00031002	416.79	1.2e-05	1.2558e-05	387.95	156.83	1.1339e-05	1.2604e-05	166.27	61.698	59.545	24.031	1.3258e-05	23.436	171.414	94.734	265.891	-18.749	112.040	152.996	-20.270	-12.968	136.375	144.382	-16.350	-11.619	-8.233	-5.066	63.254	-7.950	-8191	255	
932.608	1	1	0	0	0.1442	0.31158	0.025736	0.19221	0.054489	0.19129	0.12465	0.051488	0.36616	0.06607	0.10265	0.20866	0.15461	0.29187	0.15009	0.1426	0.60625	0.13542	-0.01875	0.37708	-0.010417	-0.020833	0.625	-0.33333	0.3	0.49167	-0.19167	0.52083	0.0020833	-0.17292	0.58333	-0.11875	302.154	89.215	42.316	-30.402	114.131	113.578	-29.654	-25.971	171.176	275.822	73.258	257.477	102.919	325.561	136.550	106.334	8.7452e-05	0.00026574	0.00011756	418.43	9.9471e-07	3.989e-06	391.79	157.09	1.1587e-06	1.786e-06	168.91	62.356	59.012	23.553	3.3622e-06	22.956	0.00075241	0.0012498	0.0003496	415.23	1.3528e-05	1.4451e-05	387.01	155.56	1.31e-05	1.4975e-05	166.53	61.952	59.425	23.565	1.594e-05	23.042	165.995	54.684	11.504	-19.057	192.625	181.020	-20.371	-13.835	149.746	105.854	-16.376	-12.289	-8.685	-4.958	123.998	-8.204	-8191	255	
932.729	1	1	0	0	0.090302	0.060426	0.084129	0.093873	0.22602	0.25373	0.10994	0.16571	0.21937	0.033874	0.10131	0.082739	0.17164	0.078657	0.14167	0.24487	0.625	0.74375	-0.23542	0.52708	0.19167	-0.047917	0.48333	-0.15625	0.083333	0.56042	-0.09375	0.49167	0.26458	-0.0625	0.75	-0.072917	-26.659	263.676	-24.825	301.701	318.177	42.364	205.445	142.622	75.716	194.133	249.444	158.444	-16.978	125.648	206.856	191.763	7.5124e-05	0.0003978	8.4167e-05	410.67	3.2501e-06	6.1031e-06	385.22	153.99	4.6927e-06	1.9551e-06	163.6	61.073	58.363	23.338	3.8759e-06	22.823	0.00091359	0.0015503	0.00043657	409.1	1.6903e-05	1.8889e-05	381.33	152.53	1.868e-05	2.1159e-05	163.14	61.616	59.255	23.454	2.2869e-05	23.024	148.857	74.412	79.904	-19.188	62.860	109.996	-19.420	-12.786	147.761	163.810	-16.171	-11.819	-8.939	-5.056	173.220	-8.284	-8191	255	
932.825	1	1	0	0	0.12211	0.17552	0.12437	0.1619	0.10203	0.20018	0.10314	0.18366	0.086718	0.061425	0.14948	0.11288	0.16534	0.16314	0.21827	0.048256	0.58333	0.58333	-0.18542	0.52917	0.15208	-0.33333	0.69792	0.095833	-0.091667	0.47708	-0.16875	0.56875	0.3125	-0.089583	0.72083	-0.035417	182.116	321.674	97.656	322.445	270.512	6.412	187.845	306.826	196.974	89.741	82.931	91.616	181.097	295.717	248.499	39.559	8.3324e-05	0.00035253	5.2732e-05	401.6	3.6004e-06	5.9605e-06	375.13	147.56	9.5482e-07	3.9576e-06	157.1	59.384	56.099	22.981	1.9765e-06	22.316	0.0012757	0.0021972	0.00062469	405.9	2.3326e-05	2.5554e-05	372.49	147.91	2.3914e-05	2.6816e-05	158.26	60.373	57.98	23.358	2.7448e-05	22.785	144.364	62.988	154.988	-18.984	75.325	247.139	-20.489	-12.789	308.414	19.110	-16.353	-12.156	-8.669	-4.506	21.017	-8.440	-8191	255	
932.897	1	1	0	0	0.30394	0.13873	0.30644	0.12346	0.15915	0.1284	0.06849	0.051696	0.14846	0.27769	0.1641	0.05624	0.07406	0.22357	0.13384	0.10501	0.61458	0.7875	-0.12708	0.38125	0.48125	0.010417	0.57708	0.01875	-0.0041667	0.58542	-0.12083	0.27708	0.49375	-0.23958	0.51458	0.22708	174.309	263.330	276.309	223.920	270.606	303.326	195.567	277.399	41.456	36.199	50.498	39.108	38.894	264.902	112.409	263.914	6.0031e-05	0.00026565	7.933e-05	391.65	2.2386e-06	5.5842e-06	363.83	144.83	1.7066e-06	3.7411e-06	151.53	57.315	55.171	22.748	3.2787e-06	21.896	0.0014928	0.0026327	0.00071242	401.37	2.7583e-05	2.975e-05	364.21	145.1	2.6514e-05	2.9223e-05	153.62	58.566	56.976	22.976	2.9212e-05	22.347	178.264	51.476	-6.681	-18.893	318.294	125.044	-20.145	-12.765	291.656	135.796	-15.987	-11.903	-8.826	-4.564	89.227	-7.621	-8191	255	
932.993	1	1	0	0	0.15626	0.056778	0.34429	0.23612	0.16487	0.22039	0.17534	0.20269	0.24068	0.44082	0.18881	0.10558	0.18928	0.17194	0.27113	0.31365	0.38958	0.57292	-0.079167	0.27917	0.61042	-0.16667	0.38542	0.3	-0.072917	0.72917	0.064583	0.17917	0.67083	-0.20833	0.52083	0.25625	75.235	202.676	48.764	-9.153	27.211	70.602	264.895	265.734	40.792	314.547	302.236	157.666	171.817	45.097	57.252	233.268	4.3815e-05	0.00015216	6.0974e-06	391.24	3.7813e-06	4.8461e-06	358.94	143.58	4.2198e-07	8.4503e-06	148.16	56.324	54.944	22.401	5.9003e-06	21.228	0.0016577	0.0028818	0.00080452	402.46	3.0351e-05	3.2637e-05	359.83	144.13	2.8619e-05	3.1669e-05	150.5	57.537	56.711	22.813	3.2368e-05	21.962	196.296	295.407	31.895	-18.637	152.338	27.116	-19.519	-12.910	160.570	133.035	-16.079	-11.476	-8.622	-4.108	-23.619	-7.763	-8191	255	
933.114	1	1	0	0	0.23766	0.20392	0.10595	0.38693	0.25941	0.38736	0.13729	0.17903	0.1587	0.055334	0.22224	0.14872	0.136	0.22746	0.0049333	0.21608	0.13125	0.56042	0.0875	0.20833	0.40625	-0.30625	0.3625	0.29583	-0.19167	0.44375	0.15	0.06875	0.68125	-0.23958	0.44583	0.35625	148.251	107.254	235.755	8.262	56.227	293.481	229.284	62.472	145.179	139.804	0.290	187.144	319.963	213.929	-25.260	-25.502	9.8936e-05	0.000822	9.2892e-05	395.38	4.5313e-06	4.4384e-06	354.39	143.95	2.9628e-06	2.9088e-06	147.32	55.192	55.309	23.049	5.3679e-06	21.5	0.0018595	0.0032142	0.00090405	408.39	3.551e-05	3.8569e-05	359.65	144.85	3.6001e-05	4.1483e-05	150.82	57.535	57.777	23.589	4.0334e-05	22.45	154.600	31.337	70.941	-19.202	217.638	146.531	-20.106	-12.890	172.235	242.649	-16.145	-11.130	-8.473	-3.885	58.941	-6.920	-8191	255	
933.210	1	1	0	0	0.10556	0.28955	0.14595	0.14021	0.18374	0.23362	0.29962	0.21352	0.26268	0.29063	0.10913	0.22102	0.24173	0.20796	0.27843	0.1611	0.0625	0.74583	-0.00625	-0.022917	0.61667	0.0375	0.12708	0.55	-0.097917	0.55625	0.24792	-0.17708	0.8125	-0.025	-0.060417	0.46458	240.940	139.467	202.070	180.593	218.428	255.429	238.620	273.911	-11.801	274.616	284.148	24.434	18.788	178.299	289.074	297.664	9.313e-05	0.00012682	7.7515e-05	400.32	7.1093e-06	1.4849e-06	357.4	145.7	3.084e-06	6.247e-07	146.33	55.582	54.939	23.5	4.6922e-06	21.689	0.0022257	0.0038156	0.0010557	418.74	3.9619e-05	4.1236e-05	360.36	147.21	3.712e-05	4.0762e-05	150.25	57.524	57.661	23.92	4.0307e-05	22.676	197.813	-11.898	33.801	-19.090	99.077	61.278	-20.395	-13.274	24.269	51.331	-16.736	-12.677	-9.940	-4.975	233.024	-8.936	-8191	255	
933.306	1	1	0	0	0.30231	0.087503	0.14986	0.060782	0.1883	0.035453	0.26651	0.44088	0.21388	0.054607	0.081695	0.17648	0.29676	0.16767	0.11423	0.060314	0.22917	0.59167	0.20208	-0.085417	0.67917	-0.11458	0.2125	0.59375	-0.16458	0.42083	0.49375	-0.3625	0.56875	0.066667	0.225	0.65208	256.782	196.570	55.091	279.772	124.159	203.552	145.190	300.639	171.737	5.854	198.493	250.979	310.062	219.083	307.164	295.091	1.8179e-05	0.00041282	3.0887e-05	398.19	2.2689e-06	7.2163e-06	352.74	145.3	4.5854e-06	4.5977e-06	144.52	55.125	54.501	22.998	6.9143e-06	21.921	0.0022651	0.0038276	0.001096	419	4.0512e-05	4.0717e-05	358.31	147.03	3.6648e-05	3.8542e-05	149.08	56.99	57.065	23.602	3.6958e-05	22.596	106.488	167.133	-26.229	-19.826	149.181	207.978	-20.845	-13.729	321.972	238.343	-16.643	-12.840	-9.726	-4.564	66.756	-8.799	-8191	255	
933.425	1	1	0	0	0.2377	0.15203	0.23849	0.13022	0.21012	0.050522	0.13391	0.13019	0.056482	0.2317	0.22792	0.19929	0.032455	0.091495	0.26318	0.12077	0.30625	0.55625	0.83333	-0.12292	0.60625	0.20625	-0.1875	0.6	-0.19375	0.36875	0.3	-0.15625	0.65208	0.17708	-0.17917	0.70208	167.801	149.135	279.422	133.987	245.695	321.556	-15.502	275.584	247.385	31.482	213.936	279.882	262.677	305.877	267.935	69.254	7.8382e-05	0.00056191	3.2724e-05	396.91	2.6382e-06	4.2257e-06	354.48	143.99	1.1526e-06	4.8366e-06	145.33	54.656	54.773	22.878	3.8139e-06	21.558	0.0020519	0.0034261	0.00098014	410.96	3.5352e-05	3.6453e-05	354.49	145.2	3.1661e-05	3.5272e-05	148.19	56.292	56.713	23.298	3.4333e-05	22.252	113.543	-4.636	95.443	-19.601	199.120	251.543	-20.498	-13.274	133.229	113.837	-16.564	-12.277	-8.972	-4.037	94.094	-8.788	-8191	255	
933.496	1	1	0	0	0.11317	0.18355	0.078404	0.11217	0.14913	0.050754	0.16557	0.090109	0.13123	0.11791	0.092537	0.3596	0.19084	0.015659	0.047778	0.30489	0.35417	0.37917	0.60208	-0.225	0.46875	0.32708	-0.077083	0.73542	0.11875	0.13333	0.6875	-0.18125	0.44792	0.25625	0.0125	0.28542	36.210	178.445	271.233	96.512	22.018	200.010	285.699	262.918	328.955	105.868	11.953	-30.615	198.884	-11.343	243.263	220.801	6.5461e-05	0.00033179	0.00012303	387.94	2.5555e-06	3.8758e-06	348.17	143.35	2.7664e-06	5.3053e-06	147.59	56.265	55.003	23.225	2.5718e-06	22.026	0.0018775	0.0031923	0.00089693	401.35	3.2291e-05	3.3724e-05	351.91	144.12	2.9399e-05	3.2983e-05	150.05	57.485	56.933	23.496	3.3527e-05	22.549	174.549	5.408	113.391	-18.848	190.048	74.494	-20.111	-12.711	146.654	139.971	-16.146	-11.739	-8.607	-4.650	158.490	-8.297	-8191	255	
933.594	1	1	0	0	0.094517	0.23236	0.089484	0.049352	0.18784	0.29823	0.06347	0.078107	0.17627	0.10075	0.069824	0.17737	0.22464	0.11105	0.18759	0.13467	0.31667	0.10833	0.70833	-0.14167	0.475	0.39583	-0.10417	0.67292	0.15417	0.010417	0.81875	-0.11667	0.32083	0.60417	-0.0875	0.5125	111.000	8.063	214.076	182.731	62.232	191.104	165.398	212.553	243.215	64.947	11.030	275.601	26.082	235.947	178.453	280.851	5.4864e-05	0.00053274	5.2199e-05	387.45	1.6912e-07	5.0312e-06	354.5	143.48	1.8948e-06	3.0661e-06	151.73	57.2	55.079	23.32	2.8284e-06	22.589	0.0018475	0.0032737	0.00093387	402.13	3.6647e-05	4.1104e-05	359.97	145.97	3.8138e-05	4.3264e-05	155.41	59.63	58.404	24.035	4.5873e-05	23.548	164.283	65.818	256.409	-18.641	70.613	116.142	-19.904	-12.924	229.838	196.390	-15.597	-11.667	-8.596	-4.049	134.360	-7.876	-8191	255	
933.713	1	1	0	0	0.12932	0.24381	0.2061	0.042685	0.18548	0.11254	0.2376	0.35963	0.16214	0.33072	0.1587	0.095958	0.15195	0.074522	0.091336	0.11457	0.62917	-0.05	0.50833	0.020833	0.46458	0.34167	-0.14375	0.62083	0.14583	-0.091667	0.81458	-0.14375	0.35	0.35	-0.225	0.43125	181.650	182.403	247.181	47.403	-9.141	15.639	156.458	268.868	305.257	2.007	245.675	27.275	-9.390	11.370	281.287	47.440	9.6947e-05	8.0991e-06	5.9933e-05	387.26	3.501e-06	3.651e-06	353.39	144.27	4.7613e-06	6.6822e-06	150.3	57.91	56.104	23.654	8.3377e-06	22.781	0.002525	0.0044099	0.0012469	410.14	4.4153e-05	4.9161e-05	362.19	147.15	4.2196e-05	4.7563e-05	156.27	60.361	58.947	24.429	5.1591e-05	23.994	166.339	85.430	83.356	-18.861	124.072	182.182	-19.432	-12.905	88.858	124.475	-15.935	-11.248	-8.945	-4.186	171.300	-7.867	-8191	255	
933.809	1	1	0	0	0.03942	0.02723	0.031832	0.23849	0.16062	0.18376	0.11444	0.18301	0.10201	0.11949	0.21096	0.31591	0.049786	0.13921	0.072238	0.30647	0.60833	0.0083333	0.63333	0.072917	0.14583	0.53958	-0.2125	0.44583	0.45	-0.11042	0.56875	0.19375	-0.035417	0.62083	-0.15833	0.43125	4.605	46.473	-29.913	258.175	281.510	82.992	218.370	293.167	-13.649	148.497	39.012	318.200	233.048	302.388	207.870	264.207	7.6206e-05	0.0001709	0.00022171	396	3.4753e-06	6.0804e-06	358.54	145.99	1.7847e-06	4.147e-06	151.09	58.093	56.255	23.757	3.3858e-07	22.718	0.0030253	0.005465	0.0015548	426.55	6.0068e-05	6.7185e-05	373.81	150.68	5.8561e-05	6.5757e-05	159.93	61.61	60.586	24.908	6.2011e-05	24.232	202.660	291.454	106.503	-18.640	95.636	172.416	-20.269	-12.947	109.742	202.866	-15.974	-11.323	-8.862	-4.015	288.551	-7.636	-8191	255	
933.905	1	1	0	0	0.13502	0.26328	0.1513	0.13863	0.15782	0.12438	0.10746	0.087608	0.23037	0.15931	0.18201	0.29362	0.21028	0.056004	0.24343	0.065105	0.80417	-0.022917	0.62083	0.075	-0.04375	0.71042	-0.125	0.24167	0.26875	-0.25833	0.54375	0.18542	0.0083333	0.69167	-0.13125	0.05	-20.009	49.433	135.302	328.116	229.917	311.002	101.720	307.345	246.072	18.923	-0.458	300.819	177.416	47.362	213.006	309.349	1.2243e-05	0.0009859	4.9582e-05	392.82	4.579e-06	8.9297e-06	354.03	144.04	4.2704e-06	2.6134e-06	147.43	56.358	54.983	23.25	7.5756e-06	21.946	0.0034164	0.0059437	0.0016729	428.81	6.1884e-05	6.6695e-05	368.06	149.02	5.7088e-05	6.3576e-05	156.15	59.754	59.337	24.318	5.5606e-05	23.288	326.532	108.735	113.708	-19.086	165.128	-24.540	-20.860	-13.764	-16.973	131.010	-16.657	-11.721	-8.996	-4.406	172.813	-9.003	-8191	255	
934.026	1	1	0	0	0.19969	0.11994	0.23518	0.26957	0.30116	0.39127	0.25188	0.03178	0.21879	0.03568	0.21036	0.11596	0.12695	0.19417	0.070554	0.22645	0.84375	-0.34583	0.525	0.43125	-0.089583	0.44792	-0.097917	0.43958	0.51042	-0.22083	0.30208	0.28958	-0.13333	0.61458	0.16042	0.34375	65.622	192.309	158.102	17.361	68.464	256.932	51.621	316.882	139.176	118.293	300.345	226.380	272.341	296.490	160.459	127.799	6.935e-05	0.00046603	5.2171e-05	388.18	3.9192e-06	3.5616e-06	351.38	146.01	2.4784e-06	5.1654e-06	151.33	57.362	55.996	22.96	2.4525e-06	21.779	0.0030309	0.0050969	0.0013571	412.13	4.8422e-05	4.9332e-05	360.68	147.66	4.0251e-05	4.1901e-05	155.92	59.117	58.43	23.516	3.6168e-05	22.559	202.274	114.079	28.548	-19.042	108.563	190.789	-20.815	-13.141	29.843	198.993	-16.717	-11.994	-8.936	-4.376	227.098	-8.797	-8191	255	
934.098	1	1	0	0	0.15517	0.10479	0.1075	0.21275	0.013086	0.116	0.32011	0.24168	0.24436	0.058066	0.13517	0.17819	0.036876	0.087781	0.14401	0.14336	0.9375	0.0083333	0.6	0.30417	-0.10208	0.7125	0.066667	0.0875	0.67708	-0.20208	0.48333	0.37292	-0.18333	0.7125	0.2375	-0.0625	220.918	-14.986	208.404	282.594	132.706	284.772	205.733	131.386	130.500	130.859	40.012	250.409	267.553	310.169	100.529	281.277	6.1342e-05	6.9244e-05	8.6254e-05	402.83	1.8884e-06	1.5288e-06	382.85	152.52	3.5664e-06	3.2615e-06	159.96	59.031	57.365	23.507	3.0295e-06	22.316	0.0019453	0.0032229	0.00083805	413.48	3.0466e-05	3.1154e-05	382.07	152.55	2.6146e-05	2.746e-05	161.16	59.756	58.818	23.776	2.2068e-05	22.627	147.966	318.520	65.831	-19.122	109.327	35.540	-20.168	-13.625	132.227	154.024	-17.030	-12.399	-9.261	-5.178	167.704	-9.116	-8191	255	
934.194	1	1	0	0	0.093385	0.28872	0.15335	0.32591	0.17496	0.31225	0.19182	0.10909	0.10606	0.25942	0.017569	0.3875	0.069177	0.30508	0.13131	0.19488	1.1167	-0.26042	0.42708	0.44167	-0.070833	0.51667	0.045833	-0.035417	0.625	-0.27292	0.28125	0.53125	-0.48958	0.47708	0.19583	-0.039583	293.717	108.961	137.041	294.778	78.045	-2.049	41.696	115.028	191.871	204.131	239.855	306.139	37.585	286.780	47.448	306.744	7.6586e-05	0.00044964	0.00014892	416.72	3.156e-06	6.4392e-06	388.58	156.97	1.9059e-06	7.0425e-06	163.71	59.834	58.655	23.816	4.0006e-06	22.722	0.0011887	0.0019175	0.00052138	418.78	1.8805e-05	1.9248e-05	383.33	154.89	1.5991e-05	1.5657e-05	162.36	59.798	59.006	23.765	1.3287e-05	22.607	124.780	18.973	62.769	-18.391	163.618	139.065	-20.457	-13.783	113.850	106.324	-16.742	-12.464	-9.745	-5.249	66.420	-9.395	-8191	255	
934.290	1	1	0	0	0.13246	0.13608	0.18102	0.15399	0.27949	0.22252	0.084512	0.22142	0.25057	0.31273	0.11855	0.33216	0.30401	0.12665	0.17668	0.24986	0.92708	0.11875	0.32083	0.5625	-0.16042	0.43125	0.15208	-0.054167	0.62083	0.0375	0.16875	0.75417	-0.17083	0.49792	0.48125	-0.32083	115.938	160.712	277.932	-16.904	206.487	260.469	302.330	292.362	129.575	322.958	-8.243	229.666	320.016	41.740	127.954	316.807	6.7139e-05	0.00051845	8.5093e-05	420.85	1.5407e-06	1.7153e-06	379.56	155.98	2.7153e-06	1.3881e-06	160.68	58.815	57.221	23.248	1.9829e-06	22.365	0.00074523	0.0011338	0.00031948	415.2	1.1524e-05	1.2449e-05	375.81	153.6	1.1622e-05	1.245e-05	158.47	58.692	57.688	23.477	1.2721e-05	22.302	165.068	41.001	24.117	-18.881	192.302	142.421	-20.133	-13.309	37.276	85.629	-16.758	-12.199	-9.751	-5.158	127.511	-9.181	-8191	255	
934.386	1	1	0	0	0.15211	0.09482	0.20142	0.13273	0.1858	0.16295	0.2796	0.097687	0.23876	0.27842	0.21181	0.16293	0.093491	0.14776	0.12099	0.1283	1.0354	0.22708	0.21458	0.80417	-0.14167	0.46875	0.25	-0.34792	0.46875	0.15417	0.12917	0.37292	-0.11875	0.27292	0.48542	-0.35417	54.833	170.053	81.643	136.650	3.033	90.136	254.287	81.259	199.565	202.500	208.993	97.950	-8.449	313.070	301.707	247.992	7.9029e-05	0.00016749	0.00017331	398.8	5.314e-06	2.1383e-06	374.36	152.17	3.6842e-06	4.7463e-06	159.06	59.092	57.579	23.461	2.2935e-06	22.421	0.00072084	0.0012043	0.00034001	396.5	1.2751e-05	1.3634e-05	368.94	150.27	1.2141e-05	1.2734e-05	156.49	59.106	57.599	23.348	1.2355e-05	22.295	149.988	89.210	78.001	-18.751	130.325	320.554	-20.135	-13.264	126.771	174.604	-16.489	-12.062	-9.039	-4.675	182.355	-8.618	-8191	255	
934.505	1	1	0	0	0.092125	0.1706	0.14915	0.16479	0.070608	0.11931	0.24006	0.16328	0.33514	0.091216	0.084885	0.08037	0.37151	0.22671	0.075924	0.15122	0.80833	0.35	0.17708	0.75625	-0.20625	0.38125	0.5	-0.22292	0.50625	0.24375	-0.16458	0.75417	0.03125	0.22917	0.73542	-0.21875	119.501	-25.581	79.535	41.190	224.715	166.511	203.849	262.222	214.989	100.482	189.248	-25.140	245.914	-30.389	25.372	269.573	7.3946e-05	0.00020326	9.0095e-05	402.38	2.6679e-06	5.3451e-06	377.57	152.82	2.8279e-06	2.0547e-06	158.54	59.451	57.591	23.642	2.1842e-06	22.41	0.00066717	0.0010985	0.00030013	399.13	1.071e-05	1.1765e-05	371.48	150.85	1.0307e-05	1.1443e-05	156.78	59.107	57.764	23.442	1.073e-05	22.342	154.712	93.122	51.614	-18.351	112.653	179.895	-20.867	-13.558	155.193	297.138	-17.289	-12.350	-9.244	-5.342	142.101	-9.160	-8191	255	
934.601	1	1	0	0	0.13825	0.21584	0.10873	0.31315	0.16671	0.059318	0.25027	0.12966	0.11714	0.26646	0.11626	0.14942	0.14322	0.052752	0.16972	0.092333	0.88333	0.19583	-0.039583	0.57708	-0.066667	0.10208	0.59167	-0.14792	0.48542	0.26667	-0.31458	0.66458	0.0875	-0.1	0.73333	-0.1375	170.118	-0.900	-5.628	-8.923	-16.929	259.392	316.290	224.053	71.904	253.080	58.947	37.391	98.999	307.827	41.542	324.388	7.3884e-05	0.00055103	3.7254e-05	401.15	3.9907e-06	2.4138e-06	378.79	152.48	2.7908e-06	1.6273e-06	158.59	58.686	57.267	23.54	1.7881e-06	22.411	0.00061601	0.0010129	0.00028967	398.93	1.0592e-05	1.1346e-05	372.13	150.8	1.0698e-05	1.1947e-05	156.82	58.557	57.546	23.472	1.1557e-05	22.247	163.288	25.990	28.770	-18.974	148.148	58.558	-20.371	-13.289	110.299	156.601	-16.779	-12.412	-9.283	-5.336	159.808	-9.331	-8191	255	
934.697	1	1	0	0	0.15245	0.1312	0.15881	0.09297	0.281	0.29662	0.21931	0.03864	0.092744	0.21327	0.13465	0.18141	0.17763	0.20958	0.07299	0.025283	0.85833	0.5375	-0.05	0.525	0.13333	-0.041667	0.72083	-0.014583	0.33542	0.48958	-0.0375	0.64375	0.079167	-0.029167	0.63333	-0.32917	63.385	94.236	217.509	252.964	38.355	61.947	304.460	317.573	101.002	110.841	282.106	171.030	96.626	156.939	186.778	156.780	4.5039e-05	0.0003522	0.00011441	406.94	4.5191e-07	7.9438e-07	373.99	153.33	9.0182e-07	3.9117e-06	156.93	58.193	57.066	23.48	3.4459e-06	22.158	0.00064795	0.0011099	0.00030222	401.33	1.0985e-05	1.181e-05	366.39	150.99	9.8307e-06	1.0869e-05	155.15	57.982	57.309	23.421	9.5156e-06	22.01	132.864	63.720	44.912	-18.811	189.982	184.293	-19.880	-13.208	118.725	110.739	-16.552	-12.542	-9.535	-5.646	82.832	-8.844	-8191	255	
934.794	1	1	0	0	0.20548	0.24197	0.15261	0.26654	0.075028	0.17285	0.25726	0.15713	0.2369	0.10184	0.21391	0.070245	0.13831	0.36279	0.20595	0.10707	0.68125	0.62708	-0.15625	0.62292	0.43333	-0.13958	0.64792	0.05625	0.14792	0.55833	-0.28958	0.51667	0.31667	-0.17292	0.65208	-0.0125	160.883	87.954	27.419	231.375	83.465	297.650	227.391	311.241	316.693	132.351	294.900	29.037	275.196	163.878	273.398	151.654	9.8327e-05	0.00020048	1.684e-05	416.63	2.317e-06	3.5558e-06	377.05	154.28	1.7468e-06	4.4086e-06	156.14	57.871	56.899	23.655	2.6012e-06	22.431	0.00053375	0.00082326	0.00022247	407.19	8.9227e-06	9.1645e-06	368.1	151.82	8.3237e-06	8.9196e-06	153.52	57.171	56.868	23.548	8.4948e-06	22.136	141.322	39.578	-0.195	-19.509	122.774	164.555	-20.272	-13.714	117.207	131.450	-16.703	-12.708	-9.524	-5.010	105.876	-9.049	-8191	255	
934.890	1	1	0	0	0.17848	0.17511	0.035282	0.14175	0.20414	0.15795	0.041008	0.1433	0.23924	0.28226	0.078213	0.16907	0.41285	0.054115	0.15662	0.36353	0.59375	0.58125	-0.18958	0.20208	0.50208	-0.075	0.50625	0.079167	-0.15625	0.50625	-0.11458	0.43958	0.675	-0.225	0.6625	-0.047917	49.024	43.790	153.603	43.343	190.945	215.939	96.717	248.704	-15.373	179.887	272.607	309.792	297.405	50.735	94.260	43.761	4.8858e-05	0.00019885	0.00011518	419.58	4.7209e-06	9.0652e-07	381.2	153.66	7.1786e-07	3.1957e-06	155.77	57.383	56.998	23.655	3.6143e-06	22.006	0.00049737	0.00080657	0.00020746	413.97	7.9904e-06	8.2882e-06	372.11	151.24	7.9451e-06	8.6304e-06	153.02	56.662	56.644	23.403	8.3894e-06	21.91	153.434	93.529	38.229	-18.723	134.758	66.247	-19.969	-13.302	155.747	166.168	-16.540	-12.291	-9.316	-5.319	176.519	-9.153	-8191	255	
934.986	1	1	0	0	0.27915	0.14082	0.31094	0.13173	0.018892	0.13068	0.19196	0.11892	0.18592	0.13467	0.26127	0.32169	0.19972	0.036929	0.083522	0.31873	0.30625	0.65833	-0.12083	0.41458	0.45833	-0.079167	0.57292	0.20625	-0.20208	0.64583	0.077083	0.15833	0.68125	-0.34583	0.50417	0.26458	143.060	135.350	129.538	-14.722	258.426	93.803	77.327	141.109	246.115	167.420	246.434	318.955	14.422	134.401	48.673	234.678	7.8697e-05	0.00032622	1.8872e-05	428.25	2.0606e-06	4.8483e-06	385.6	154.21	1.417e-06	1.7626e-06	155.32	56.466	57.069	23.541	3.0523e-06	22.144	0.00048826	0.00077348	0.00021021	418.65	8.1952e-06	8.6048e-06	376.3	151.46	7.7247e-06	8.6986e-06	152	56.394	56.863	23.42	8.9472e-06	21.859	134.076	12.025	47.379	-18.886	123.711	105.205	-19.721	-12.885	90.833	103.549	-16.330	-12.219	-9.182	-5.091	178.278	-8.467	-8191	255	
935.106	1	1	0	0	0.15261	0.099787	0.16557	0.22107	0.16046	0.15837	0.19928	0.14951	0.084252	0.12875	0.11817	0.053302	0.19248	0.22573	0.36868	0.2227	0.40417	0.70625	0.070833	0.12708	0.59792	-0.35625	0.50208	0.33542	-0.24583	0.6125	-0.035417	0.047917	0.5875	-0.28542	0.48125	0.38333	260.495	102.693	159.197	138.304	212.003	144.403	192.421	25.429	271.140	284.421	172.939	96.057	25.549	293.703	250.148	146.375	6.86e-05	0.00025485	0.00011565	416.2	1.8126e-06	5.053e-06	370.76	152.82	6.2279e-07	2.392e-06	149.81	55.493	55.097	22.697	4.0943e-06	20.942	0.00054503	0.00089302	0.00025235	410.66	1.0651e-05	1.1494e-05	364.38	150.49	1.2369e-05	1.4297e-05	148.51	55.654	56.064	22.837	2.1884e-05	21.33	138.283	93.335	8.365	-18.204	305.715	153.745	-19.947	-12.958	48.082	204.287	-16.350	-12.480	-9.071	-4.216	122.101	-8.460	-8191	255	
935.203	1	1	0	0	0.13024	0.13663	0.12076	0.10965	0.07129	0.082151	0.097316	0.076653	0.14431	0.17805	0.23684	0.32574	0.17642	0.11061	0.034839	0.11101	0.21458	0.91667	-0.05	0.0041667	0.53333	-0.125	0.40833	0.51458	-0.14375	0.50833	0.21458	0.0375	0.68333	-0.058333	0.38958	0.55	36.030	291.517	229.386	248.822	132.440	326.513	261.093	69.404	292.284	12.061	33.098	235.423	166.198	84.803	-8.514	2.594	4.3888e-05	0.00016471	0.00011205	397.99	1.7828e-06	2.8081e-06	346.98	139.7	1.0537e-06	6.2031e-06	135.27	50.522	52.623	21.357	1.6146e-05	18.573	0.0014712	0.0026719	0.00082691	408.22	3.5923e-05	4.0856e-05	352.64	142.31	4.6036e-05	5.6656e-05	144.48	54.908	58.154	22.922	8.5855e-05	21.129	146.657	255.797	123.144	-19.180	192.947	224.901	-20.447	-13.281	75.590	127.869	-16.655	-12.094	-8.682	-4.332	77.290	-8.153	-8191	255	
935.297	1	1	0	0	0.24619	0.085096	0.047564	0.11702	0.15312	0.079297	0.088847	0.30565	0.10976	0.217	0.16329	0.19896	0.13174	0.23287	0.016562	0.17357	0.225	0.60208	0.44167	-0.022917	0.67917	0.0020833	0.36458	0.44792	-0.19167	0.525	0.12292	-0.072917	0.41667	0.15625	0.275	0.49792	303.500	136.053	165.527	260.248	185.103	76.123	46.963	165.239	270.137	80.308	126.439	-10.918	23.870	235.730	-27.394	69.827	9.201e-05	0.00052108	0.00017482	405.12	4.3873e-06	2.1011e-06	338.79	143.61	5.3473e-06	7.6239e-06	136.29	50.422	53.172	21.276	1.109e-05	17.827	0.0051617	0.0093722	0.0027265	470.61	0.00010792	0.00011846	376.65	155.1	0.00011308	0.00012713	158.09	58.303	62.596	23.719	0.00011796	21.078	159.975	67.491	79.081	-19.139	231.791	143.757	-20.564	-13.208	65.784	146.743	-16.600	-12.055	-9.241	-4.103	-8.535	-7.870	-8191	255	
935.395	1	1	0	0	0.15138	0.057878	0.18505	0.16914	0.25417	0.12966	0.51809	0.076148	0.11761	0.22702	0.31722	0.21257	0.11396	0.19849	0.052941	0.28475	0.058333	0.5125	0.3875	-0.20625	0.72708	0.041667	0.16458	0.6875	-0.035417	0.28542	0.31458	-0.31042	0.7375	0.13542	-0.035417	0.66875	305.253	274.096	271.594	117.993	13.624	-15.197	190.503	-13.397	80.999	172.259	146.723	81.622	100.412	20.476	273.685	7.963	6.4113e-05	0.00044735	0.00018793	418.84	4.0678e-06	1.004e-05	342.38	144.3	2.6618e-06	6.699e-06	133.82	49.789	53.21	20.817	1.9707e-06	17.161	0.0063185	0.011064	0.0031164	490.78	0.00011294	0.00012251	380.71	156.02	0.00010671	0.00012027	155.28	57.022	61.684	23.124	0.00011048	20.304	221.657	202.599	68.059	-19.865	159.635	14.992	-20.353	-13.525	246.283	112.984	-16.383	-12.523	-9.225	-4.151	243.624	-7.825	-8191	255	
935.489	1	1	0	0	0.13537	0.18551	0.2824	0.20845	0.17558	0.15752	0.16964	0.13674	0.13223	0.21826	0.08972	0.24669	0.24948	0.24093	0.098346	0.20034	0.34792	0.29375	0.67292	-0.10417	0.7125	0.43542	-0.00625	0.79167	-0.010417	0.30208	0.37708	-0.22917	0.64792	0.17708	0.058333	0.78125	9.981	237.856	110.802	-14.996	151.025	229.257	92.437	311.190	73.649	149.017	146.568	199.531	2.414	108.933	284.566	250.210	5.6377e-05	0.00091477	0.00013757	418.76	3.9588e-06	1.3175e-05	336.93	141.85	5.1512e-06	1.1854e-05	131.71	47.951	52.433	20.426	1.9915e-06	16.523	0.0058651	0.010293	0.0028643	485.62	0.00010385	0.0001127	369.32	151.96	9.3946e-05	0.0001031	147.72	53.99	59.216	22.303	8.8865e-05	19.061	181.461	102.370	111.255	-19.459	74.337	79.781	-20.783	-13.369	268.194	-6.082	-16.223	-12.186	-8.383	-4.070	253.884	-7.617	-8191	255	
935.585	1	1	0	0	0.16103	0.24422	0.19547	0.14618	0.17706	0.23435	0.18142	0.22227	0.050719	0.18468	0.053618	0.40203	0.22885	0.1099	0.15299	0.046235	0.38333	0.3375	0.56875	-0.1125	0.62083	0.35833	-0.26875	0.65208	0.041667	0.091667	0.5	-0.23542	0.42708	0.44792	-0.052083	0.65208	43.031	150.296	212.560	-18.637	-27.326	-13.158	199.283	-9.064	138.985	2.806	73.879	304.857	202.014	236.550	42.259	78.038	4.764e-05	0.0007276	6.4086e-05	410.19	4.5925e-06	5.0865e-06	330.64	140.72	2.2445e-06	7.9491e-06	129.11	47.745	51.785	20.268	3.2049e-06	16.213	0.0047089	0.0083945	0.0023612	462.9	8.9122e-05	0.00010007	358.58	149.87	9.1912e-05	0.00010682	147.11	54.096	59.984	22.447	0.0001048	19.167	241.603	115.874	-24.108	-19.065	200.732	99.161	-20.455	-13.534	242.722	104.771	-16.460	-11.779	-8.588	-4.622	-17.345	-8.354	-8191	255	
935.706	1	1	0	0	0.11427	0.10021	0.12838	0.12563	0.28794	0.1594	0.24044	0.13235	0.09498	0.18862	0.39593	0.21621	0.23355	0.060479	0.24833	0.30537	0.47083	0.13125	0.59375	-0.066667	0.53333	0.43542	-0.18125	0.4875	0.12083	0.18958	0.68542	-0.029167	0.15	0.50417	-0.22083	0.43542	212.419	238.249	29.183	202.458	35.614	-5.789	30.097	35.921	217.409	39.443	288.911	312.567	-29.264	78.806	0.342	86.868	0.00014001	0.00052407	0.0002439	406.84	1.3849e-06	1.0585e-05	327.02	139.27	6.6055e-06	8.7953e-06	127.16	47.299	51.545	20.125	5.3075e-06	15.894	0.0056816	0.010247	0.0028501	474.01	0.00011007	0.00012104	359.91	150.45	0.00010887	0.0001214	148.31	54.681	60.617	22.558	0.0001151	19.321	126.541	50.877	77.602	-19.970	227.081	38.919	-20.647	-13.738	63.513	127.060	-16.071	-11.966	-9.359	-4.283	89.904	-8.252	-8191	255	
935.802	1	1	0	0	0.033108	0.32659	0.068968	0.19467	0.18662	0.044204	0.241	0.076718	0.13339	0.37965	0.14277	0.087693	0.22449	0.22418	0.086286	0.1305	0.4875	-0.00625	0.80833	-0.20208	0.30208	0.50417	-0.17708	0.52917	0.28125	0.06875	0.67292	0.14167	0.31667	0.725	0.01875	0.62083	248.228	150.857	60.136	206.733	32.061	-29.230	252.877	276.794	90.297	279.820	299.483	257.787	-15.777	28.977	324.086	319.099	4.2367e-05	0.00065295	0.00011745	396.97	1.7326e-06	8.5356e-06	315.27	137.56	5.1198e-06	8.3849e-06	123.95	46.283	50.631	19.726	2.5947e-06	15.54	0.0062066	0.010638	0.002948	466.94	0.00011183	0.00012302	352.22	148.35	0.00010562	0.00011319	142.92	52.781	58.316	21.622	9.0264e-05	18.073	207.373	45.294	22.686	-19.190	67.255	174.275	-20.943	-13.707	168.714	119.017	-17.176	-11.319	-8.992	-4.141	172.719	-8.395	-8191	255	
935.898	1	1	0	0	0.10802	0.21625	0.35319	0.2013	0.19368	0.16986	0.14156	0.13829	0.067965	0.06197	0.15552	0.27639	0.31488	0.072919	0.031172	0.24817	0.66458	-0.14375	0.71042	0.25417	0.27083	0.61667	-0.25417	0.54167	0.375	-0.16042	0.59167	0.05	0.1625	0.58333	-0.125	0.26667	151.730	97.129	218.626	291.819	105.194	123.784	93.411	245.014	-2.426	15.216	39.300	45.205	44.750	-26.245	90.383	164.944	2.6052e-05	0.00093055	0.0001234	378.21	4.3767e-06	7.0589e-06	306.02	131.71	7.9932e-06	1.1936e-05	121.47	45.113	49.101	18.952	1.7897e-06	15.397	0.0049133	0.0086535	0.0024216	439.93	9.5809e-05	0.00010306	334.09	142.46	9.1529e-05	0.00010123	137.88	51.122	56.488	20.973	9.2716e-05	17.994	67.622	200.527	42.230	-19.119	159.254	179.510	-20.623	-13.130	132.986	172.538	-16.664	-11.799	-8.873	-4.760	94.306	-8.797	-8191	255	
935.995	1	1	0	0	0.27121	0.27007	0.088851	0.035949	0.2221	0.046641	0.16884	0.070588	0.26004	0.13304	0.25434	0.14863	0.23586	0.34011	0.27574	0.31549	0.58333	-0.035417	0.67708	0.2375	-0.070833	0.65625	-0.18125	0.35833	0.45208	-0.3125	0.39792	0.072917	0.039583	0.75417	-0.027083	0.16042	280.213	-17.110	207.933	254.333	150.578	84.736	139.959	313.870	151.428	-7.120	86.709	282.998	198.371	142.408	10.357	205.979	1.882e-05	0.00016819	0.00011739	375.75	4.1509e-06	2.8553e-06	300.74	130.86	4.8949e-06	8.4164e-06	119.43	44.729	48.925	19.095	2.6715e-06	14.95	0.0050162	0.0084735	0.0023292	427.62	8.4691e-05	8.8724e-05	324.21	139.01	8.0229e-05	8.7753e-05	133.93	49.815	55.143	20.617	8.535e-05	17.437	237.498	278.650	100.174	-19.606	217.735	50.327	-20.354	-13.468	184.673	160.710	-16.463	-11.666	-9.070	-3.917	328.285	-7.906	-8191	255	
936.091	1	1	0	0	0.071079	0.069289	0.16688	0.27882	0.12386	0.070678	0.19116	0.037368	0.12161	0.067809	0.19024	0.12156	0.24021	0.095713	0.14666	0.16092	0.97917	-0.09375	0.61875	0.27708	0.052083	0.56042	-0.19792	0.22917	0.45833	-0.21875	0.52292	0.26667	-0.1125	0.41667	0.054167	0.26875	213.945	48.003	248.253	189.074	143.037	325.430	313.519	138.643	39.304	248.131	-6.852	271.062	144.018	318.561	75.925	181.658	0.00011384	0.00052027	0.00010018	371.79	4.5811e-06	7.8347e-06	293.65	131.75	7.7527e-06	7.1888e-06	118.42	43.953	49.229	19.154	3.9378e-06	14.756	0.0048167	0.0084313	0.002418	431.54	9.1042e-05	9.8792e-05	323.75	140.56	9.0343e-05	0.00010035	135.84	50.226	56.345	21.022	9.4371e-05	17.443	188.904	-21.376	226.689	-19.460	-11.045	291.235	-20.784	-13.440	50.539	131.868	-17.005	-11.646	-8.847	-4.603	160.137	-8.244	-8191	255	
936.187	1	1	0	0	0.22162	0.18579	0.23898	0.078721	0.22912	0.26469	0.2532	0.085767	0.19771	0.12677	0.16475	0.13192	0.14499	0.055659	0.091983	0.24046	0.81667	-0.11458	0.43333	0.35	-0.225	0.44583	-0.10833	0.033333	0.63333	-0.22292	0.22083	0.52083	-0.14583	0.56042	0.095833	0.077083	77.315	232.199	215.715	184.011	211.261	72.886	66.688	55.550	211.023	186.914	94.449	160.780	103.103	-21.677	265.485	274.857	7.51e-05	0.00050248	8.3797e-05	374.49	2.6478e-06	4.6783e-06	292.28	131.83	4.9988e-06	3.5331e-06	118.29	44.172	49.731	19.263	4.7409e-06	14.84	0.0050112	0.0087258	0.0024416	431.57	9.0185e-05	9.5492e-05	320.47	140.28	8.3757e-05	9.2174e-05	133.61	49.689	55.844	20.974	8.9198e-05	17.409	219.929	226.746	-30.262	-19.446	185.978	170.055	-20.311	-13.583	143.088	244.783	-17.088	-11.663	-9.353	-4.213	-23.351	-8.670	-8191	255	
936.283	1	1	0	0	0.44324	0.12483	0.34084	0.10706	0.17101	0.20603	0.30484	0.20123	0.19206	0.17226	0.21165	0.15096	0.2371	0.26117	0.076452	0.16124	0.82083	-0.21875	0.29792	0.52917	-0.24583	0.59792	0.19375	-0.020833	0.85833	-0.24583	0.2125	0.63125	-0.23542	0.48333	0.42292	-0.2	-2.710	162.684	149.529	152.712	70.934	256.035	244.546	316.559	70.461	181.764	32.391	190.068	322.215	209.631	205.791	238.102	9.3091e-05	0.00082307	0.00011568	372.5	3.4425e-06	1.0091e-05	290.53	132.48	3.906e-06	7.8581e-06	115.89	44.027	49.87	19.725	2.7218e-06	15.128	0.0048339	0.0085229	0.0024109	426.62	8.4457e-05	9.0709e-05	314.25	139.19	7.5426e-05	8.2906e-05	130.33	48.915	55.165	20.926	7.6088e-05	17.241	223.013	178.938	318.897	-18.927	230.480	139.874	-20.319	-13.178	208.264	203.683	-16.534	-11.562	-8.930	-4.628	322.735	-7.935	-8191	255	
936.377	1	1	0	0	0.12437	0.061512	0.13989	0.16572	0.16605	0.07452	0.064648	0.061287	0.15236	0.12461	0.14251	0.070621	0.29209	0.10386	0.16773	0.35077	1.1375	-0.010417	0.27917	0.57292	-0.16875	0.62083	0.47292	-0.022917	0.74167	0.03125	0.01875	0.65208	-0.23333	0.44167	0.41042	-0.1625	-28.180	68.869	42.089	0.914	219.832	255.777	280.222	272.953	240.900	146.034	-3.662	-15.938	-18.334	98.342	128.738	-12.450	5.2842e-05	0.00083613	6.5708e-05	371.19	1.3799e-06	5.2453e-06	288.51	132.64	3.9512e-06	6.6057e-06	120.95	45.959	50.401	19.993	5.6263e-06	15.783	0.0042344	0.0075929	0.0021877	421.06	8.2894e-05	9.0373e-05	316.23	140.24	7.9934e-05	8.9856e-05	136.04	51.379	57.024	21.845	9.1745e-05	18.368	199.538	38.114	254.652	-19.121	11.152	296.355	-20.364	-13.099	-18.305	223.918	-16.647	-11.610	-9.141	-4.167	43.909	-8.126	-8191	255	
936.475	1	1	0	0	0.060508	0.13478	0.19127	0.36351	0.097371	0.072436	0.10955	0.13483	0.23355	0.24899	0.18684	0.19369	0.10381	0.13107	0.16904	0.096991	1.1625	0.0083333	0.13125	0.76042	-0.17708	0.30625	0.52083	-0.21458	0.55	0.14375	-0.16667	0.71458	-0.23125	0.17083	0.66875	-0.14583	154.128	174.861	136.255	307.745	189.910	297.941	179.950	184.949	-19.235	27.831	222.281	242.559	43.884	115.837	226.189	315.523	7.3403e-05	0.00012466	0.00021299	383.43	6.4338e-06	5.6519e-06	301.11	134.45	6.9884e-06	1.1171e-05	122.16	46.443	50.943	20.418	9.2135e-06	16.274	0.0050123	0.0090282	0.0024871	435.04	8.8616e-05	9.6233e-05	327.28	142.97	8.309e-05	9.4145e-05	138.33	52.101	57.658	22.243	9.008e-05	18.745	92.191	311.732	185.880	-19.520	235.700	-30.350	-20.689	-13.332	154.481	122.099	-16.591	-11.660	-9.357	-4.293	195.865	-8.542	-8191	255	
936.594	1	1	0	0	0.19507	0.23429	0.21547	0.10261	0.17574	0.070028	0.10363	0.20866	0.14518	0.1424	0.26975	0.16796	0.2229	0.20137	0.20359	0.2892	0.88333	0.41042	-0.03125	0.63542	-0.15833	0.4	0.53333	-0.31042	0.55	0.22917	-0.25833	0.4	-0.10417	0.275	0.59583	-0.27083	216.454	71.522	303.763	273.491	173.628	237.539	-24.598	-11.842	178.673	287.593	8.009	268.543	258.267	296.740	212.117	209.743	0.00010168	0.00068587	0.00027222	380.93	5.0047e-06	8.5829e-07	304	136.11	6.9083e-06	4.6163e-06	124.79	47.071	52.069	20.932	2.8232e-06	16.689	0.0049134	0.0086922	0.0023943	435.66	8.8386e-05	9.4705e-05	330.68	144.13	8.2705e-05	9.2556e-05	139.65	52.649	58.265	22.641	8.5428e-05	19.07	119.245	36.392	126.523	-19.419	214.599	261.860	-21.146	-13.210	164.233	52.212	-15.988	-11.710	-8.520	-4.382	284.141	-7.988	-8191	255	
936.668	1	1	0	0	0.14031	0.1423	0.32904	0.11839	0.23844	0.13467	0.34234	0.23385	0.2416	0.13618	0.22376	0.071023	0.11571	0.16756	0.14977	0.082012	0.76458	0.475	-0.077083	0.59375	-0.16667	0.12708	0.72292	-0.15417	0.32708	0.59167	-0.19792	0.56042	0.21667	-0.033333	0.53958	-0.48542	150.509	187.125	136.951	102.240	309.296	291.649	294.314	313.823	299.365	311.602	277.117	-17.634	210.256	161.631	241.407	3.151	0.00011099	0.00018195	0.00041418	388.29	2.6874e-06	1.0342e-05	312.3	137.02	2.6331e-06	1.3141e-05	127.08	47.965	52.377	21.292	7.1574e-06	16.686	0.0046726	0.0082527	0.0022476	440.08	8.5159e-05	9.2197e-05	335.95	145.52	8.2997e-05	9.3152e-05	141.66	53.507	58.944	22.865	8.6854e-05	19.266	176.482	179.027	29.013	-19.178	139.681	153.378	-20.353	-13.464	97.516	102.914	-16.790	-11.710	-8.788	-3.748	78.151	-7.855	-8191	255	
936.786	1	1	0	0	0.21455	0.11063	0.27847	0.23201	0.1146	0.34694	0.27221	0.047418	0.068742	0.17643	0.14774	0.26296	0.20617	0.23996	0.26355	0.16608	0.66042	0.45625	-0.085417	0.60625	0.077083	0.072917	0.50833	-0.064583	0.37292	0.55	-0.33333	0.45417	0.20417	-0.052083	0.71667	-0.05	233.481	137.964	112.368	247.544	265.292	-28.234	276.855	67.835	28.735	252.186	51.503	219.959	-3.294	326.846	17.512	296.885	0.00016794	0.00083341	0.00010553	391.29	2.1121e-06	6.0306e-06	314.95	138.48	3.6919e-06	1.0028e-05	127.63	48.277	51.988	21.201	6.0921e-06	17.019	0.004667	0.0080154	0.0022127	441.21	8.3599e-05	8.7189e-05	338.1	146.06	7.9299e-05	8.6525e-05	141.63	53.398	58.526	22.87	8.2915e-05	19.449	176.703	160.451	299.980	-19.293	19.565	4.512	-20.374	-12.980	42.005	107.992	-16.039	-11.367	-9.186	-4.198	241.408	-7.344	-8191	255	
936.883	1	1	0	0	0.098598	0.065062	0.33625	0.19076	0.12238	0.038419	0.17073	0.11825	0.17352	0.22161	0.053538	0.055497	0.33438	0.19548	0.1926	0.24513	0.625	0.68125	-0.25417	0.45833	0.21875	-0.11667	0.62708	-0.15208	0.225	0.80208	-0.21875	0.49375	0.32708	-0.2875	0.76667	-0.054167	99.131	116.005	42.505	-6.554	257.412	-13.976	294.240	209.800	156.760	111.311	256.788	320.710	317.955	118.949	147.442	248.079	6.4652e-05	0.0010549	0.00023173	397.05	2.8119e-06	3.8985e-06	318.22	139.2	6.1748e-06	1.3731e-05	128.33	48.287	52.471	21.349	3.021e-06	17.045	0.0046303	0.0082498	0.0022867	450.46	8.7382e-05	9.2648e-05	343.11	146.95	8.2765e-05	9.0665e-05	143.22	53.756	59.045	23.005	8.7984e-05	19.563	119.509	33.665	284.404	-19.347	305.071	139.949	-20.722	-13.245	115.876	-0.767	-16.561	-11.936	-8.924	-4.421	326.213	-7.939	-8191	255	
936.979	1	1	0	0	0.18827	0.07549	0.27821	0.16658	0.18471	0.22349	0.22172	0.28529	0.22652	0.081077	0.36348	0.035402	0.26813	0.21863	0.11596	0.028498	0.40833	0.73958	-0.097917	0.39375	0.41875	-0.1625	0.45417	0.014583	0.15	0.8	-0.16667	0.29583	0.45417	-0.27708	0.45417	0.26875	11.739	151.671	276.790	111.801	0.319	278.305	-8.613	294.283	162.443	311.110	60.215	244.808	251.281	223.447	95.553	27.348	0.00017125	0.00058842	0.00026757	400.93	5.8828e-06	9.1539e-06	321.55	139.36	4.3756e-06	8.7786e-06	127.9	48.216	52.054	21.148	9.0329e-06	16.92	0.0048379	0.0083582	0.0023858	455.05	8.9124e-05	9.4276e-05	347.29	147.01	8.2611e-05	9.0838e-05	143.3	53.482	58.649	22.793	8.7235e-05	19.276	139.834	279.703	66.501	-19.667	206.876	143.048	-20.642	-13.603	299.965	-20.925	-16.882	-11.895	-8.529	-4.273	12.326	-8.443	-8191	255	
937.075	1	1	0	0	0.12018	0.12713	0.076574	0.20097	0.14631	0.32628	0.09897	0.29965	0.19334	0.096801	0.1117	0.15608	0.13477	0.022661	0.071972	0.15342	0.25625	0.70833	0.13333	0.49583	0.64792	-0.2625	0.46875	0.2625	-0.2	0.68958	-0.072917	0.28125	0.325	0.1625	0.37292	0.28125	208.291	92.576	324.202	165.259	70.602	316.039	126.941	250.159	304.668	24.919	228.722	237.559	63.786	72.944	-4.674	2.633	0.00016899	0.00057937	0.000197	403.39	2.2214e-06	6.0977e-07	322.58	137.94	2.1304e-06	6.2026e-06	126.19	46.846	51.416	20.624	4.6054e-06	16.278	0.0046694	0.008175	0.0023013	455.16	8.4555e-05	9.0912e-05	346.79	145.94	7.9923e-05	8.9106e-05	141.13	52.348	57.683	22.386	8.4862e-05	18.716	74.543	122.054	122.853	-19.871	235.580	149.270	-21.348	-13.754	183.277	101.537	-17.093	-12.108	-9.022	-4.343	128.009	-8.152	-8191	255	
937.196	1	1	0	0	0.19619	0.14556	0.19685	0.18907	0.10879	0.21818	0.21657	0.064612	0.18415	0.18509	0.15626	0.037898	0.27431	0.39102	0.19386	0.34639	0.17917	0.55833	-0.0125	0.1875	0.69167	-0.1125	0.53333	0.29167	-0.18958	0.61042	0.12917	0.25	0.61875	-0.23958	0.35417	0.29167	314.407	122.561	294.776	256.034	-16.813	-20.131	239.636	270.175	274.531	-28.863	10.071	16.665	205.378	-22.188	143.207	251.187	7.2958e-05	0.00096652	0.00024634	403.36	5.7301e-06	5.9096e-06	316.2	136.12	4.5713e-06	6.3486e-06	124.82	45.936	49.928	20.079	1.0737e-05	15.747	0.0045512	0.008025	0.0023214	454.09	8.4305e-05	9.0523e-05	343.66	144.45	7.6316e-05	8.5415e-05	138.16	50.704	56.003	21.577	7.6245e-05	17.708	76.713	134.992	86.849	-19.948	5.540	161.598	-20.943	-13.134	156.398	98.033	-16.437	-12.288	-8.797	-4.089	132.917	-7.815	-8191	255	
937.267	1	1	0	0	0.22712	0.16987	0.12158	0.090194	0.10381	0.090245	0.25406	0.21688	0.34013	0.13842	0.16216	0.17477	0.12483	0.12948	0.083164	0.13564	0.23542	0.8	0.23333	0.020833	0.625	-0.18333	0.13542	0.47917	-0.0875	0.60417	0.30625	-0.17917	0.7	0.054167	0.31875	0.78333	100.833	310.953	98.248	214.128	246.122	218.141	120.375	-23.457	98.333	316.400	205.734	279.290	69.956	287.537	13.305	245.415	6.4142e-05	0.00028886	0.0002711	393.17	4.5344e-06	2.806e-06	308.47	133.69	7.457e-06	7.1324e-06	121.49	44.249	48.866	19.288	4.5768e-06	14.772	0.0039016	0.0067926	0.0019123	433.41	6.6921e-05	7.2159e-05	328.91	139.11	5.9486e-05	6.7777e-05	131.33	47.927	53.134	20.416	5.9887e-05	16.266	228.555	258.744	111.231	-20.146	222.759	276.303	-20.621	-13.363	149.072	204.381	-16.814	-11.408	-8.869	-4.029	-27.085	-7.587	-8191	255	
937.363	1	1	0	0	0.23949	0.12995	0.27984	0.14806	0.1382	0.33635	0.16045	0.079325	0.24602	0.094227	0.1748	0.14913	0.13499	0.14495	0.16052	0.45431	0.0875	0.56458	0.19167	-0.17292	0.58542	-0.0083333	0.085417	0.4	-0.06875	0.4875	0.40208	-0.21458	0.675	0.20208	0.125	0.89583	1.885	12.043	321.257	298.974	12.975	113.658	174.221	254.961	146.175	114.079	177.021	219.337	277.705	268.169	58.003	293.155	7.0971e-05	0.00036995	3.9632e-05	383.53	2.9795e-06	3.4878e-06	307.35	131.4	3.666e-06	4.66e-06	119.22	43.522	47.58	18.31	4.8938e-06	14.538	0.0030722	0.0053817	0.0014623	410.85	5.2696e-05	5.7219e-05	318.5	134.71	4.8204e-05	5.4055e-05	127.05	46.249	50.982	19.117	4.4563e-05	15.645	90.083	286.115	98.582	-19.459	317.068	206.133	-20.495	-13.524	194.191	221.066	-17.046	-11.900	-9.317	-4.124	62.261	-7.903	-8191	255	
937.484	1	1	0	0	0.1471	0.18457	0.060362	0.13372	0.10457	0.32823	0.15771	0.078844	0.10273	0.14088	0.19509	0.29306	0.21629	0.18542	0.22062	0.24975	0.36042	0.55417	0.525	-0.15625	0.61042	-0.072917	-0.14583	0.39375	-0.11875	0.32292	0.38542	-0.2125	0.65625	0.079167	0.077083	0.62292	168.018	160.014	62.643	32.648	265.087	-13.859	114.295	291.807	97.214	51.391	181.169	-6.079	35.795	-19.417	160.537	299.327	6.1893e-05	0.00047063	0.00016147	391.27	8.7302e-07	7.6636e-06	320.68	135	1.0834e-06	2.9808e-06	127.57	46.826	50.111	19.361	3.4793e-06	15.982	0.0022654	0.0038173	0.00098889	400.18	3.5251e-05	3.5846e-05	323.33	135.58	2.7695e-05	2.9452e-05	129.72	47.903	51.508	19.538	2.1773e-05	16.39	131.465	87.858	47.901	-19.916	17.101	65.130	-20.413	-13.445	32.063	137.750	-16.608	-11.833	-9.317	-5.030	279.692	-8.891	-8191	255	
937.578	1	1	0	0	0.25066	0.18929	0.2058	0.060801	0.17767	0.05475	0.10214	0.16709	0.25611	0.086254	0.20126	0.060709	0.22091	0.33087	0.10916	0.065665	0.32708	0.52917	0.63958	-0.041667	0.64792	0.12292	-0.14167	0.68125	-0.2375	0.19583	0.42292	-0.17292	0.41042	0.39583	-0.072917	0.525	75.186	-13.162	23.085	246.744	218.184	19.165	165.508	303.730	291.569	318.334	287.001	185.353	179.115	307.222	305.373	9.325	8.4089e-05	0.00042666	8.0909e-05	382.74	4.1937e-07	2.8924e-06	329.86	140.25	7.9599e-07	2.3935e-06	134.65	49.371	51.501	20.337	1.1772e-06	17.602	0.0011251	0.0017767	0.00047219	383.44	1.6208e-05	1.615e-05	325.09	138.62	1.3394e-05	1.404e-05	133.43	49.309	51.737	20.287	1.2028e-05	17.527	121.524	9.533	4.581	-19.307	100.848	86.069	-20.653	-13.425	241.960	74.246	-16.979	-12.177	-9.546	-4.790	88.566	-9.202	-8191	255	
937.675	1	1	0	0	0.18894	0.051594	0.16311	0.13985	0.11973	0.18232	0.20773	0.12341	0.056431	0.17695	0.31303	0.092757	0.19356	0.14703	0.31035	0.14667	0.3875	0.24167	0.74375	-0.097917	0.41042	0.37292	-0.20417	0.80208	0.175	0.1375	0.58542	-0.18958	0.38333	0.40833	-0.077083	0.59792	-14.842	322.304	313.244	140.872	-0.248	59.153	-11.409	257.654	252.702	131.316	188.438	239.866	46.862	-24.306	120.810	281.404	5.4068e-05	0.00019187	5.9054e-05	386.09	1.3394e-06	1.0247e-06	330.11	138.48	5.8026e-07	1.0505e-06	129.19	47.588	49.734	19.588	2.5738e-06	16.478	0.00067403	0.0010663	0.00029853	378.35	1.141e-05	1.2111e-05	323.88	135.5	1.1651e-05	1.3101e-05	128.47	47.913	50.327	19.615	1.6939e-05	16.72	161.173	109.974	58.845	-18.966	90.819	143.214	-20.647	-13.454	-26.130	243.165	-16.391	-12.326	-8.855	-4.956	97.451	-8.573	-8191	255	
937.771	1	1	0	0	0.10002	0.16075	0.052921	0.22988	0.19808	0.069233	0.21164	0.28761	0.069377	0.32398	0.1395	0.06233	0.11119	0.29389	0.089635	0.080845	0.37917	0.12083	0.75208	-0.0625	0.48125	0.58958	-0.21875	0.74167	0.24583	-0.11667	0.72917	-0.0625	0.50417	0.43125	-0.14375	0.41875	-6.930	36.899	36.265	327.458	179.087	17.794	289.653	294.525	-27.091	250.714	297.776	239.458	44.781	272.443	230.410	-14.743	4.4666e-05	0.0001846	7.2876e-05	374	2.9151e-06	4.027e-06	316.11	130.69	2.0045e-06	4.5182e-06	121.56	44.968	47.852	18.826	5.5507e-06	15.426	0.0010822	0.0019203	0.00055154	379.41	2.2685e-05	2.4264e-05	314.98	131.61	2.4131e-05	2.7414e-05	123.37	46.263	49.809	19.32	3.1788e-05	16.094	200.624	-21.472	141.627	-19.398	117.829	248.796	-20.753	-13.513	-14.229	124.969	-16.267	-11.702	-9.119	-4.240	88.256	-7.797	-8191	255	
937.891	1	1	0	0	0.20245	0.2187	0.14817	0.21663	0.094045	0.078633	0.15346	0.074593	0.14548	0.12043	0.14679	0.096592	0.09705	0.049339	0.33018	0.07172	0.63125	0.10208	0.83958	-0.17083	0.25417	0.49583	-0.38125	0.46875	0.32708	-0.17708	0.53542	0.15625	0.28542	0.63125	-0.17917	0.51458	290.261	-24.836	185.159	30.998	206.157	212.729	149.862	47.066	291.165	325.592	168.309	-18.573	14.472	94.888	84.947	89.721	6.2329e-05	6.7723e-05	0.00011887	377.01	3.5676e-06	7.701e-06	302.95	130	3.9534e-06	7.2956e-06	116.99	42.809	47.773	18.558	9.5753e-06	14.343	0.0019315	0.0034351	0.0010223	395.57	4.2698e-05	4.711e-05	311.96	133.36	4.6535e-05	5.2702e-05	124.47	46.091	51.513	19.6	5.7733e-05	16.074	119.284	1.103	107.857	-19.278	56.278	23.174	-20.866	-13.539	68.293	145.415	-16.672	-11.777	-9.243	-4.834	73.406	-7.837	-8191	255	
937.963	1	1	0	0	0.15189	0.39987	0.10411	0.19132	0.27212	0.14296	0.10244	0.11987	0.11638	0.11039	0.11113	0.072315	0.095028	0.10558	0.20711	0.13079	0.87292	-0.29167	0.57917	-0.020833	-0.0041667	0.66667	0.054167	0.44792	0.66042	-0.020833	0.69583	0.27708	0.04375	0.84375	-0.04375	0.46458	185.686	82.434	171.216	159.213	215.321	145.337	93.331	97.477	139.296	112.755	131.773	328.376	277.514	318.533	186.763	185.307	5.5186e-05	0.00048089	0.00020883	377.88	3.6888e-06	4.8375e-06	294.76	129.65	2.8709e-06	6.8189e-06	113.31	42.238	47.22	18.05	2.0027e-06	13.91	0.0033871	0.0060294	0.0017409	416.26	6.8427e-05	7.4988e-05	315.41	135.92	6.7399e-05	7.5828e-05	126.99	46.844	52.702	19.575	7.2057e-05	15.816	121.060	147.504	175.540	-19.538	108.779	150.344	-20.711	-13.624	142.523	122.619	-16.811	-12.389	-9.145	-4.599	208.068	-8.357	-8191	255	
938.059	1	1	0	0	0.17567	0.071987	0.16101	0.11753	0.23219	0.18039	0.048539	0.12393	0.1504	0.18712	0.057716	0.18077	0.20911	0.3291	0.079726	0.24256	0.78542	-0.029167	0.59792	0.25	-0.035417	0.625	-0.18542	0.31042	0.40625	-0.15417	0.44167	0.33958	-0.17083	0.43958	-0.10208	0.32708	-30.993	75.801	312.198	183.383	91.236	52.928	129.195	277.701	246.800	159.657	7.107	242.403	11.876	29.852	90.870	239.832	0.00012199	0.00083596	8.2236e-05	374.4	4.4323e-06	1.7398e-06	286.21	128.49	3.4988e-06	9.0959e-06	112.58	40.957	46.409	17.637	6.8179e-07	13.392	0.0037197	0.006403	0.0017865	411.81	6.4411e-05	6.9884e-05	304.19	133.19	5.9553e-05	6.5896e-05	122.24	44.792	50.928	18.838	5.9233e-05	14.996	109.538	13.522	113.441	-19.641	81.534	212.041	-21.165	-13.649	130.080	147.338	-16.853	-11.940	-9.161	-4.288	98.841	-8.126	-8191	255	
938.155	1	1	0	0	0.20223	0.20642	0.32029	0.17319	0.2297	0.11819	0.25551	0.24235	0.1122	0.31661	0.47116	0.02918	0.17547	0.114	0.14953	0.11937	1.0604	-0.20208	0.55	0.29167	-0.079167	0.42917	0.020833	0.091667	0.64583	-0.14375	0.3125	0.37708	0.0020833	0.55208	0.045833	0.14375	-16.502	105.347	28.661	182.626	17.006	65.298	-25.255	-3.815	310.833	18.979	-5.834	11.850	213.279	133.204	110.166	195.611	0.00013502	0.00063605	6.4148e-05	368.5	4.4926e-06	3.8128e-06	286.8	126.71	4.3802e-06	2.7644e-06	112.31	41.8	46.255	17.704	1.8233e-06	13.863	0.0030723	0.0053552	0.0014728	396.48	5.1821e-05	5.521e-05	298.12	130.21	4.5663e-05	5.0628e-05	119.16	44.364	49.404	18.396	4.0133e-05	14.855	128.298	-20.129	162.824	-19.125	54.158	42.467	-20.440	-13.934	185.525	31.830	-16.360	-12.253	-8.747	-4.399	243.344	-8.471	-8191	255	
938.276	1	1	0	0	0.083526	0.21894	0.088804	0.24537	0.084714	0.082084	0.20499	0.18707	0.14362	0.16245	0.16457	0.095995	0.10627	0.088544	0.35947	0.28607	1.1	-0.1875	0.37708	0.44792	-0.10417	0.57083	-0.11042	-0.020833	0.65625	-0.00625	0.4375	0.5625	-0.23542	0.48542	0.13958	-0.077083	317.123	293.823	168.309	-23.879	18.069	40.183	159.036	269.546	165.973	258.607	41.387	280.674	183.306	271.804	93.371	133.521	0.00010837	0.00086077	3.4819e-05	372.3	1.6285e-06	3.0101e-06	303.34	130.67	1.3542e-06	4.4964e-06	123.34	45.958	49.09	18.763	4.027e-06	15.668	0.0019869	0.0034256	0.00090708	382.3	3.0479e-05	3.2255e-05	306.1	131.58	2.4642e-05	2.704e-05	125.02	46.923	50.311	19.018	2.1608e-05	15.93	137.238	61.450	238.912	-19.643	9.077	236.671	-20.502	-13.300	110.224	179.599	-16.154	-12.049	-9.308	-4.880	321.633	-8.466	-8191	255	
938.370	1	1	0	0	0.09669	0.21139	0.12706	0.24699	0.21276	0.32061	0.28173	0.13803	0.084938	0.22364	0.13192	0.037602	0.087258	0.21953	0.14489	0.19247	0.87083	-0.15625	0.225	0.38958	-0.13333	0.58542	0.375	-0.10625	0.7	-0.027083	0.20417	0.57083	-0.27708	0.29167	0.29167	-0.11042	133.349	269.198	244.292	-18.297	-20.251	110.767	248.340	172.877	119.368	118.069	86.059	209.734	61.215	60.922	14.360	215.052	6.7591e-05	0.00039639	6.326e-05	370.58	2.2542e-06	2.8465e-06	310.35	133.31	5.8884e-07	3.7404e-06	124.92	46.895	49.224	19.205	2.012e-06	15.923	0.0011514	0.001975	0.0005345	373.47	1.9491e-05	2.1576e-05	311.47	132.92	2.0016e-05	2.2041e-05	126.18	47.442	50.412	19.378	2.4236e-05	16.249	153.054	53.070	55.735	-19.095	95.892	165.919	-20.409	-13.544	324.556	137.449	-16.914	-12.189	-9.246	-4.775	45.844	-8.637	-8191	255	
938.468	1	1	0	0	0.13034	0.099468	0.14533	0.18736	0.17134	0.099881	0.15464	0.086843	0.19335	0.086327	0.12037	0.072325	0.20188	0.3885	0.17042	0.11515	1.0271	0.11458	0.0083333	0.45833	-0.17292	0.52083	0.49583	-0.29375	0.73125	0.035417	0.1	0.67292	-0.16667	0.35	0.3875	-0.36875	149.308	76.505	26.136	49.899	307.024	10.978	217.101	66.082	137.625	106.695	-27.857	275.581	237.081	70.609	41.853	147.545	6.8724e-05	0.00038607	0.00024023	371.63	3.2968e-06	2.3883e-06	309.57	130.52	3.3464e-06	6.3754e-06	120.89	44.627	48.104	18.822	3.7851e-06	15.08	0.0014464	0.0025283	0.00071639	379.03	2.9305e-05	3.2205e-05	311.68	131.88	3.2095e-05	3.6301e-05	124.93	46.891	50.655	19.533	4.0863e-05	16.224	125.983	46.863	122.348	-19.340	20.958	120.611	-20.660	-13.175	134.312	298.610	-16.547	-11.467	-8.437	-4.529	116.855	-8.212	-8191	255	
938.564	1	1	0	0	0.2113	0.37303	0.12329	0.13132	0.1128	0.13766	0.060637	0.36476	0.17607	0.34094	0.13665	0.36725	0.2281	0.12192	0.050962	0.23684	0.97917	0.091667	0.022917	0.83542	-0.072917	0.26458	0.3375	-0.26667	0.70625	0.23542	-0.066667	0.56458	-0.072917	0.11042	0.475	-0.29375	251.275	242.221	278.367	257.748	322.146	-27.193	191.896	-1.074	185.092	-14.101	126.186	294.472	-3.470	4.888	107.236	177.646	0.00013017	0.00068019	0.00015369	367.24	2.0902e-06	4.1584e-06	296.64	129.36	3.5183e-06	4.2851e-06	115.56	43.228	47.606	18.381	5.1181e-06	14.377	0.0024313	0.0043145	0.001279	394.44	5.3172e-05	5.9096e-05	311.43	133.74	5.6719e-05	6.3716e-05	125.95	46.979	52.322	19.735	6.6236e-05	16.235	136.705	2.190	114.746	-19.525	-6.877	86.300	-20.711	-13.616	302.205	34.211	-16.048	-11.738	-9.309	-4.026	137.841	-8.225	-8191	255	
938.659	1	1	0	0	0.24537	0.11384	0.13984	0.044969	0.26601	0.084868	0.037997	0.14013	0.11785	0.061217	0.19546	0.24449	0.18405	0.21863	0.12963	0.1516	0.625	0.17292	-0.029167	0.69583	-0.091667	0.15417	0.63333	-0.39792	0.51875	0.24792	-0.095833	0.80625	0.15208	0.26667	0.72083	-0.18125	-25.653	306.742	87.824	275.967	-0.344	204.531	139.738	45.396	306.396	189.564	233.232	-19.938	133.986	39.307	192.023	50.149	7.5738e-05	0.00029986	0.0001139	371.01	2.3069e-06	4.6677e-06	292.96	129.1	1.4817e-06	3.492e-06	114.35	42.27	47.552	18.324	9.4947e-06	13.982	0.0037156	0.0064741	0.0018132	409.01	6.7728e-05	7.2249e-05	310.34	134.31	6.2162e-05	6.7836e-05	124.37	46.125	52.235	19.464	6.261e-05	15.716	176.721	283.429	217.903	-19.409	303.825	75.104	-20.381	-13.251	202.677	87.087	-16.808	-11.783	-8.739	-4.293	110.106	-7.765	-8191	255	
938.755	1	1	0	0	0.20473	0.16163	0.1426	0.2203	0.20307	0.28394	0.13963	0.2374	0.23006	0.13317	0.17387	0.2255	0.129	0.16967	0.12217	0.19468	0.73958	0.40208	-0.041667	0.57292	0.14792	0.08125	0.5875	-0.13125	0.52708	0.5625	-0.13125	0.52083	0.35	0.15417	0.73542	-0.22083	285.313	223.251	226.581	250.614	82.258	31.928	222.492	175.087	16.130	57.197	116.798	284.943	34.671	230.414	283.062	129.264	5.9175e-05	0.00084116	0.00021016	367.88	4.8691e-06	3.6538e-06	290.13	128.29	5.0586e-06	6.467e-06	113.17	41.093	47.023	18.092	2.2636e-06	13.834	0.003501	0.0059464	0.0016728	404.49	6.2585e-05	6.5497e-05	305.42	133.13	5.6402e-05	6.1295e-05	121.89	44.905	50.906	19.076	5.3732e-05	15.217	170.383	62.821	-15.011	-19.167	148.808	126.694	-20.702	-13.798	41.302	18.020	-16.433	-11.483	-8.954	-4.277	110.046	-8.122	-8191	255	
938.876	1	1	0	0	0.19157	0.032921	0.01502	0.081854	0.26137	0.2282	0.015037	0.076767	0.15581	0.31335	0.11778	0.10677	0.15227	0.074803	0.178	0.069598	0.74375	0.64792	-0.2375	0.45	0.3625	-0.045833	0.53125	-0.16042	0.27917	0.5375	-0.18333	0.36042	0.30208	-0.15	0.72917	-0.041667	201.737	105.814	240.818	182.441	21.843	66.461	57.157	-17.253	81.308	41.372	116.445	100.500	103.852	105.293	175.331	-2.657	2.2067e-05	0.00033031	0.00015373	371.69	3.4093e-06	1.2197e-05	295.69	129.4	3.0718e-06	5.8195e-06	116.91	42.742	47.937	18.356	4.1204e-06	14.534	0.0028781	0.0048974	0.0013564	396.89	4.9472e-05	5.1759e-05	306.9	131.94	4.3697e-05	4.9017e-05	123.12	45.356	50.718	19.119	4.2618e-05	15.478	207.817	97.314	164.960	-18.744	208.103	204.207	-20.351	-13.271	155.059	138.013	-16.125	-11.143	-8.231	-3.858	121.746	-7.977	-8191	255	
938.972	1	1	0	0	0.26287	0.27518	0.21035	0.15185	0.15668	0.0721	0.13345	0.17704	0.11307	0.10663	0.2799	0.24045	0.21681	0.11744	0.15542	0.092226	0.34167	0.41042	-0.072917	0.38125	0.24375	-0.23542	0.48125	-0.11042	0.1375	0.60417	-0.175	0.33125	0.36042	-0.058333	0.57083	-0.045833	31.075	101.611	7.423	306.353	264.731	315.683	31.704	263.047	-20.919	328.103	269.197	283.053	313.433	-23.341	28.720	285.961	6.7999e-05	0.00087315	0.00010531	378.66	5.2812e-06	4.8812e-06	311.01	130.96	2.984e-06	7.6624e-06	119.94	44.606	48.318	18.641	2.6905e-06	14.759	0.0022333	0.0038568	0.0010822	395.02	3.9726e-05	4.2341e-05	317.29	134.02	3.7993e-05	4.3053e-05	125.11	46.45	51.039	19.194	3.9292e-05	15.719	123.848	159.992	220.972	-19.251	213.305	215.106	-20.514	-12.938	220.779	61.260	-15.823	-11.430	-8.316	-4.021	-6.734	-7.765	-8191	255	
939.068	1	1	0	0	0.15329	0.16745	0.16727	0.21577	0.24305	0.30724	0.18854	0.24462	0.12214	0.21189	0.19926	0.3341	0.16276	0.20738	0.10351	0.12716	0.20625	0.76458	-0.30417	0.3875	0.35833	-0.21042	0.56667	0.025	0.0625	0.63958	-0.20417	0.10208	0.5125	-0.125	0.54375	0.097917	-2.211	76.683	253.636	294.304	305.802	301.618	199.700	243.440	258.713	207.790	12.617	102.072	194.389	-14.352	20.831	240.406	3.2958e-05	0.0002492	0.00015742	380.75	4.3196e-06	4.7587e-06	312.47	132.92	4.0074e-06	2.6696e-06	120.69	44.441	48.685	18.701	1.7262e-06	15.215	0.0020266	0.0035131	0.00098291	394.16	3.5244e-05	3.9102e-05	318.62	133.73	3.2852e-05	3.6548e-05	124.9	46.362	50.877	19.291	3.3816e-05	15.846	109.839	132.668	325.503	-18.780	48.785	328.433	-20.134	-13.199	105.628	198.574	-15.966	-11.674	-9.035	-4.150	265.064	-8.057	-8191	255	
939.188	1	1	0	0	0.10063	0.31975	0.21989	0.2204	0.19558	0.097486	0.17025	0.14042	0.3372	0.13857	0.11513	0.11123	0.27851	0.041847	0.06763	0.096622	0.13333	0.71667	-0.1375	0.11667	0.55208	-0.22083	0.35	0.39792	0.22292	0.74375	-0.0375	0.11458	0.51458	-0.035417	0.46458	0.3625	44.345	246.246	51.410	230.168	138.012	261.148	138.946	175.239	206.914	264.312	-29.490	115.755	-10.886	1.009	227.954	-27.513	4.4389e-05	0.00086951	8.3002e-05	376.25	3.3145e-06	3.3468e-06	315.68	131.91	1.5906e-06	5.3165e-06	122.15	45.661	49.188	18.984	1.0277e-06	15.493	0.001799	0.0031057	0.00084312	388.75	3.0831e-05	3.2707e-05	316.9	133.22	2.7754e-05	3.1287e-05	125.32	46.789	50.908	19.393	2.7368e-05	16.083	120.700	83.490	123.454	-19.044	103.735	284.644	-20.658	-13.000	86.943	69.668	-16.062	-11.701	-8.880	-4.017	301.541	-7.865	-8191	255	
939.260	1	1	0	0	0.09067	0.038895	0.059748	0.31817	0.23866	0.17055	0.16128	0.17417	0.055865	0.27127	0.2551	0.11459	0.087537	0.27611	0.038318	0.1147	0.23333	0.525	0.20833	0.05625	0.62083	-0.25833	0.25417	0.25625	-0.2375	0.80625	-0.05625	-0.00625	0.59167	-0.020833	0.23333	0.53333	169.712	23.827	198.594	211.222	241.454	99.276	226.816	291.673	306.137	59.073	314.636	74.811	101.563	129.181	82.622	276.747	9.5816e-06	0.00057538	0.00012339	375.08	4.1088e-06	3.7396e-06	318.83	134.56	3.5786e-06	8.2267e-06	127.8	47.682	50.409	19.489	2.505e-06	16.374	0.0014434	0.0024816	0.00069345	381.02	2.4732e-05	2.6391e-05	318.68	134.77	2.1386e-05	2.4214e-05	129.11	48.231	51.208	19.604	2.0157e-05	16.667	193.252	8.556	7.010	-18.328	75.961	157.700	-20.473	-13.497	137.949	77.470	-16.281	-12.176	-8.978	-4.288	11.303	-8.117	-8191	255	
939.356	1	1	0	0	0.10261	0.19502	0.024707	0.21531	0.22812	0.10685	0.16022	0.093525	0.087252	0.24119	0.34269	0.19867	0.13195	0.20316	0.29884	0.18617	0.08125	0.51042	0.48958	-0.125	0.67292	-0.070833	0.27292	0.44792	-0.14375	0.43958	0.047917	-0.16042	0.575	-0.11042	0.058333	0.525	162.310	41.942	325.616	113.039	301.797	268.711	52.048	11.741	-0.408	149.969	208.072	196.226	248.037	172.842	-15.592	152.337	5.1811e-05	0.0003052	5.6533e-05	375.18	5.0786e-07	9.0721e-07	326.27	135.75	1.865e-06	1.6254e-06	131.79	48.592	50.594	19.886	2.0839e-06	17.241	0.001126	0.0018981	0.00051401	378.59	1.9163e-05	2.0242e-05	323.31	135.86	1.7412e-05	1.8898e-05	131.44	48.846	51.362	20.038	1.7054e-05	17.421	127.679	-19.470	87.365	-18.893	59.287	143.023	-20.508	-13.408	52.930	289.657	-16.072	-11.864	-8.503	-4.597	137.164	-8.701	-8191	255	
939.452	1	1	0	0	0.16052	0.21544	0.064684	0.082428	0.31265	0.027676	0.058549	0.039629	0.23632	0.071932	0.083	0.19036	0.26475	0.18866	0.21238	0.15041	0.23333	0.45833	0.4625	-0.11042	0.65	-0.029167	-0.070833	0.58958	-0.36042	0.38958	0.54583	-0.1375	0.70833	0.1125	0.079167	0.46875	-30.690	-11.372	166.003	25.202	80.173	135.945	124.737	177.451	145.583	-19.151	328.304	112.112	-13.810	271.581	161.808	133.563	4.4405e-05	0.00012199	7.462e-05	385.58	1.4464e-06	7.7083e-06	331.86	137.47	2.3617e-06	6.8671e-06	132.97	47.889	50.457	20.261	7.9828e-07	17.638	0.00096671	0.0016308	0.00044855	381.06	1.7338e-05	1.8009e-05	327.47	136.54	1.6452e-05	1.7806e-05	131.88	48.668	51.079	20.398	1.636e-05	17.843	149.465	222.398	162.036	-18.598	265.611	75.025	-19.902	-12.791	208.055	145.242	-16.099	-12.077	-9.006	-4.569	200.040	-8.080	-8191	255	
939.571	1	1	0	0	0.15745	0.10437	0.19926	0.1966	0.031368	0.18276	0.38401	0.17305	0.35823	0.12023	0.13356	0.16582	0.094199	0.11932	0.10508	0.06309	0.25208	0.46458	0.35833	-0.25208	0.48333	0.072917	0.15208	0.67083	-0.12292	0.34583	0.50417	-0.17708	0.5625	0.13542	-0.10625	0.67708	227.324	24.757	300.309	58.886	180.453	62.833	143.615	322.079	15.175	121.736	-16.577	186.829	109.851	214.228	136.125	272.375	5.8343e-05	0.00032133	0.00017438	379.46	4.084e-06	3.683e-06	326.37	136.5	2.8871e-06	4.4487e-06	130.58	47.878	50.555	20.203	1.8239e-06	17.626	0.00094955	0.0015304	0.00042967	378.76	1.6161e-05	1.6838e-05	324.67	135.81	1.5534e-05	1.5999e-05	130.74	48.473	51.031	20.334	1.5243e-05	17.675	64.891	77.148	29.269	-18.548	132.367	65.106	-20.112	-13.045	118.774	113.953	-16.626	-11.820	-9.187	-4.814	22.357	-8.149	-8191	255	
939.668	1	1	0	0	0.19809	0.29934	0.17356	0.14431	0.13303	0.12204	0.14314	0.19334	0.25139	0.014684	0.076899	0.065672	0.31177	0.12024	0.17291	0.070689	0.26667	0.33125	0.63333	-0.17917	0.60417	0.32708	-0.28125	0.5125	-0.14167	0.10625	0.65	-0.26458	0.35625	0.21042	0.0083333	0.65417	62.826	76.808	292.178	31.718	19.000	-9.867	289.223	314.708	300.364	91.125	272.036	47.153	121.758	321.852	275.595	192.920	5.3424e-05	0.00025265	7.7216e-05	382.97	1.2159e-06	2.7288e-06	325.32	135.25	1.5818e-06	4.1619e-06	125.48	46.715	48.909	19.423	2.3227e-06	16.053	0.00089023	0.001497	0.00042843	380.07	1.6696e-05	1.7803e-05	322.22	134.02	1.8193e-05	2.0761e-05	126.33	47.295	50.132	19.583	2.4271e-05	16.458	154.578	33.566	20.388	-19.176	87.172	85.545	-20.395	-13.634	117.173	164.628	-16.366	-11.794	-9.248	-4.883	274.191	-8.033	-8191	255	
939.764	1	1	0	0	0.2356	0.29538	0.077631	0.015006	0.097764	0.074139	0.22541	0.034113	0.10541	0.31879	0.10897	0.18102	0.26685	0.1206	0.16075	0.19238	0.48958	0.3375	0.67708	-0.25833	0.38542	0.31458	-0.19167	0.63958	0.18333	-0.041667	0.675	-0.12708	0.43958	0.47083	-0.13333	0.57917	77.781	20.324	223.785	159.090	29.155	-21.228	317.582	139.046	192.845	-20.466	72.410	229.059	38.156	214.084	234.255	271.930	3.4189e-05	0.00069306	3.1281e-05	376.85	2.8545e-06	6.9925e-06	308.73	130.02	2.5852e-06	3.4607e-06	117.26	43.142	46.938	18.261	5.1819e-06	14.501	0.0014151	0.0024813	0.00072511	383.85	2.8902e-05	3.2405e-05	311.04	131.13	3.2856e-05	3.667e-05	122.13	45.454	49.612	18.976	4.1884e-05	15.644	96.448	107.341	174.361	-20.165	59.220	164.747	-20.927	-13.546	117.059	79.147	-16.797	-11.642	-8.573	-4.513	148.346	-8.494	-8191	255	
939.835	1	1	0	0	0.03971	0.024616	0.23067	0.10227	0.27055	0.2419	0.23962	0.24703	0.227	0.059074	0.21276	0.37705	0.36192	0.07228	0.096129	0.093747	0.38125	0.045833	0.68542	-0.15417	0.41875	0.38542	-0.28542	0.49167	0.21042	-0.0875	0.65417	-0.12083	0.24583	0.675	-0.18542	0.31458	6.368	-11.962	47.948	212.332	-25.016	235.443	322.266	132.453	294.875	40.168	206.741	270.809	324.485	169.522	50.393	179.907	4.8803e-05	0.00036032	2.2811e-05	375.81	6.2385e-06	3.8237e-06	297.82	128.32	3.3896e-06	7.6881e-06	113.29	41.59	45.983	17.773	3.8003e-06	13.671	0.002289	0.0040576	0.001171	395.97	4.3828e-05	4.7639e-05	307.31	130.75	4.2199e-05	4.8e-05	120.12	44.207	49.384	18.553	4.7382e-05	14.93	-14.974	161.603	146.943	-19.396	84.903	66.614	-20.774	-13.700	79.279	130.873	-16.212	-11.705	-9.378	-4.241	141.371	-8.869	-8191	255	
939.956	1	1	0	0	0.026749	0.19971	0.066874	0.088497	0.25819	0.026844	0.22188	0.41846	0.060038	0.118	0.093653	0.084644	0.29828	0.18107	0.12284	0.27791	0.68542	0.075	0.72083	-0.075	0.19583	0.54792	-0.39792	0.35	0.34583	-0.24167	0.69583	0.0041667	0.11458	0.57083	-0.085417	0.35	151.285	-9.807	172.014	26.013	299.693	-13.465	229.491	284.571	-2.018	303.423	38.313	38.388	18.957	7.941	320.594	71.266	8.2406e-05	0.00025009	6.5813e-05	370.18	2.6067e-06	2.4003e-06	294.27	126.06	9.4461e-07	3.8565e-06	109.26	40.909	46.23	17.435	4.3613e-06	13.242	0.0025538	0.0045682	0.0012796	397.88	4.7922e-05	5.3365e-05	304.71	130.05	5.0359e-05	5.9345e-05	119.57	44.146	50.119	18.661	6.1938e-05	15.002	206.979	116.553	252.401	-19.015	228.104	140.303	-20.952	-13.697	196.556	274.970	-16.580	-12.269	-9.348	-4.441	302.237	-7.779	-8191	255	
940.052	1	1	0	0	0.29441	0.17571	0.11982	0.33831	0.32987	0.033449	0.082731	0.21438	0.086969	0.10479	0.29196	0.17024	0.050181	0.23068	0.24033	0.27128	0.80833	0.041667	0.72917	0.13333	0.077083	0.69375	-0.25833	0.20417	0.48333	-0.33333	0.59792	0.16458	0.11458	0.59167	-0.0083333	0.1875	287.689	100.471	8.538	5.774	161.581	-27.369	94.868	164.539	163.202	316.024	239.719	91.252	236.977	316.645	-5.557	244.950	0.00012081	0.0010952	0.00011388	373.84	7.9679e-06	3.0664e-06	286.52	126.05	5.8382e-06	2.1229e-06	109.9	40.015	45.314	17.456	3.2654e-06	12.976	0.003354	0.0060749	0.0016874	406.07	5.9807e-05	6.2771e-05	300.62	129.74	4.947e-05	5.5277e-05	117.7	42.856	49.018	18.332	5.1406e-05	14.303	174.122	253.526	195.781	-19.264	204.760	101.373	-20.820	-13.324	99.583	176.414	-16.371	-12.008	-8.759	-4.705	66.318	-8.085	-8191	255	
940.148	1	1	0	0	0.14943	0.072904	0.28124	0.070964	0.07054	0.17763	0.29035	0.0092684	0.1732	0.29714	0.10983	0.035416	0.42255	0.090531	0.21939	0.20134	0.85	-0.12292	0.74583	0.27917	-0.11875	0.83542	-0.1125	0.16875	0.625	-0.25	0.40208	0.35833	-0.089583	0.53958	-0.054167	0.2625	272.250	54.801	197.656	139.274	136.813	1.554	245.474	38.854	210.811	34.927	306.632	217.898	278.748	322.909	275.931	195.975	6.3628e-05	0.0004696	0.00020269	368.26	1.9672e-06	7.5431e-06	287.2	124.59	2.1283e-06	5.0948e-06	109.08	39.899	45.174	17.27	2.6135e-06	13.235	0.0027703	0.0048727	0.0013215	395.13	4.8854e-05	5.1376e-05	293.46	127.64	3.926e-05	4.0979e-05	113.45	41.889	48.038	17.963	3.7682e-05	14.096	129.957	110.139	8.018	-19.806	67.589	163.393	-20.562	-13.574	200.336	149.542	-16.662	-11.755	-9.226	-4.292	81.498	-8.116	-8191	255	
#DATA ENDS
