BOXY.EXE: ISS Imagent and Oximeter Data Acquisition Program Version 0.80
Ascii Record File

#ACQ INFORMATION
2  Detector Channels 
16  External MUX Channels 
1  Auxiliary Channels 
5000  Waveform (CCF) Frequency (Hz)
1  Waveforms Skipped 
30  Waveforms Averaged 
1  Cycles Averaged 
16  Acquisitions per Waveform 
10.0806  Updata Rate (Hz) 

#FILE INFORMATION
TRUE -- External MUX Channel results are PARSED.
FALSE -- AC DC and Phase are NOT grouped.
TRUE -- Companion Program Settings File CREATED.
FALSE -- AC data not excluded
FALSE -- DC data not excluded
FALSE -- Phase data not excluded
FALSE -- Auxillary Chn. data not excluded
Tab delimiters

#CALIBRATION STATE
TRUE -- Waveform Calibration Values APPLIED.


#AUX CALIBRATION VALUES
Val Type	aux-1	

Term	1.0000e+00	
Factor	0.0000e+00	


#WF CALIBRATION VALUES
A = Detector Channel
Val Type	A-AC1	A-AC2	A-AC3	A-AC4	A-AC5	A-AC6	A-AC7	A-AC8	A-AC9	A-AC10	A-AC11	A-AC12	A-AC13	A-AC14	A-AC15	A-AC16	A-DC1	A-DC2	A-DC3	A-DC4	A-DC5	A-DC6	A-DC7	A-DC8	A-DC9	A-DC10	A-DC11	A-DC12	A-DC13	A-DC14	A-DC15	A-DC16	A-Ph1	A-Ph2	A-Ph3	A-Ph4	A-Ph5	A-Ph6	A-Ph7	A-Ph8	A-Ph9	A-Ph10	A-Ph11	A-Ph12	A-Ph13	A-Ph14	A-Ph15	A-Ph16	

Term	0.00000e+00	0.00000e+00	0.00000e+00	0.00000e+00	0.00000e+00	0.00000e+00	0.00000e+00	0.00000e+00	0.00000e+00	0.00000e+00	0.00000e+00	0.00000e+00	0.00000e+00	0.00000e+00	0.00000e+00	0.00000e+00	0.00000e+00	0.00000e+00	0.00000e+00	0.00000e+00	0.00000e+00	0.00000e+00	0.00000e+00	0.00000e+00	0.00000e+00	0.00000e+00	0.00000e+00	0.00000e+00	0.00000e+00	0.00000e+00	0.00000e+00	0.00000e+00	0.00000e+00	0.00000e+00	0.00000e+00	0.00000e+00	0.00000e+00	0.00000e+00	0.00000e+00	0.00000e+00	0.00000e+00	0.00000e+00	0.00000e+00	0.00000e+00	0.00000e+00	0.00000e+00	0.00000e+00	0.00000e+00	
Factor	1.00000e+00	1.00000e+00	1.00000e+00	1.00000e+00	1.00000e+00	1.00000e+00	1.00000e+00	1.00000e+00	1.00000e+00	1.00000e+00	1.00000e+00	1.00000e+00	1.00000e+00	1.00000e+00	1.00000e+00	1.00000e+00	1.00000e+00	1.00000e+00	1.00000e+00	1.00000e+00	1.00000e+00	1.00000e+00	1.00000e+00	1.00000e+00	1.00000e+00	1.00000e+00	1.00000e+00	1.00000e+00	1.00000e+00	1.00000e+00	1.00000e+00	1.00000e+00	X	X	X	X	X	X	X	X	X	X	X	X	X	X	X	X	

B = Detector Channel
Val Type	B-AC1	B-AC2	B-AC3	B-AC4	B-AC5	B-AC6	B-AC7	B-AC8	B-AC9	B-AC10	B-AC11	B-AC12	B-AC13	B-AC14	B-AC15	B-AC16	B-DC1	B-DC2	B-DC3	B-DC4	B-DC5	B-DC6	B-DC7	B-DC8	B-DC9	B-DC10	B-DC11	B-DC12	B-DC13	B-DC14	B-DC15	B-DC16	B-Ph1	B-Ph2	B-Ph3	B-Ph4	B-Ph5	B-Ph6	B-Ph7	B-Ph8	B-Ph9	B-Ph10	B-Ph11	B-Ph12	B-Ph13	B-Ph14	B-Ph15	B-Ph16	

Term	0.00000e+00	0.00000e+00	0.00000e+00	0.00000e+00	0.00000e+00	0.00000e+00	0.00000e+00	0.00000e+00	0.00000e+00	0.00000e+00	0.00000e+00	0.00000e+00	0.00000e+00	0.00000e+00	0.00000e+00	0.00000e+00	0.00000e+00	0.00000e+00	0.00000e+00	0.00000e+00	0.00000e+00	0.00000e+00	0.00000e+00	0.00000e+00	0.00000e+00	0.00000e+00	0.00000e+00	0.00000e+00	0.00000e+00	0.00000e+00	0.00000e+00	0.00000e+00	-1.12232e+02	-1.31493e+02	-1.26301e+02	-1.82925e+02	-6.61961e+01	-6.93729e+01	-1.56697e+02	-1.62015e+02	-6.64507e+01	-6.47760e+01	-1.69789e+02	-1.71884e+02	-1.87016e+02	-1.77077e+02	-6.21522e+01	-1.49516e+02	
Factor	1.55884e-05	1.50606e-04	4.28834e-05	2.77585e-01	1.30341e-06	1.75495e-06	1.60847e-01	4.74421e-02	1.05426e-06	1.60286e-06	8.23926e-02	2.73325e-02	3.04750e-02	8.53322e-03	1.33339e-06	1.20591e-02	1.05579e-05	1.86671e-05	5.21731e-06	1.46876e-01	1.94660e-07	2.09585e-07	8.03013e-02	2.53644e-02	1.85624e-07	2.07253e-07	4.25778e-02	1.42240e-02	1.63516e-02	4.59333e-03	1.96714e-07	6.29039e-03	X	X	X	X	X	X	X	X	X	X	X	X	X	X	X	X	



#DISTANCE SETTINGS
A = Detector Channel
A-1	A-2	A-3	A-4	A-5	A-6	A-7	A-8	A-9	A-10	A-11	A-12	A-13	A-14	A-15	A-16	

2.5000e+00	3.0000e+00	2.5000e+00	3.0000e+00	2.0000e+00	3.0000e+00	1.5000e+00	3.0000e+00	3.0000e+00	3.0000e+00	3.0000e+00	3.0000e+00	3.0000e+00	3.0000e+00	1.5000e+00	3.0000e+00	

B = Detector Channel
B-1	B-2	B-3	B-4	B-5	B-6	B-7	B-8	B-9	B-10	B-11	B-12	B-13	B-14	B-15	B-16	

1.0000e+01	1.0000e+01	1.0000e+01	1.4400e+00	1.0000e+01	1.0000e+01	1.5100e+00	1.9400e+00	1.0000e+01	1.0000e+01	1.9900e+00	2.4900e+00	2.4100e+00	2.9000e+00	1.0000e+01	2.9800e+00	




#DATA BEGINS
time	group	step	mark	flag	A-AC1	A-AC2	A-AC3	A-AC4	A-AC5	A-AC6	A-AC7	A-AC8	A-AC9	A-AC10	A-AC11	A-AC12	A-AC13	A-AC14	A-AC15	A-AC16	A-DC1	A-DC2	A-DC3	A-DC4	A-DC5	A-DC6	A-DC7	A-DC8	A-DC9	A-DC10	A-DC11	A-DC12	A-DC13	A-DC14	A-DC15	A-DC16	A-Ph1	A-Ph2	A-Ph3	A-Ph4	A-Ph5	A-Ph6	A-Ph7	A-Ph8	A-Ph9	A-Ph10	A-Ph11	A-Ph12	A-Ph13	A-Ph14	A-Ph15	A-Ph16	B-AC1	B-AC2	B-AC3	B-AC4	B-AC5	B-AC6	B-AC7	B-AC8	B-AC9	B-AC10	B-AC11	B-AC12	B-AC13	B-AC14	B-AC15	B-AC16	B-DC1	B-DC2	B-DC3	B-DC4	B-DC5	B-DC6	B-DC7	B-DC8	B-DC9	B-DC10	B-DC11	B-DC12	B-DC13	B-DC14	B-DC15	B-DC16	B-Ph1	B-Ph2	B-Ph3	B-Ph4	B-Ph5	B-Ph6	B-Ph7	B-Ph8	B-Ph9	B-Ph10	B-Ph11	B-Ph12	B-Ph13	B-Ph14	B-Ph15	B-Ph16	aux-1	digaux	

914.868	1	1	0	256	0.38844	0.094347	0.10455	0.15641	0.233	0.21626	0.19326	0.14984	0.13058	0.22398	0.060221	0.22118	0.13782	0.28743	0.13355	0.20172	-0.01875	0.225	0.15208	-0.31875	0.34792	0.0020833	-0.0375	0.41042	-0.28333	0.31667	0.095833	-0.43542	0.41667	-0.13333	-0.19167	0.4	160.706	56.992	58.581	99.278	259.818	90.578	314.523	289.865	-7.552	27.799	276.499	210.294	276.652	280.092	84.599	-11.238	8.5148e-05	0.00075477	0.0001583	438.87	3.4608e-06	2.34e-06	450.93	163.11	2.4371e-06	9.3174e-06	176.1	62.629	59.185	26.452	2.5894e-06	27.424	0.0016207	0.0027968	0.00077879	450.7	2.8238e-05	3.147e-05	449.1	163.65	2.9135e-05	3.1829e-05	178.36	64.304	61.71	26.88	3.1305e-05	27.87	129.091	46.110	45.072	-21.317	188.877	203.032	-21.999	-15.500	120.482	58.528	-18.203	-13.826	-11.375	-6.871	62.734	-10.383	-8191	255	
914.962	1	1	0	0	0.064823	0.18443	0.16404	0.31995	0.2905	0.091952	0.39049	0.076317	0.18452	0.04238	0.31849	0.35456	0.14385	0.19552	0.15622	0.20854	0.025	0.12917	0.26875	-0.43125	0.3375	0.0125	-0.54583	0.42083	-0.42083	-0.21667	0.35833	-0.56875	0.32917	0.095833	-0.20625	0.55208	291.042	39.945	175.532	199.180	191.828	317.367	167.897	51.050	160.013	43.854	211.297	218.995	178.413	294.044	62.921	263.339	4.4365e-05	0.00015249	0.00010089	432.97	1.2848e-06	8.3916e-06	443.55	163.23	6.6857e-07	6.2617e-06	175.87	62.576	59.825	26.342	3.6673e-06	27.03	0.0017226	0.0029747	0.00082021	443.71	3.0191e-05	3.1914e-05	444.64	164.06	2.8401e-05	3.1531e-05	178.02	64.153	61.808	26.839	3.155e-05	27.709	100.775	193.446	-29.521	-21.204	147.322	33.601	-22.349	-15.462	87.820	149.356	-18.216	-14.064	-11.048	-6.493	61.888	-10.642	-8191	255	
915.034	1	1	0	0	0.2546	0.12976	0.093362	0.21685	0.17038	0.10813	0.14608	0.1744	0.11817	0.1176	0.098865	0.27417	0.15312	0.073083	0.057948	0.12883	0.19167	0.010417	0.55833	-0.23333	0.1625	0.20417	-0.66042	0.48958	-0.27917	-0.26458	0.43542	-0.25417	0.23542	0.29167	-0.47708	0.2875	69.893	4.574	319.646	171.374	21.278	159.179	226.569	54.539	318.585	130.722	241.382	45.935	67.073	8.972	5.425	253.320	9.3693e-05	8.2942e-05	0.00020416	435.96	5.8351e-06	2.2824e-06	442.17	161.98	3.143e-06	3.4209e-06	173.21	62.402	59.69	26.282	3.0853e-06	26.971	0.0017594	0.0030151	0.00084568	448.19	3.2014e-05	3.4555e-05	443.59	162.79	3.1119e-05	3.451e-05	176.91	64.086	61.613	26.696	3.2786e-05	27.649	161.618	89.966	29.513	-21.091	189.204	-14.868	-21.999	-15.463	86.911	66.206	-18.145	-13.989	-11.391	-6.691	319.441	-10.644	-8191	255	
915.154	1	1	0	0	0.44648	0.11659	0.23302	0.081683	0.22412	0.27032	0.14757	0.24035	0.074446	0.3377	0.15852	0.036502	0.18667	0.14169	0.18542	0.13701	0.2875	-0.22292	0.56667	-0.20625	0.11875	0.31042	-0.40208	0.37708	0.022917	-0.30833	0.54167	-0.23958	0.15417	0.41667	-0.17917	0.3	201.111	313.198	135.909	187.415	298.974	-33.262	136.091	269.978	314.404	146.971	309.575	42.075	-18.827	232.317	311.419	28.452	5.9597e-05	0.00073916	5.016e-05	426.61	3.6358e-06	6.0382e-06	434.75	158.45	1.6849e-06	2.9197e-06	170.76	62.033	57.759	25.539	6.0255e-06	27.02	0.0018778	0.0031595	0.0008773	439.77	3.0478e-05	3.14e-05	432.71	159.33	2.9063e-05	3.1834e-05	174.32	63.504	60.361	26.183	3.7469e-05	27.586	146.307	56.157	250.953	-21.061	168.662	143.930	-22.219	-15.311	275.039	32.518	-18.234	-13.442	-10.629	-6.624	65.448	-10.642	-8191	255	
915.251	1	1	0	0	0.17198	0.16499	0.21626	0.25954	0.10211	0.19523	0.04286	0.053939	0.16837	0.11188	0.058381	0.2006	0.17384	0.10192	0.18081	0.37534	0.50833	-0.37292	0.38542	-0.17708	0.12292	0.55208	-0.28958	0.38542	0.19375	-0.375	0.5	-0.32083	-0.064583	0.25208	-0.35	-0.05	95.804	167.140	252.436	269.606	199.688	82.450	134.533	99.890	27.422	18.065	174.957	285.413	288.374	43.982	105.476	-21.115	0.00013027	0.00028802	0.0002089	414.92	6.7424e-06	7.9636e-06	415.56	153.94	2.9207e-06	3.4884e-06	170.57	61.491	57.546	25.062	3.9807e-06	26.584	0.0022525	0.0038186	0.0011134	435.52	4.341e-05	4.6547e-05	424.24	157.74	4.2846e-05	4.7537e-05	176.8	64.316	60.314	25.88	4.6171e-05	27.547	160.966	239.949	249.990	-20.920	165.214	139.775	-21.857	-15.311	61.860	-26.792	-18.289	-13.583	-10.988	-6.229	250.614	-10.305	-8191	255	
915.347	1	1	0	0	0.38194	0.089692	0.20705	0.1066	0.17831	0.14567	0.1709	0.40526	0.27351	0.10225	0.37007	0.071904	0.42784	0.2553	0.1243	0.22801	0.63333	-0.35625	0.50208	-0.1875	-0.15417	0.54792	-0.31458	0.13125	0.20208	-0.27708	0.1875	-0.14375	-0.29583	0.22083	-0.4375	0.045833	209.799	302.891	279.011	301.363	18.795	222.760	-0.680	276.565	153.934	34.950	297.745	-22.126	305.568	197.813	8.313	167.400	3.5562e-05	0.00070905	0.00015301	418.16	2.584e-06	1.6708e-06	409.49	151.76	3.655e-07	9.3853e-06	169.15	60.65	55.546	24.622	3.5731e-06	26.117	0.0025396	0.004333	0.0012247	439.55	4.6761e-05	4.9862e-05	416.4	156.28	4.4828e-05	4.9657e-05	175.46	63.301	59.237	25.581	4.6061e-05	27.18	148.048	102.989	53.482	-21.032	247.175	310.855	-21.828	-14.897	217.250	138.103	-18.527	-13.398	-10.895	-5.923	173.385	-10.636	-8191	255	
915.443	1	1	0	0	0.20958	0.19777	0.22384	0.15128	0.16701	0.20978	0.20529	0.14401	0.24571	0.077457	0.17069	0.085827	0.15698	0.19351	0.28175	0.096542	0.70833	-0.4625	0.40417	0.014583	-0.425	0.34583	-0.36042	0.020833	0.2125	-0.48333	0.28125	-0.16042	-0.475	0.11875	-0.24583	-0.225	70.931	233.867	26.324	302.868	129.515	48.207	304.037	278.072	125.785	180.598	-8.531	259.699	170.753	-14.354	236.115	63.701	7.6043e-05	0.00014984	0.00013935	411.67	7.1623e-06	8.6182e-06	401.58	151.93	1.9921e-06	7.7646e-06	168.65	60.655	55.943	24.935	2.5501e-06	26.422	0.002526	0.004282	0.0012121	432.65	4.4789e-05	4.7791e-05	409.73	154.79	4.3902e-05	4.7828e-05	173.81	63.292	59.384	25.736	4.8546e-05	27.694	160.214	-19.153	113.070	-20.907	85.579	255.795	-21.992	-15.442	31.959	98.117	-18.181	-13.508	-10.259	-6.412	80.616	-10.024	-8191	255	
915.539	1	1	0	0	0.053459	0.23813	0.3577	0.26809	0.10889	0.11976	0.13216	0.27731	0.095274	0.25366	0.081731	0.30819	0.20341	0.14143	0.16123	0.20672	0.58125	-0.44167	0.29583	0.21042	-0.16458	0.41458	-0.091667	-0.14375	0.55	-0.43333	0.21875	0.12083	-0.47292	0.41875	-0.095833	-0.14583	233.155	134.594	293.832	251.450	174.208	186.203	104.030	225.551	-12.572	15.225	-8.324	263.013	68.146	186.770	52.546	-11.497	5.2641e-05	0.00071825	0.00012445	403.92	3.6424e-06	3.9299e-06	399.76	150.56	1.0934e-06	4.6941e-06	168.31	61.931	55.654	24.968	5.252e-06	27.31	0.0026678	0.0046604	0.0013274	430.68	4.8385e-05	5.3501e-05	408.81	154.68	4.8064e-05	5.3516e-05	176.46	64.566	59.744	25.993	5.3223e-05	28.413	188.146	78.858	-32.248	-21.058	18.821	66.096	-22.174	-15.295	214.125	68.386	-18.167	-13.286	-10.665	-6.188	156.623	-10.449	-8191	255	
915.658	1	1	0	0	0.26556	0.1973	0.21075	0.093462	0.10246	0.107	0.26006	0.22004	0.19097	0.1312	0.14947	0.10167	0.14275	0.16041	0.18312	0.10442	0.84792	-0.35625	0.1125	0.11667	-0.38333	0.29167	-0.027083	-0.18542	0.2875	-0.14792	-0.066667	0.12708	-0.26042	0.33125	0.0375	-0.39167	202.539	210.554	210.308	154.480	91.951	156.739	325.004	234.533	241.926	265.267	38.104	281.433	313.784	-8.362	113.654	196.789	0.00010746	0.00039547	0.00022585	397.72	5.1714e-06	1.0946e-05	396	149.23	2.4384e-06	5.1963e-06	171.49	62.803	56.63	25.356	4.579e-06	27.81	0.0029975	0.0053529	0.0015326	429.72	5.8201e-05	6.494e-05	410.04	155.67	5.8673e-05	6.7109e-05	182.04	66.766	61.408	26.726	6.5991e-05	29.493	163.823	230.006	-2.283	-20.728	49.979	158.114	-21.692	-14.821	297.258	108.540	-18.440	-13.731	-10.572	-6.000	184.536	-9.759	-8191	255	
915.731	1	1	0	0	0.096438	0.10126	0.23992	0.2628	0.17862	0.24309	0.032143	0.032942	0.13011	0.26886	0.067422	0.23366	0.37107	0.047237	0.077482	0.12335	0.95	-0.2	-0.03125	0.44167	-0.43333	0.2625	0.0625	-0.20208	0.48125	-0.15417	0.0020833	0.4	-0.3625	0.079167	0.12708	-0.39792	255.891	227.804	104.591	279.071	206.723	261.557	11.171	-8.867	196.080	142.078	16.957	268.968	321.804	299.949	117.759	193.223	5.0154e-05	0.00096863	5.3747e-05	393.9	4.2035e-06	6.6822e-06	397.67	151.43	2.9097e-06	7.1655e-06	174.49	63.633	56.804	25.668	5.0277e-06	27.525	0.0036229	0.0063558	0.0017454	431.38	6.538e-05	7.0923e-05	413.15	156.94	6.0181e-05	6.7697e-05	183.59	67.447	61.648	26.955	6.3391e-05	29.319	141.057	30.467	222.754	-21.205	122.570	24.411	-22.035	-15.269	53.541	97.961	-18.573	-13.528	-10.833	-6.105	106.578	-9.878	-8191	255	
915.827	1	1	0	0	0.17994	0.29783	0.1857	0.27143	0.29284	0.15958	0.20787	0.42482	0.17091	0.20181	0.21765	0.148	0.28994	0.26181	0.16085	0.18843	0.78125	-0.13542	-0.12292	0.64792	-0.33542	0.23958	0.26042	-0.32708	0.46458	0.10417	-0.15417	0.6375	-0.52917	0.0875	0.29375	-0.28542	268.201	286.964	80.880	-19.467	-10.284	187.207	213.258	-20.854	161.599	290.868	150.740	40.997	266.241	243.512	38.438	59.418	0.00013316	0.00070757	0.00017881	389.88	6.8555e-06	1.9655e-06	394.42	151.44	5.653e-06	2.2616e-06	173.33	63.191	57.018	25.573	2.5416e-06	27.856	0.0034578	0.0060545	0.0016333	424.08	5.9693e-05	6.3247e-05	405.92	156.21	5.6769e-05	6.344e-05	182.04	66.996	61.872	26.915	5.9926e-05	29.372	154.859	81.038	108.204	-21.356	260.982	173.434	-22.024	-14.897	56.539	18.705	-18.189	-13.987	-10.132	-6.293	150.770	-10.064	-8191	255	
915.948	1	1	0	0	0.106	0.19108	0.063442	0.082095	0.22124	0.064272	0.23645	0.28483	0.20625	0.35943	0.36247	0.16669	0.1541	0.22281	0.060875	0.1386	0.69583	-0.014583	-0.05625	0.4125	-0.2	0.029167	0.26875	-0.6	0.34167	0.09375	-0.39167	0.35417	-0.37917	0.01875	0.45625	-0.24167	233.193	289.519	287.126	29.535	208.033	318.795	225.580	321.401	-32.949	100.664	299.428	78.951	138.461	-0.849	198.719	217.512	0.00010358	0.00025621	9.3284e-05	390.98	9.3595e-06	3.0334e-06	393.76	152.03	5.4169e-07	4.1156e-06	175.82	64.81	58.311	26.35	7.7059e-06	28.968	0.0033592	0.0058687	0.0015721	426.68	6.19e-05	6.6613e-05	409.16	158.15	6.0285e-05	6.6553e-05	184.73	68.55	63.146	27.753	6.3803e-05	30.697	143.037	114.828	74.400	-20.661	50.815	276.036	-22.028	-15.142	127.563	287.813	-18.126	-13.712	-10.541	-5.875	38.210	-10.102	-8191	255	
916.043	1	1	0	0	0.1341	0.31593	0.14438	0.17891	0.19777	0.27779	0.24272	0.33788	0.17585	0.34238	0.15049	0.23632	0.20005	0.080835	0.034061	0.30231	0.85	0.15625	-0.072917	0.56042	-0.17083	0.052083	0.45	-0.5375	0.38125	0.21875	-0.62917	0.5125	-0.15833	-0.21458	0.425	-0.41875	-5.592	268.731	209.589	308.214	61.211	142.971	235.372	286.417	152.458	46.091	293.390	286.785	303.696	96.486	145.184	188.125	1.3449e-05	0.0001417	0.00029083	396.37	5.0346e-06	1.1741e-05	399.8	156.28	1.8554e-06	7.9688e-06	180.28	67.16	60.282	27.834	2.2367e-06	30.633	0.0036681	0.0063404	0.0017256	439.48	6.7457e-05	7.2651e-05	418.39	163.6	6.6822e-05	7.4042e-05	190.73	71.517	65.568	29.203	7.0589e-05	32.49	173.332	3.773	128.461	-20.558	46.661	58.203	-21.833	-15.157	127.491	156.426	-18.572	-13.599	-10.664	-5.612	85.183	-9.841	-8191	255	
916.139	1	1	0	0	0.12794	0.09001	0.33496	0.1569	0.17032	0.20814	0.042497	0.17831	0.050078	0.11937	0.22351	0.1306	0.13976	0.1003	0.23477	0.27864	0.53125	0.14583	-0.30208	0.28125	-0.15	-0.29375	0.33958	-0.020833	0.058333	0.29167	-0.5125	0.33125	-0.060417	-0.28542	0.36875	-0.30833	63.493	310.489	32.271	177.104	88.676	-18.392	208.070	32.296	3.557	284.392	-7.710	-13.917	241.267	-7.420	92.064	-21.809	6.8507e-05	0.00056459	0.00010118	412.32	3.9272e-06	4.3744e-06	409.94	161.3	4.8888e-06	9.1776e-06	182.52	67.881	60.6	28.097	1.8389e-06	30.926	0.0039642	0.0067473	0.0018739	453.96	7.2556e-05	7.5361e-05	426.46	168.57	7.0135e-05	7.5811e-05	193.84	72.534	66.443	29.621	7.3434e-05	32.895	135.478	-10.023	304.774	-21.434	113.800	227.674	-21.708	-14.840	120.976	117.448	-18.026	-13.205	-10.213	-5.810	148.627	-9.908	-8191	255	
916.235	1	1	0	0	0.1278	0.061474	0.1215	0.27918	0.0303	0.16032	0.27952	0.23422	0.11319	0.32543	0.029266	0.18249	0.44249	0.05704	0.057362	0.14328	0.2375	0.45208	-0.26875	0.3375	0.16667	-0.40833	0.56875	-0.33542	-0.020833	0.46667	-0.39375	0.29792	0.18542	-0.50208	0.55417	-0.3375	263.834	-15.264	21.915	58.695	249.516	3.729	18.005	263.578	242.937	30.112	276.705	292.071	54.433	229.879	276.575	150.641	7.9689e-05	0.00071499	0.0002228	410.76	2.101e-06	5.8752e-06	404.52	161.67	6.2498e-06	8.8088e-06	182.06	67.961	60.365	28.043	6.2687e-06	30.423	0.0041226	0.0070624	0.0020188	459.21	7.7212e-05	8.1724e-05	427.35	168.88	7.7476e-05	8.5042e-05	195.51	73.327	67.171	29.751	8.7182e-05	32.886	138.889	31.966	36.274	-21.022	50.725	271.969	-21.630	-14.854	177.310	106.742	-17.686	-13.269	-9.949	-5.623	251.895	-9.559	-8191	255	
916.331	1	1	0	0	0.22282	0.16295	0.1553	0.1852	0.054917	0.12016	0.27596	0.20551	0.12033	0.083862	0.18724	0.074989	0.14341	0.12418	0.44471	0.25882	0.32292	0.39167	-0.38958	0.10208	0.2125	-0.50833	0.41458	-0.10417	-0.14375	0.38125	-0.525	0.125	0.20833	-0.38542	0.4875	-0.11458	201.256	322.262	168.429	318.944	284.953	297.491	287.780	280.284	-9.774	-16.169	215.531	287.728	19.257	225.528	121.382	214.069	9.9763e-05	0.00036488	9.1582e-05	408.96	5.9792e-06	8.0913e-06	403.42	158.72	4.95e-06	3.0611e-06	181.12	68.063	60.714	27.881	7.9424e-06	30.769	0.0047046	0.0079927	0.0022918	462.97	8.3133e-05	8.8132e-05	426.92	167.68	7.6926e-05	8.6275e-05	195.2	73.023	66.945	29.587	8.1483e-05	32.798	130.870	168.133	309.839	-20.618	140.711	95.684	-21.910	-14.682	156.827	260.050	-18.462	-13.151	-10.135	-5.729	242.989	-9.616	-8191	255	
916.427	1	1	0	0	0.10474	0.069349	0.14953	0.1075	0.12918	0.19042	0.16368	0.26289	0.27036	0.35577	0.092859	0.19042	0.071063	0.10403	0.16658	0.21986	0.1875	0.3375	-0.15208	0.097917	0.18542	-0.59167	0.37292	0.035417	-0.2625	0.49583	-0.41458	-0.14792	0.375	-0.45208	0.38542	0.035417	207.306	221.339	268.324	103.811	123.103	165.116	122.595	255.260	14.121	206.955	22.114	43.391	143.556	160.437	274.532	-21.573	0.00016716	0.00018238	7.214e-05	402.69	8.319e-06	7.8069e-06	402.66	157.54	4.4697e-06	6.6809e-06	181.42	67.393	59.993	27.631	4.3373e-06	30.4	0.0042341	0.0073753	0.0021091	452.72	7.4407e-05	8.0152e-05	423.3	165.29	6.697e-05	7.4194e-05	192.34	71.457	65.065	29.056	6.6585e-05	32.141	134.694	210.319	120.026	-20.838	43.674	117.927	-21.658	-14.576	195.133	68.317	-18.015	-13.570	-10.145	-5.873	104.609	-9.669	-8191	255	
916.548	1	1	0	0	0.20315	0.17975	0.17051	0.25014	0.054643	0.32532	0.37757	0.12832	0.17308	0.034478	0.26334	0.30056	0.21446	0.21271	0.22979	0.070945	0.11042	0.55208	-0.10833	0.0041667	0.49375	-0.37708	0.3	0.054167	-0.30625	0.36458	-0.24792	-0.175	0.4625	-0.25833	0.23125	0.27292	48.649	291.197	248.416	201.795	316.471	274.283	313.661	253.098	175.076	12.366	276.821	188.052	151.105	325.767	18.243	220.261	0.00012607	0.00085391	0.0001513	395.52	6.8572e-06	9.6002e-06	396.33	158.05	3.3524e-06	4.9641e-06	180.66	67.968	60.113	27.773	6.6716e-06	30.597	0.0034506	0.0060982	0.0016989	433.6	6.0527e-05	6.5884e-05	414.03	163.24	5.5868e-05	6.274e-05	189.92	71.093	64.281	28.807	5.8427e-05	31.922	144.990	20.599	252.885	-20.565	91.960	172.640	-21.557	-14.963	165.368	280.508	-17.485	-12.810	-10.591	-5.061	141.757	-9.012	-8191	255	
916.644	1	1	0	0	0.12531	0.12745	0.20541	0.18747	0.071174	0.27427	0.096104	0.34695	0.093839	0.16897	0.31958	0.11811	0.1792	0.084666	0.17368	0.29979	-0.13333	0.51042	-0.091667	-0.19583	0.43125	-0.30208	0.13125	0.24792	-0.37708	0.34375	-0.12292	-0.21875	0.42292	-0.59792	0.13125	0.33958	156.056	140.398	87.666	150.492	-11.907	29.995	156.201	170.914	92.691	216.733	276.914	159.458	251.963	7.094	292.859	10.485	0.00012176	0.00060834	7.062e-05	400.33	4.0484e-06	1.1633e-05	395.34	157.61	5.0038e-06	6.7781e-06	180.66	67.003	60.112	27.835	5.5046e-06	30.617	0.0030951	0.0054702	0.0015034	428.98	5.4561e-05	5.9864e-05	409.15	162.18	5.082e-05	5.7302e-05	187.3	70.037	63.728	28.798	5.2441e-05	31.786	110.979	167.582	108.634	-20.938	110.943	57.550	-21.620	-14.202	175.433	217.294	-17.499	-12.891	-10.508	-5.614	281.885	-9.153	-8191	255	
916.740	1	1	0	0	0.15695	0.18236	0.2833	0.15144	0.17664	0.06259	0.057799	0.15312	0.13962	0.099394	0.20868	0.13347	0.092429	0.2857	0.30257	0.075686	0.010417	0.46042	0.225	-0.32917	0.35833	-0.095833	-0.0625	0.36458	-0.42292	0.24167	0.058333	-0.25833	0.47292	-0.29583	0.03125	0.25417	326.643	153.428	25.904	113.279	-27.678	202.641	292.642	309.261	-25.692	296.041	12.184	68.988	297.277	-26.683	227.693	315.971	9.043e-05	0.00013108	0.00017847	392.55	3.2439e-06	2.7296e-06	396.76	158.97	2.0797e-06	4.8425e-06	180.78	67.558	59.898	28.33	3.7128e-06	30.915	0.0028679	0.0050117	0.0013496	421.54	5.1969e-05	5.5601e-05	407.1	162.8	4.9051e-05	5.4818e-05	187.35	70.369	63.921	29.247	5.1383e-05	31.989	147.268	59.556	56.483	-21.084	6.675	63.003	-21.949	-14.365	240.582	105.495	-18.101	-13.400	-10.376	-5.101	179.077	-8.910	-8191	255	
916.834	1	1	0	0	0.12758	0.063758	0.18204	0.24605	0.28665	0.14011	0.035802	0.16138	0.18002	0.079718	0.32015	0.14143	0.052896	0.29793	0.15652	0.16284	0.054167	0.2625	0.13125	-0.32083	0.46875	-0.14792	-0.17708	0.32083	-0.46458	-0.039583	0.3	-0.40417	0.33958	-0.14167	-0.15417	-0.03125	281.390	138.864	95.004	282.171	118.439	192.819	253.289	-6.072	320.300	267.228	225.432	14.929	0.169	169.002	88.425	281.282	0.00010138	0.00094498	0.00016524	400.36	3.0202e-06	3.4417e-06	403.61	161.17	3.4858e-06	3.3754e-06	182.86	68.671	60.984	28.611	4.0992e-06	31.624	0.0029078	0.0050309	0.0013854	430.91	5.3771e-05	5.7478e-05	411.94	165.5	5.1331e-05	5.7214e-05	189.13	71.532	65.189	29.722	5.3253e-05	32.763	146.461	42.739	92.183	-20.652	194.555	152.151	-21.786	-14.567	321.690	174.738	-18.335	-13.056	-9.815	-5.357	167.988	-9.106	-8191	255	
916.955	1	1	0	0	0.22367	0.13837	0.12588	0.35264	0.079029	0.2618	0.11437	0.19875	0.21364	0.10589	0.13163	0.2825	0.489	0.10993	0.16053	0.045809	-0.058333	0.275	0.40208	-0.34792	0.50625	0.0375	-0.13333	0.2875	-0.18333	-0.072917	0.36042	-0.48333	0.22708	-0.12083	-0.31667	0.4625	161.496	233.787	253.553	192.791	320.886	88.389	2.859	151.610	122.180	56.304	216.835	312.337	274.520	319.630	100.401	67.980	6.3693e-05	0.00075149	0.00018497	407.05	4.0274e-06	7.3124e-06	402.2	162.6	3.1628e-06	4.0188e-06	183.67	68.996	61.908	29.141	1.0441e-05	31.845	0.0030892	0.0053166	0.0014429	438.41	5.6548e-05	5.9855e-05	413.28	167.36	5.4089e-05	5.9455e-05	191.62	72.326	66.43	30.328	5.6991e-05	33.301	142.402	123.431	70.687	-20.428	197.561	113.945	-21.592	-14.690	300.681	153.732	-17.696	-13.051	-10.026	-5.273	122.803	-9.325	-8191	255	
917.027	1	1	0	0	0.22228	0.19522	0.21118	0.1456	0.13055	0.2038	0.19318	0.29734	0.23476	0.15967	0.24005	0.14689	0.16474	0.26785	0.17977	0.20058	0.00625	0.083333	0.33125	-0.55	0.2875	-0.12083	-0.5875	0.24167	-0.41458	-0.18542	0.38125	-0.40833	0.27292	0.016667	-0.31667	0.18958	64.771	99.225	38.717	59.047	15.053	202.029	216.148	274.005	126.863	187.467	243.592	316.744	250.026	299.590	322.764	241.754	6.9635e-05	0.0003451	0.00025951	417.43	9.561e-06	5.8471e-06	406.37	164.98	2.527e-06	8.3706e-06	184.36	69.565	63.407	29.71	3.5988e-06	32.021	0.0032539	0.0054848	0.0015424	446.94	5.9193e-05	6.1921e-05	418.05	169.43	5.5566e-05	6.0501e-05	192.6	72.831	67.362	30.751	5.8147e-05	33.446	148.937	28.320	99.362	-20.750	128.904	58.051	-21.929	-14.805	-28.969	251.584	-17.752	-13.131	-10.270	-5.487	146.995	-9.543	-8191	255	
917.123	1	1	0	0	0.1489	0.10141	0.18072	0.14265	0.053416	0.26587	0.15383	0.122	0.25142	0.047437	0.047438	0.034702	0.095406	0.22806	0.21847	0.19633	0.072917	-0.097917	0.41042	-0.26458	0.24583	0.21042	-0.47083	0.25208	-0.16042	-0.17708	0.57917	-0.375	0.325	0.16042	-0.25625	0.27708	172.141	80.114	141.847	104.327	-24.404	179.134	171.482	149.964	5.051	7.302	-8.337	181.439	229.073	33.002	92.715	209.250	0.00012602	0.0010945	0.00013992	422.25	3.0301e-06	5.8572e-06	401.92	165.56	3.6458e-06	1.4712e-05	183.81	68.9	63.457	29.882	5.0064e-06	32.143	0.0032801	0.0054932	0.0015735	453.94	5.9378e-05	6.2542e-05	416.08	170.88	5.6792e-05	6.1674e-05	191.74	72.815	67.983	31.075	6.1014e-05	33.537	123.669	79.555	26.642	-20.467	36.808	113.226	-21.751	-14.446	320.099	159.939	-17.703	-13.030	-10.047	-5.346	129.154	-9.953	-8191	255	
917.219	1	1	0	0	0.12346	0.19463	0.12145	0.058835	0.059762	0.18977	0.15831	0.28696	0.24936	0.1871	0.10247	0.14016	0.39886	0.22774	0.31796	0.17851	0.42083	-0.16875	0.54583	-0.27292	0.14583	0.22708	-0.33542	0.31042	-0.05	-0.17917	0.31458	-0.33542	0.12292	0.40417	-0.33125	0.32917	58.642	103.898	198.623	99.222	91.436	148.525	227.953	256.901	69.479	244.379	-29.772	-9.851	100.744	21.257	190.052	-4.796	1.5586e-05	0.00025049	1.5857e-05	418.78	1.3857e-06	5.0909e-06	403.61	167.45	5.2356e-06	8.2247e-06	183.97	69.577	63.394	30.169	5.2515e-06	31.901	0.0032678	0.0055816	0.0016278	456.55	5.8648e-05	6.2975e-05	418.84	173.03	5.772e-05	6.2975e-05	192.6	73.284	68.488	31.317	6.3121e-05	33.596	159.315	63.670	251.051	-20.303	215.633	231.125	-21.818	-14.486	8.014	170.039	-18.038	-13.034	-10.313	-5.515	68.641	-9.769	-8191	255	
917.340	1	1	0	0	0.070191	0.11045	0.30393	0.076215	0.1718	0.17151	0.22092	0.29326	0.272	0.20444	0.21296	0.22526	0.062073	0.21021	0.10978	0.072164	0.30833	-0.25833	0.55208	-0.12292	-0.0375	0.46042	-0.50833	0.075	0.35625	-0.29167	0.35	-0.064583	-0.00625	0.41875	-0.22083	0.20417	-21.657	27.664	307.868	265.155	-20.362	236.150	268.288	318.181	18.061	290.157	321.477	-31.566	221.236	273.796	176.014	126.512	0.00011149	0.00047276	0.00011665	424.31	7.3408e-06	3.8142e-06	403.88	166.57	3.1438e-06	7.5166e-06	182.13	69.241	63.667	29.532	6.8462e-06	31.783	0.0033859	0.0058818	0.0016904	460.05	6.1442e-05	6.8274e-05	420.86	172.64	6.1571e-05	7.0337e-05	193.23	73.543	68.638	30.953	7.041e-05	33.508	172.705	37.644	317.746	-20.917	95.159	289.064	-21.802	-15.024	182.081	226.224	-18.133	-13.409	-10.278	-5.163	35.285	-9.657	-8191	255	
917.436	1	1	0	0	0.12453	0.062945	0.32467	0.13875	0.1974	0.15728	0.10647	0.06524	0.083297	0.29851	0.15996	0.087082	0.23745	0.070409	0.31693	0.25313	0.66458	-0.28542	0.54583	0.15208	-0.24792	0.35	-0.27292	0.045833	0.40208	-0.45625	0.3875	-0.077083	-0.33125	0.25417	-0.43542	-0.025	99.242	66.976	10.501	16.209	-9.226	-26.311	202.392	60.823	12.760	316.287	110.891	156.298	246.707	-16.382	281.353	240.302	2.5128e-05	0.00062015	5.4224e-05	422.98	4.3885e-06	5.5006e-06	399.98	166.16	2.9498e-06	4.6104e-06	181.58	68.818	63.294	29.427	3.264e-06	31.214	0.0037317	0.0067171	0.0018839	461.68	6.802e-05	7.4126e-05	421.89	171.8	6.3141e-05	7.1373e-05	193.18	72.642	68.052	30.688	6.5584e-05	32.807	152.621	75.722	138.826	-20.300	90.275	105.227	-21.611	-14.792	150.357	81.341	-17.956	-13.226	-10.438	-5.162	213.854	-9.505	-8191	255	
917.532	1	1	0	0	0.3466	0.10369	0.080568	0.16227	0.10805	0.28893	0.073997	0.33694	0.22597	0.3751	0.13262	0.29667	0.21737	0.1223	0.099952	0.20115	0.79375	-0.30625	0.40208	0.060417	-0.16458	0.55625	-0.30625	0.054167	0.44792	-0.4	0.36875	0.0375	-0.44583	0.28958	-0.25417	-0.15417	93.571	24.036	67.320	286.457	43.582	236.409	233.048	257.180	326.933	182.692	61.890	292.660	243.360	-16.755	70.261	202.030	2.5011e-05	0.00023791	0.00028338	423.38	3.5298e-06	2.6182e-06	402.61	165.05	6.6584e-06	1.4346e-05	181.04	67.28	63.485	29.153	4.0264e-06	31.082	0.0035146	0.0062076	0.0017201	458.48	6.2692e-05	6.8479e-05	418.96	170.47	5.9542e-05	6.81e-05	190.61	71.646	67.775	30.515	6.2571e-05	32.45	231.510	301.463	31.242	-20.685	165.682	242.185	-21.610	-14.828	133.138	90.322	-17.645	-12.544	-10.380	-4.847	166.386	-9.014	-8191	255	
917.628	1	1	0	0	0.1707	0.15775	0.16112	0.22573	0.21767	0.15043	0.15115	0.10216	0.30358	0.3626	0.16671	0.10183	0.21351	0.12942	0.17014	0.12062	0.80625	-0.31042	0.47292	0.3	-0.3	0.525	-0.17292	-0.20625	0.35	-0.21042	0.19792	0.20833	-0.33542	0.39792	-0.085417	-0.24167	53.217	291.478	295.204	151.328	113.924	45.217	33.282	144.295	39.971	206.538	282.994	61.760	205.936	-0.970	8.876	312.248	4.2845e-05	0.00034469	0.00022497	423.89	3.9711e-06	4.9136e-06	406.34	165.3	3.9684e-06	5.9214e-06	183.92	69.094	63.065	29.456	3.4519e-06	31.429	0.0034383	0.0059931	0.0016377	456.26	6.1334e-05	6.7872e-05	421.11	170.89	5.8987e-05	6.6197e-05	191.92	72.261	67.827	30.647	6.1376e-05	32.926	189.914	34.883	39.434	-20.407	155.482	-21.907	-21.285	-14.257	109.209	174.128	-17.571	-12.933	-10.032	-5.336	90.589	-9.413	-8191	255	
917.724	1	1	0	0	0.1123	0.11094	0.31623	0.19213	0.18699	0.29014	0.30088	0.06578	0.051778	0.21179	0.24113	0.26748	0.060163	0.1565	0.17154	0.25446	0.96458	-0.2625	0.1	0.425	-0.39583	0.52083	-0.1125	-0.36667	0.48125	-0.29375	-0.035417	0.32917	-0.44375	0.16667	0.11458	-0.43333	190.919	87.651	112.233	298.896	300.844	74.388	322.242	95.412	267.191	240.291	205.086	190.049	32.068	102.525	58.882	258.279	0.00013185	0.00071946	0.00024685	421.5	3.5428e-06	8.0731e-06	406.41	166.63	6.7801e-06	5.212e-06	183.89	68.944	63.619	29.535	2.9926e-06	31.577	0.0034501	0.006054	0.0016497	456.72	6.2599e-05	6.7118e-05	422.47	171.48	5.9248e-05	6.63e-05	192.56	73.191	68.151	30.759	6.0977e-05	33.299	138.152	40.308	91.958	-20.695	118.065	24.427	-20.852	-14.270	134.094	70.248	-17.866	-12.451	-10.291	-5.630	215.844	-9.417	-8191	255	
917.820	1	1	0	0	0.12834	0.16978	0.15957	0.2397	0.096372	0.12513	0.065986	0.41329	0.17104	0.19825	0.29737	0.15555	0.10771	0.12832	0.23608	0.14337	0.85	-0.35625	-0.047917	0.45833	-0.45208	0.3375	0.0020833	-0.29375	0.35208	-0.27708	-0.16458	0.22292	-0.50833	-0.025	0.12917	-0.36458	36.963	175.045	185.232	317.951	182.388	-4.815	43.113	-25.235	200.557	203.232	29.117	122.711	122.759	64.368	301.014	307.444	7.396e-05	0.00022181	0.00021449	424.43	9.6082e-06	1.9171e-06	407.99	166.52	3.4697e-06	5.147e-06	185.82	70.127	63.68	30.111	8.0449e-06	32.169	0.0034748	0.005949	0.0016207	457.52	6.2874e-05	6.6589e-05	423.06	172.15	6.0045e-05	6.6119e-05	194.37	73.875	68.522	31.089	6.1246e-05	33.557	190.957	48.642	93.911	-20.514	196.085	83.325	-21.293	-14.174	181.481	82.460	-17.608	-13.163	-10.001	-5.307	129.938	-9.116	-8191	255	
917.917	1	1	0	0	0.12787	0.096948	0.13579	0.15619	0.017086	0.12722	0.15238	0.3068	0.23378	0.24023	0.17554	0.07204	0.14501	0.32452	0.17044	0.32222	0.83958	-0.31042	0.06875	0.51667	-0.4125	0.15625	0.11458	-0.36875	0.47083	0.064583	-0.35625	0.65625	-0.35417	0.06875	0.26875	-0.69792	115.452	92.184	4.322	165.853	-11.160	230.945	271.244	249.232	291.895	31.376	297.941	236.576	314.820	181.332	274.427	146.343	0.00012949	0.00074419	0.00026889	424.78	6.9876e-06	3.3674e-06	412.91	169.17	2.3375e-06	7.0492e-06	185.3	69.556	65.46	30.237	3.195e-06	32.38	0.0035067	0.0059262	0.0016601	463.03	6.4249e-05	6.7591e-05	426.94	174.58	6.2696e-05	6.7017e-05	194.7	73.825	69.8	31.525	6.4666e-05	33.681	164.109	97.877	29.171	-20.047	32.285	109.008	-21.465	-15.120	-26.422	162.410	-17.490	-12.919	-9.922	-5.090	198.026	-9.198	-8191	255	
918.035	1	1	0	0	0.14546	0.16345	0.24263	0.052862	0.08042	0.2005	0.11893	0.22052	0.28056	0.13304	0.30524	0.21591	0.096368	0.10318	0.17481	0.079337	0.86042	-0.10833	-0.30833	0.35208	-0.28542	-0.025	0.26042	-0.4	0.32708	0.0625	-0.33125	0.35417	-0.17708	0.24583	0.49167	-0.51042	3.295	-4.669	256.752	76.370	72.767	295.488	317.340	325.990	145.869	24.868	236.242	214.920	62.008	204.709	305.821	313.226	7.1963e-05	0.00056711	0.00011993	430.81	3.3457e-06	3.111e-06	410.43	172.46	5.9602e-06	4.6466e-06	184.81	70.055	65.665	30.642	1.0709e-05	31.972	0.0036204	0.0060678	0.0016807	470.65	6.3759e-05	6.6545e-05	425.62	177.4	6.0956e-05	6.601e-05	195.67	73.808	70.737	31.881	6.5659e-05	33.55	173.685	306.216	320.022	-20.434	213.522	95.197	-20.835	-14.240	198.643	66.253	-17.441	-12.452	-9.946	-5.372	226.021	-9.352	-8191	255	
918.132	1	1	0	0	0.14751	0.17896	0.36083	0.16412	0.19432	0.074703	0.14956	0.1914	0.11906	0.073873	0.11037	0.17484	0.21933	0.11887	0.10373	0.15846	0.675	0.22917	-0.4125	0.28958	-0.1625	-0.075	0.25417	-0.39375	0.31667	0.28125	-0.52708	0.375	-0.1	-0.19792	0.21667	-0.26667	254.567	244.223	311.632	296.590	184.913	166.659	59.499	290.554	50.240	150.382	194.559	125.938	-6.511	91.000	162.934	87.171	9.3619e-05	0.00027504	0.00011555	433.89	4.3748e-06	8.6259e-07	407.79	172.14	1.9703e-06	5.3884e-06	185.1	69.732	66.004	30.582	1.1451e-05	32.054	0.0035772	0.0062149	0.0017817	473.01	6.6494e-05	7.0093e-05	425.46	178.28	6.4374e-05	7.1435e-05	195.86	74.21	71.521	32.155	7.1831e-05	33.828	121.507	170.699	312.558	-20.848	94.119	150.447	-21.988	-14.763	323.107	70.243	-18.313	-13.692	-10.666	-5.915	54.353	-9.980	-8191	255	
918.228	1	1	0	0	0.27575	0.043097	0.052467	0.2832	0.19088	0.086991	0.21762	0.1424	0.24347	0.18109	0.25006	0.19046	0.095937	0.17983	0.15538	0.27507	0.58542	0.24792	-0.33958	0.38333	-0.0083333	-0.30208	0.3125	-0.37292	0.17708	0.49167	-0.37917	0.31875	-0.052083	-0.24792	0.47708	-0.21667	24.658	251.118	313.182	-24.926	120.532	60.562	91.623	-16.345	23.602	278.234	305.049	109.082	312.456	36.296	2.832	179.813	0.00013226	0.00085851	9.5712e-05	438.7	7.5239e-06	3.0462e-06	405.92	172.3	1.4988e-06	9.1959e-06	185.08	70.368	66.601	30.938	9.5077e-06	32.019	0.003933	0.0068471	0.0019697	480.86	7.2098e-05	7.8444e-05	426.32	179.13	6.8945e-05	7.7524e-05	197.21	74.769	71.983	32.417	7.7043e-05	34.034	133.112	0.492	-27.450	-21.062	75.610	136.904	-22.016	-14.741	280.664	230.690	-17.893	-13.426	-10.364	-5.784	140.929	-10.001	-8191	255	
918.324	1	1	0	0	0.34309	0.31553	0.24804	0.27161	0.14574	0.033724	0.099599	0.12119	0.13176	0.19801	0.41571	0.1248	0.06762	0.17565	0.11482	0.2013	0.36667	0.38542	-0.36458	0.16667	-0.058333	-0.28333	0.46458	-0.29167	0.13333	0.42083	-0.44167	0.31458	0.28125	-0.33958	0.45625	-0.30833	22.691	107.800	58.720	322.180	185.453	143.699	174.901	44.219	98.671	98.316	316.469	205.258	76.026	307.841	206.245	171.221	0.00020006	0.00030751	6.763e-05	436.23	1.3461e-06	3.5063e-06	403.33	171	1.5687e-06	1.0842e-05	182.75	68.878	65.888	30.626	2.4182e-06	31.644	0.004067	0.0071099	0.0020484	479.83	7.3449e-05	8.1974e-05	423.73	178	7.0963e-05	8.2602e-05	195	73.935	71.554	32.182	7.9548e-05	33.689	137.506	128.544	325.705	-20.912	119.116	-16.604	-21.790	-14.671	77.789	153.498	-18.383	-13.416	-10.420	-5.643	3.480	-9.626	-8191	255	
918.420	1	1	0	0	0.14944	0.2228	0.1027	0.13149	0.02422	0.22089	0.10993	0.10652	0.20018	0.20138	0.12423	0.17317	0.087236	0.28499	0.038871	0.1904	0.15	0.4625	-0.40417	0.21458	0.2625	-0.45	0.49792	-0.095833	-0.058333	0.38333	-0.45	0.11458	0.19583	-0.42083	0.43333	-0.11042	293.775	-29.861	68.410	134.662	159.111	126.697	265.927	258.090	295.514	257.162	317.843	204.634	166.355	-1.410	236.308	32.757	0.00010756	0.00050982	2.832e-05	437.24	6.1811e-06	1.0331e-05	401.44	170.53	8.2566e-06	1.0556e-05	181.29	68.361	64.804	30.209	1.0463e-05	31.231	0.0042618	0.0076239	0.0021602	483.58	8.0149e-05	8.9764e-05	425.76	178.16	7.9485e-05	9.1576e-05	195.93	73.86	71.566	32.085	8.6427e-05	33.645	136.257	39.518	326.113	-21.175	114.908	68.683	-21.867	-14.622	243.773	189.098	-17.889	-13.047	-10.270	-5.758	85.704	-9.292	-8191	255	
918.516	1	1	0	0	0.1124	0.25062	0.10204	0.13238	0.18431	0.16179	0.32205	0.35842	0.15131	0.25269	0.42826	0.032661	0.094622	0.18351	0.36008	0.32036	0.21667	0.57917	-0.275	0.2125	0.29583	-0.39792	0.43542	0.08125	-0.275	0.59583	-0.18333	0.039583	0.3	-0.38125	0.39792	-0.033333	103.020	297.705	8.064	271.247	324.339	-26.344	62.731	320.031	50.759	320.584	45.409	260.444	318.259	277.958	195.333	280.992	0.0001648	0.00057518	9.6672e-05	437.16	7.0257e-06	5.2086e-06	399.61	169.53	2.3954e-06	2.4381e-06	183.66	68.649	65.354	30.354	5.4367e-06	31.444	0.0046466	0.0083181	0.0022771	488.05	8.5404e-05	9.3233e-05	425.64	178.38	8.0402e-05	8.9943e-05	196.14	73.821	71.844	32.104	8.2759e-05	33.597	115.146	233.704	96.710	-21.028	141.740	121.893	-21.701	-14.841	109.890	228.647	-18.205	-13.313	-10.321	-5.914	-5.045	-9.140	-8191	255	
918.637	1	1	0	0	0.050988	0.18841	0.11812	0.24609	0.28611	0.17319	0.078814	0.1175	0.13014	0.15462	0.05708	0.16954	0.17224	0.17168	0.1637	0.28696	0.020833	0.55625	-0.35625	-0.13333	0.5	-0.27708	0.10833	0.095833	-0.31667	0.37708	-0.20625	0.089583	0.35417	-0.44375	0.38542	0.16875	218.382	180.376	114.268	186.529	263.369	60.198	-5.560	167.801	326.198	-19.951	199.066	176.197	33.950	91.655	7.011	250.829	6.4535e-05	4.3404e-05	0.00021454	435.29	1.8239e-06	1.1599e-06	402.08	169.7	4.1507e-06	2.6584e-06	182.1	68.776	65.013	30.564	2.1985e-06	31.417	0.0045605	0.0078825	0.0021725	483.71	8.2198e-05	8.7885e-05	424.25	177.47	7.8369e-05	8.6362e-05	194.99	73.877	71.599	32.092	7.8311e-05	33.58	123.976	45.608	151.723	-20.527	24.899	208.689	-21.532	-14.345	77.162	6.158	-17.375	-13.500	-10.119	-5.659	101.703	-9.410	-8191	255	
918.731	1	1	0	0	0.14884	0.25522	0.15469	0.26565	0.14154	0.11118	0.073868	0.24176	0.094285	0.2553	0.056881	0.1287	0.11604	0.036582	0.35102	0.19484	-0.1375	0.53125	-0.075	-0.27292	0.46667	-0.42292	0.15417	0.17083	-0.41667	0.42292	-0.17708	-0.24375	0.46875	-0.40417	0.0020833	0.31667	287.886	123.977	-16.915	195.217	217.276	237.678	232.751	273.534	183.009	11.194	221.478	324.385	244.040	107.724	113.282	232.198	0.00010991	0.00040534	0.00027716	433.06	1.1252e-05	1.33e-05	397.67	168.96	2.2887e-06	1.1105e-05	181.44	68.049	64.598	30.242	8.7594e-06	31.22	0.004414	0.0076096	0.0020827	480.3	8.049e-05	8.5402e-05	419.14	177.33	7.616e-05	8.4866e-05	192.9	73.34	70.929	31.814	7.7802e-05	33.249	177.447	295.865	20.805	-20.837	128.437	4.410	-21.995	-14.130	235.986	180.141	-17.820	-13.131	-10.001	-5.303	159.258	-9.650	-8191	255	
918.827	1	1	0	0	0.085633	0.4712	0.34024	0.069412	0.17604	0.050822	0.30497	0.24588	0.31876	0.068774	0.25738	0.1486	0.34934	0.18982	0.22794	0.21186	-0.016667	0.34583	0.03125	-0.21667	0.39375	-0.36667	0.0083333	0.12708	-0.39583	0.3125	0.029167	-0.25833	0.3125	-0.54583	-0.10625	0.36667	105.923	47.868	315.171	182.172	160.527	19.371	117.731	263.597	270.570	264.491	42.993	-24.359	257.158	250.030	22.935	322.486	0.00016646	6.3557e-05	0.00010494	429.03	8.1004e-06	6.2071e-06	394.82	169.41	5.8362e-06	6.5299e-06	179.6	68.14	64.639	30.343	4.8767e-06	31.308	0.0044586	0.0074414	0.00207	475.74	7.7577e-05	8.1708e-05	414.58	175.82	7.1751e-05	7.7355e-05	191.67	72.839	70.206	31.634	7.0471e-05	33.04	195.032	165.621	66.677	-20.845	91.732	124.941	-21.985	-14.636	116.396	127.163	-17.879	-13.075	-10.472	-5.255	176.296	-9.275	-8191	255	
918.901	1	1	0	0	0.30431	0.14393	0.30489	0.15002	0.30547	0.17981	0.19872	0.16669	0.10964	0.048505	0.14737	0.18802	0.12323	0.2863	0.23288	0.24677	-0.089583	0.27083	0.18958	-0.48333	0.3875	-0.17708	-0.28125	0.275	-0.26875	0.28125	0.14167	-0.39583	0.41042	-0.23958	-0.46875	0.28125	-24.579	138.605	265.216	-15.478	325.955	234.702	321.282	2.575	241.070	161.390	31.798	218.914	13.557	-24.797	-23.358	208.532	0.00013863	0.00023537	0.0001879	427.55	1.0519e-06	3.3526e-06	396.62	167.91	1.0136e-06	2.7818e-06	179.56	68.202	63.415	29.464	4.9041e-06	30.966	0.0039479	0.0067129	0.0018803	467.77	7.0935e-05	7.3752e-05	413.05	174.47	6.5341e-05	6.968e-05	190.87	72.39	68.549	30.735	6.515e-05	32.638	141.978	236.719	-13.732	-20.950	55.715	262.898	-21.800	-14.451	157.931	3.694	-18.195	-12.704	-9.645	-5.472	133.002	-9.149	-8191	255	
919.020	1	1	0	0	0.15371	0.18709	0.20208	0.21557	0.19058	0.42566	0.1418	0.35823	0.11429	0.18841	0.20823	0.35845	0.11008	0.041633	0.12763	0.11505	-0.029167	0.091667	0.15833	-0.31875	0.45625	-0.097917	-0.22083	0.50625	-0.30208	-0.01875	0.25417	-0.59583	0.20417	-0.025	-0.24375	0.22083	82.699	276.734	192.238	-32.284	4.548	185.573	305.723	288.158	-15.517	205.096	208.971	291.886	315.242	5.216	259.743	213.416	8.6865e-05	0.00016396	7.7104e-05	410.86	1.3749e-06	4.3731e-06	394.5	161.27	3.6988e-06	5.1127e-06	180.6	66.85	60.798	28.012	8.1952e-06	30.389	0.0035728	0.0059615	0.0017001	446.18	6.1999e-05	6.667e-05	407.41	166.75	5.9828e-05	6.5991e-05	189.23	71.049	65.337	29.311	6.5102e-05	31.938	181.250	55.970	208.205	-20.250	257.605	9.347	-21.657	-14.444	102.505	-17.165	-17.507	-13.275	-9.832	-5.305	-14.408	-9.124	-8191	255	
919.116	1	1	0	0	0.16038	0.29403	0.072722	0.085378	0.16616	0.20637	0.0918	0.22749	0.1029	0.17211	0.15116	0.045413	0.029391	0.18547	0.17056	0.066468	0.066667	0.16875	0.27708	-0.27917	0.34583	0.11667	-0.26042	0.40833	-0.25833	-0.14792	0.48125	-0.43333	0.13958	0.21667	-0.35833	0.43125	60.946	31.651	-27.169	274.768	257.673	47.805	122.732	224.754	246.696	295.422	304.721	193.964	180.364	249.479	216.110	233.775	0.00014223	0.0004212	0.00015438	398.8	7.6471e-06	8.9512e-06	390.35	159.23	2.2004e-06	1.047e-05	180.47	66.577	59.735	27.693	6.9228e-06	29.398	0.0034837	0.006092	0.0017437	436.41	6.3741e-05	6.8025e-05	407.84	164.44	6.0336e-05	6.739e-05	188.95	70.455	64.563	28.877	6.3024e-05	30.95	168.556	56.565	6.428	-21.072	134.359	179.683	-21.774	-14.886	90.962	218.223	-18.144	-13.191	-10.165	-5.885	200.770	-9.604	-8191	255	
919.212	1	1	0	0	0.04815	0.18036	0.09386	0.08067	0.11155	0.058491	0.097253	0.29567	0.1978	0.3196	0.098494	0.12537	0.16935	0.16202	0.057387	0.17092	0.11875	-0.23542	0.55208	-0.28958	0.29375	0.29583	-0.34375	0.33333	-0.08125	-0.29375	0.33958	-0.35833	0.041667	0.32083	-0.45	0.33333	209.636	169.220	-20.620	125.575	293.807	69.772	21.592	299.275	103.608	154.048	168.449	170.958	195.891	38.150	-13.527	166.932	0.00010965	0.0002743	5.4991e-05	397.95	4.3471e-06	2.6988e-06	389.04	156.95	4.3952e-06	2.3064e-06	177.23	66.127	59.055	26.914	5.2571e-06	28.636	0.0033337	0.0058222	0.0016436	432.07	5.8597e-05	6.3658e-05	403.15	161.59	5.3957e-05	6.021e-05	185.7	69.163	63.079	27.984	5.5616e-05	29.794	145.095	86.156	-10.014	-20.732	28.101	-15.658	-20.754	-14.656	140.050	95.287	-18.110	-13.035	-10.190	-5.735	136.279	-9.391	-8191	255	
919.308	1	1	0	0	0.23737	0.38365	0.11206	0.16747	0.12584	0.24767	0.15006	0.35043	0.10158	0.23657	0.13502	0.21561	0.1795	0.031605	0.13101	0.25627	0.56458	-0.03125	0.55625	-0.21042	0.12083	0.50208	-0.39583	0.3	0.14375	-0.27708	0.55833	-0.35	0.1	0.14375	-0.46667	0.31875	273.465	163.723	230.203	227.956	-0.230	39.951	56.342	307.209	147.057	248.832	-19.372	284.464	102.745	163.289	-11.092	277.298	0.00014648	0.0011467	0.00018394	387.33	5.02e-06	3.935e-06	384.44	154.86	3.2831e-06	2.3829e-06	175.63	65.506	58.493	26.264	6.1918e-06	27.545	0.0029381	0.0052022	0.0014391	416.18	5.182e-05	5.7004e-05	398.42	158.61	4.8855e-05	5.6171e-05	183.14	68.078	62.093	27.249	5.2714e-05	28.851	147.135	57.740	99.467	-20.371	165.217	149.388	-21.392	-14.202	284.667	123.545	-18.173	-12.749	-10.367	-5.190	174.588	-9.729	-8191	255	
919.429	1	1	0	0	0.13274	0.14362	0.13681	0.17025	0.1813	0.22473	0.28964	0.15996	0.19844	0.20466	0.097447	0.1341	0.19243	0.095351	0.15398	0.13838	0.56458	-0.275	0.34583	-0.11042	0.041667	0.32708	-0.275	0.11875	0.29792	-0.33333	0.35	-0.045833	-0.17708	0.49792	-0.26667	0.1625	274.424	145.114	-7.713	245.582	194.003	292.916	233.109	-19.873	1.726	6.719	36.171	210.153	49.088	319.929	135.674	148.087	6.1593e-05	0.00070336	9.2508e-05	384.17	3.8708e-06	1.3377e-05	389.1	152.23	1.0996e-06	7.9715e-06	175.97	64.983	58.079	25.755	3.0924e-06	27.56	0.0028792	0.0050338	0.0013654	412.8	5.0821e-05	5.5976e-05	400.57	156.94	4.9105e-05	5.4307e-05	183.09	67.547	61.743	26.818	5.1432e-05	28.501	156.939	69.265	36.528	-20.983	191.232	203.780	-21.102	-14.837	53.636	27.353	-17.924	-12.943	-10.278	-5.662	152.159	-9.642	-8191	255	
919.500	1	1	0	0	0.11945	0.018796	0.18061	0.13667	0.18712	0.21377	0.11867	0.092374	0.036533	0.039887	0.17429	0.17264	0.20984	0.25888	0.28364	0.15519	0.35833	-0.34792	0.32083	-0.11458	-0.1	0.4125	-0.50625	-0.025	0.29583	-0.26875	0.45833	0.05625	-0.18333	0.48958	-0.49792	-0.11458	275.695	4.510	24.606	50.938	71.064	45.489	189.629	-16.355	91.686	36.425	301.046	308.604	-26.753	5.293	218.433	321.337	0.00014091	0.00027851	8.8398e-05	384.2	3.3084e-06	5.4538e-06	390.59	153.09	1.0921e-06	5.1674e-06	175.35	64.123	57.461	25.815	1.9726e-06	27.235	0.0028871	0.005009	0.0013675	413.54	5.1486e-05	5.5642e-05	401	157.24	5.0451e-05	5.5788e-05	182.63	67.444	61.76	26.821	5.0914e-05	28.389	179.032	84.070	217.188	-20.133	99.617	58.023	-21.126	-14.682	81.891	160.361	-17.217	-13.005	-10.288	-5.508	158.830	-9.333	-8191	255	
919.597	1	1	0	0	0.15369	0.15895	0.179	0.056251	0.099705	0.26224	0.057842	0.19207	0.28976	0.2066	0.2725	0.25711	0.069067	0.046762	0.32569	0.064653	0.63333	-0.29792	0.27083	0.083333	-0.10625	0.5125	-0.18125	0.13542	0.44375	-0.45417	0.2375	0.039583	-0.20833	0.44167	-0.2375	-0.25208	136.751	111.140	83.402	131.162	12.009	49.751	-16.047	315.703	84.488	299.043	230.638	272.388	112.389	103.732	95.345	176.275	6.3439e-05	0.00068028	0.00021336	388.28	8.111e-06	1.5663e-06	392.02	153.82	1.6365e-06	4.8296e-06	175.69	64.817	57.731	26.159	6.301e-06	27.466	0.0028437	0.0048494	0.0013124	413.64	4.9979e-05	5.3074e-05	401.02	157.47	4.7876e-05	5.1483e-05	182.33	67.424	61.426	26.969	4.8181e-05	28.628	160.225	149.921	317.340	-20.597	153.845	320.237	-21.377	-14.281	318.692	122.796	-17.682	-13.181	-9.974	-5.569	122.864	-9.983	-8191	255	
919.717	1	1	0	0	0.11656	0.23638	0.27178	0.26163	0.027629	0.23395	0.085316	0.19342	0.2125	0.15846	0.26787	0.18224	0.31156	0.16775	0.2755	0.24997	0.87917	-0.375	0.18542	0.04375	-0.21458	0.30625	-0.095833	-0.13958	0.38542	-0.31458	-0.041667	0.29375	-0.43125	0.48333	-0.14167	-0.22917	88.425	135.731	-0.026	266.750	125.059	177.990	94.430	-6.290	129.866	59.563	283.998	116.401	184.243	-8.337	185.126	-15.718	0.00011347	0.0004223	9.9756e-05	385.88	3.0475e-06	5.1253e-06	392.65	154.32	2.7012e-06	3.6953e-06	176.27	65.396	58.116	26.181	4.9082e-06	27.731	0.0027238	0.0045781	0.0012679	412.78	4.9039e-05	5.0573e-05	399.14	157.61	4.5798e-05	4.9239e-05	182.34	67.661	61.644	27.098	4.7902e-05	28.798	148.140	71.512	55.289	-20.047	137.203	119.420	-21.461	-14.695	-15.823	93.165	-18.050	-13.150	-10.066	-5.771	13.291	-9.578	-8191	255	
919.812	1	1	0	0	0.11912	0.27766	0.11489	0.15807	0.24283	0.28664	0.21449	0.18083	0.074547	0.035304	0.1839	0.25874	0.041849	0.12616	0.23646	0.15494	0.80833	-0.40417	0.32917	0.30208	-0.42917	0.54792	-0.077083	-0.36458	0.5125	-0.21875	-0.035417	0.35417	-0.48958	0.4	0.11875	-0.49167	27.893	220.941	3.278	7.624	81.054	53.850	236.192	109.323	-9.300	196.690	198.886	210.963	234.750	285.186	29.558	-17.742	0.00016785	0.00010468	0.00016625	393.51	1.9061e-06	4.136e-06	392.08	154.89	4.1581e-06	9.0066e-06	176.23	64.599	57.585	25.976	2.6871e-06	27.364	0.0027018	0.0045114	0.0012741	415.63	4.879e-05	5.1075e-05	402.37	157.86	4.6807e-05	5.1061e-05	182.6	67.63	61.609	26.844	5.1032e-05	28.532	163.224	164.954	57.990	-19.885	310.644	-5.029	-20.998	-14.137	176.467	110.384	-17.865	-13.463	-10.251	-5.960	236.199	-9.864	-8191	255	
919.910	1	1	0	0	0.19746	0.11384	0.34487	0.055501	0.1825	0.15962	0.03076	0.35547	0.072964	0.051501	0.1496	0.12526	0.14668	0.06903	0.24561	0.079755	0.89583	-0.30833	0.01875	0.49375	-0.32292	0.31875	0.14792	-0.28125	0.4125	-0.15625	-0.30417	0.33958	-0.32708	0.30833	0.31458	-0.41042	126.001	176.649	-6.208	175.106	203.884	319.206	218.815	273.867	17.471	290.070	237.876	196.829	68.807	301.661	73.028	48.355	0.0001118	0.00060665	9.6599e-05	392.82	3.3673e-06	5.3534e-06	393.85	154.19	4.0445e-06	3.9097e-06	176.23	63.804	58.067	25.959	2.7691e-06	27.463	0.0027968	0.0046856	0.0013546	418.05	5.0588e-05	5.4059e-05	403	157.83	4.8606e-05	5.3906e-05	182.96	67.274	61.62	26.926	5.3198e-05	28.66	161.439	104.823	-13.546	-19.821	61.015	-3.591	-21.613	-14.305	125.257	88.158	-18.019	-13.224	-9.780	-6.259	-15.778	-9.507	-8191	255	
920.028	1	1	0	0	0.067713	0.14341	0.2365	0.092722	0.31262	0.33798	0.13526	0.050202	0.15238	0.26951	0.15754	0.075716	0.068015	0.25219	0.20744	0.056022	0.69375	-0.16667	-0.21458	0.49792	-0.41875	0.21458	0.21042	-0.40625	0.39583	-0.079167	0.010417	0.46875	-0.052083	-0.022917	0.35417	-0.38958	184.130	279.850	130.135	192.446	75.793	261.505	257.824	-23.640	240.543	87.068	72.328	62.856	45.252	285.103	223.945	228.069	0.00011917	0.00034017	0.00012005	390.25	1.0298e-06	3.8256e-06	392.78	155.05	5.1583e-06	5.0899e-06	176.48	64.083	57.709	26.051	9.9164e-07	27.798	0.0028741	0.004923	0.0014092	418.92	5.1486e-05	5.4938e-05	403.13	158.56	4.933e-05	5.566e-05	183.03	67.371	61.649	27.019	5.4183e-05	28.88	166.295	54.516	85.946	-20.582	-28.122	224.402	-21.265	-14.461	69.279	13.716	-18.350	-13.359	-10.611	-6.059	103.798	-10.126	-8191	255	
920.125	1	1	0	0	0.1463	0.053287	0.1091	0.18507	0.28582	0.18394	0.16497	0.27983	0.13831	0.35641	0.29531	0.19026	0.16946	0.21294	0.22223	0.13119	0.68125	0.041667	-0.0875	0.3	-0.23125	0.010417	0.40208	-0.44375	0.18125	-0.14375	-0.30625	0.49167	-0.3375	-0.21875	0.42083	-0.49583	91.336	18.370	-23.052	19.405	223.014	55.482	307.528	297.679	-21.584	3.159	256.751	81.539	256.640	18.374	94.343	-1.768	0.00010247	0.00083168	6.7321e-05	389.22	2.7395e-06	7.5083e-06	387.49	155.79	2.1133e-06	6.0948e-06	177.1	64.253	58.02	26.36	3.5208e-06	27.785	0.002892	0.0050595	0.0014443	418.91	5.1775e-05	5.7316e-05	400.93	159.45	5.0519e-05	5.7849e-05	183.95	67.621	62.003	27.364	5.5061e-05	29.127	113.791	28.744	107.087	-21.048	249.693	67.771	-21.883	-15.189	103.976	25.916	-18.444	-13.149	-10.500	-6.342	105.087	-10.195	-8191	255	
920.196	1	1	0	0	0.098525	0.25578	0.04848	0.24598	0.080871	0.070385	0.28401	0.26177	0.10045	0.37077	0.09737	0.27915	0.17867	0.14608	0.074098	0.45346	0.63958	0.11667	-0.4125	0.57083	-0.079167	-0.12708	0.48125	-0.33542	0.2625	0.25625	-0.26042	0.40833	-0.14583	-0.25625	0.40208	-0.25	72.551	145.140	149.126	111.901	84.935	-15.954	282.695	284.753	143.802	48.983	190.804	268.602	304.122	307.496	245.489	41.699	6.5346e-05	0.00029794	0.00010092	386.07	6.9555e-06	2.4052e-07	390.07	154.49	2.8464e-06	1.3844e-06	176.88	64.781	58.655	26.485	6.4029e-06	28.424	0.0029454	0.0052322	0.0014712	421.3	5.3364e-05	5.9026e-05	403.58	159.91	5.1184e-05	5.8428e-05	184.94	68.142	62.538	27.555	5.5478e-05	29.674	154.102	143.827	-27.244	-20.456	135.378	-21.964	-21.859	-15.097	75.896	15.808	-18.099	-13.600	-10.536	-6.134	-14.881	-9.556	-8191	255	
920.317	1	1	0	0	0.17703	0.017092	0.30739	0.26593	0.23971	0.066712	0.21277	0.25174	0.21612	0.19776	0.28356	0.31037	0.20486	0.19263	0.36922	0.24297	0.35417	0.32708	-0.4	0.16458	0.091667	-0.32292	0.35417	-0.16458	0.072917	0.36458	-0.47917	0.39167	-0.016667	-0.5125	0.39375	-0.36667	186.667	267.705	273.270	60.314	264.397	230.741	196.484	298.762	104.729	268.251	298.770	23.221	295.708	306.283	88.282	-29.839	0.00014792	0.00036035	0.00014151	395.13	4.1045e-06	1.5072e-06	393.02	156.94	1.6331e-06	2.3564e-06	177.48	65.732	58.554	26.536	8.8083e-06	28.635	0.003033	0.0054225	0.0014643	421.79	5.4286e-05	5.9328e-05	404.15	160.75	5.3057e-05	5.9278e-05	186.21	68.805	62.842	27.684	5.6252e-05	29.926	174.394	153.305	324.173	-20.337	123.860	196.158	-21.900	-14.955	218.410	144.461	-18.258	-13.025	-10.373	-5.823	146.105	-9.863	-8191	255	
920.413	1	1	0	0	0.27928	0.10685	0.16018	0.15167	0.1315	0.12351	0.10381	0.1574	0.061579	0.079811	0.15705	0.23347	0.30947	0.28843	0.14323	0.34676	0.47708	0.31875	-0.26667	0.3375	0.08125	-0.44792	0.38958	-0.24792	-0.10833	0.325	-0.49583	0.11667	0.085417	-0.52292	0.54375	-0.054167	130.340	20.108	57.495	223.120	232.499	10.645	259.874	246.766	7.991	243.360	199.340	122.023	99.094	262.551	202.297	281.026	0.00011823	0.00019002	6.1671e-05	394.79	1.8004e-06	5.0526e-06	394.06	157.83	9.9043e-07	4.7639e-06	177.89	65.122	58.715	26.587	1.5492e-06	28.453	0.0031299	0.0054604	0.0014705	424.13	5.6169e-05	6.0349e-05	405.75	161.66	5.3892e-05	6.0348e-05	186.07	68.392	63.305	27.808	5.5856e-05	29.777	154.303	134.611	-30.605	-20.681	133.409	60.097	-21.749	-15.016	99.750	221.059	-18.320	-13.206	-10.699	-6.009	113.055	-9.912	-8191	255	
920.509	1	1	0	0	0.14166	0.11217	0.20836	0.28025	0.063463	0.17844	0.20609	0.39425	0.17708	0.16308	0.12295	0.22471	0.24204	0.18603	0.16612	0.16276	0.26042	0.38333	-0.17083	0.25208	0.38958	-0.35417	0.53333	0.10625	-0.08125	0.52708	-0.35833	0.35417	0.26458	-0.33542	0.28333	-0.1	191.554	-5.265	71.272	166.513	169.500	123.959	236.439	303.023	59.543	34.292	247.788	180.510	108.209	41.841	-23.616	-9.964	9.1688e-05	0.00036984	0.00027865	399.48	5.0377e-06	6.7963e-07	395.66	158.06	4.3362e-06	2.7017e-06	179.5	65.82	58.858	26.807	3.9245e-06	28.94	0.0031696	0.0055298	0.001498	429.14	5.7495e-05	6.1623e-05	404.74	162.32	5.5617e-05	6.0506e-05	186.69	69.017	63.55	28.013	5.6784e-05	30.132	145.670	131.891	18.519	-21.105	72.720	37.779	-21.950	-14.804	275.360	26.216	-18.232	-13.206	-10.447	-5.528	80.345	-9.340	-8191	255	
920.605	1	1	0	0	0.14026	0.074444	0.14765	0.13615	0.17204	0.063572	0.061957	0.10363	0.31706	0.11069	0.10216	0.32013	0.17459	0.093058	0.12614	0.25393	0.28958	0.54375	-0.27917	0.10625	0.17292	-0.42917	0.3125	-0.16667	-0.0625	0.45625	-0.22917	0.0125	0.27708	-0.50625	0.4	-0.064583	46.419	321.414	176.396	58.877	266.696	59.201	-13.254	175.030	-17.107	46.891	114.173	215.695	60.168	76.779	180.271	293.813	0.00012863	0.00053221	9.0033e-05	399.73	2.0547e-06	4.9568e-06	393.83	157.96	4.2862e-06	5.0421e-06	178.42	65.729	59.758	27.181	4.4064e-06	29.224	0.0032483	0.0055244	0.001489	431.24	5.8862e-05	6.1739e-05	406.31	163.38	5.5958e-05	6.0579e-05	186.97	69.363	64.025	28.31	5.8071e-05	30.653	148.605	162.057	162.895	-20.680	126.040	104.238	-22.047	-15.010	173.112	107.472	-17.653	-13.388	-9.672	-5.782	197.215	-9.732	-8191	255	
920.724	1	1	0	0	0.20047	0.18521	0.095823	0.16685	0.20419	0.17329	0.12291	0.4719	0.23288	0.084753	0.21276	0.29868	0.19712	0.03717	0.16411	0.087258	0.091667	0.51042	-0.19792	0.12083	0.5625	-0.46458	0.20625	0.14792	-0.28542	0.4125	-0.13125	-0.29792	0.49375	-0.2875	0.21042	0.33958	171.360	291.887	237.881	262.960	275.671	219.098	-14.640	313.885	176.423	52.349	226.683	253.633	199.895	128.898	281.053	48.810	7.0296e-05	0.00073458	8.976e-05	397.99	5.0007e-06	4.3076e-06	393.35	159.61	6.4318e-07	5.1833e-06	180	66.324	59.519	27.537	3.4538e-06	29.48	0.0032219	0.0055218	0.0015359	430.65	5.9591e-05	6.2126e-05	408.13	164.1	5.6613e-05	6.1528e-05	188.26	70.024	64.261	28.495	5.9025e-05	30.905	105.138	56.216	160.523	-20.060	64.579	167.646	-21.349	-14.844	249.745	128.488	-17.981	-13.030	-10.506	-5.372	112.588	-10.062	-8191	255	
920.798	1	1	0	0	0.063436	0.085041	0.11669	0.070721	0.14283	0.04868	0.23854	0.14244	0.19344	0.20255	0.2173	0.11344	0.27771	0.19734	0.11071	0.10205	-0.1125	0.35	-0.11667	-0.12292	0.54375	-0.32708	0.0020833	0.25208	-0.45	0.37292	-0.28542	-0.21667	0.30208	-0.34375	0.014583	0.51875	28.214	137.837	44.464	14.327	171.757	132.315	146.165	20.966	236.748	220.913	13.349	66.084	-19.881	327.261	206.343	247.685	9.9781e-05	0.00023771	2.6802e-05	398.49	3.6868e-06	3.0327e-06	392.55	159.06	3.8717e-06	1.7878e-06	179.72	65.839	59.139	27.084	1.9044e-06	28.682	0.0032346	0.0054708	0.0015651	432.82	5.8309e-05	6.1592e-05	407.19	163.79	5.5345e-05	6.0822e-05	187.27	69.449	63.682	28.23	5.98e-05	30.167	153.983	79.674	144.901	-20.322	316.077	113.131	-22.039	-14.447	59.887	36.249	-17.698	-12.918	-10.026	-5.462	255.831	-9.890	-8191	255	
920.894	1	1	0	0	0.061216	0.05636	0.23353	0.14519	0.10297	0.17615	0.097968	0.11385	0.086645	0.26485	0.22682	0.07941	0.042775	0.21352	0.038155	0.26209	0.14583	0.44375	0.18958	-0.37917	0.27292	-0.32292	-0.091667	0.35417	-0.40417	0.31667	-0.010417	-0.66458	0.48333	-0.13125	-0.05625	0.21875	41.370	46.873	295.400	211.738	87.473	166.132	7.835	315.328	99.826	240.647	-29.968	-13.253	106.065	27.220	305.531	-21.121	0.00012663	0.00066093	3.8673e-05	396.33	7.7847e-06	1.1363e-05	392.66	156.81	1.7546e-06	5.0814e-06	177.24	65.085	59.07	26.858	2.555e-06	28.389	0.0031396	0.0054684	0.0015535	431.65	5.6582e-05	6.12e-05	405.9	161.96	5.4589e-05	6.0928e-05	185.48	68.586	63.174	27.958	5.8991e-05	29.799	153.676	46.228	314.818	-20.226	38.977	85.039	-21.393	-14.206	210.924	109.815	-17.765	-12.885	-10.248	-5.432	170.462	-9.606	-8191	255	
920.990	1	1	0	0	0.18969	0.30387	0.22666	0.22744	0.056045	0.21016	0.21043	0.053402	0.15684	0.22175	0.16245	0.19404	0.044718	0.04486	0.24025	0.11558	-0.039583	0.16667	0.1875	-0.40417	0.45208	-0.13333	-0.25208	0.44375	-0.1625	0.25	0.30625	-0.3625	0.38125	-0.066667	-0.19167	0.4375	39.198	194.258	295.118	298.376	9.576	255.379	-5.293	-17.860	317.861	-32.390	-25.708	-12.157	5.562	275.474	82.025	146.475	6.6307e-05	0.00072721	5.3304e-05	398.49	7.3344e-06	6.8172e-06	393.13	157.1	5.1063e-06	4.5528e-06	175.07	65.15	58.834	26.941	5.5519e-06	28.495	0.003065	0.0054424	0.0015185	427.39	5.5429e-05	6.0624e-05	405.52	161.67	5.1855e-05	5.8315e-05	184.08	68.406	62.975	27.871	5.6536e-05	29.835	161.050	48.408	21.864	-20.955	120.888	76.583	-21.962	-14.842	82.785	125.380	-17.983	-13.734	-11.184	-5.906	21.826	-9.983	-8191	255	
921.109	1	1	0	0	0.20582	0.17579	0.28302	0.15916	0.19797	0.10093	0.25686	0.19764	0.18258	0.37431	0.11182	0.27543	0.10304	0.30049	0.071716	0.15563	0.10833	0.26667	0.30208	-0.41042	0.34583	-0.03125	-0.24583	0.30417	-0.3	-0.047917	0.38333	-0.45833	0.2625	0.075	-0.33542	0.50833	-18.975	209.937	243.405	289.311	30.582	306.646	294.962	193.109	-10.207	303.676	327.028	288.097	-26.067	325.225	251.137	165.654	0.00014057	0.0012318	0.00029624	399.9	2.3529e-06	4.5021e-06	391.88	156.15	5.4898e-07	5.0567e-06	177.68	64.952	58.765	26.585	3.113e-06	28.393	0.0029461	0.0052264	0.001483	425.77	5.3905e-05	5.8948e-05	404.01	160.72	5.1482e-05	5.8718e-05	184.85	68.197	62.75	27.698	5.4641e-05	29.774	147.875	87.817	10.835	-20.930	324.759	87.802	-21.753	-14.741	324.904	-26.699	-18.078	-13.550	-10.519	-5.650	133.636	-9.411	-8191	255	
921.205	1	1	0	0	0.20286	0.19891	0.088222	0.084326	0.19175	0.30718	0.056841	0.036646	0.11079	0.051429	0.12781	0.21279	0.12783	0.043852	0.084295	0.1593	0.125	-0.04375	0.4125	-0.35	0.29792	0.089583	-0.56042	0.31667	-0.32917	0.0375	0.65625	-0.18958	0.27292	0.225	-0.58125	0.2125	110.095	26.637	45.166	313.269	298.487	40.756	160.959	61.308	-7.031	78.742	248.420	261.135	278.335	323.571	179.155	156.368	9.2602e-05	0.00062315	9.013e-05	396.43	4.1728e-06	3.0135e-06	389.21	155.6	1.0429e-06	2.0943e-06	175.52	64.299	58.668	26.548	3.1742e-06	28.29	0.0029361	0.0051355	0.0014191	423.26	5.1746e-05	5.6375e-05	401.55	159.68	4.8811e-05	5.5488e-05	183.19	67.545	62.313	27.537	5.1157e-05	29.434	134.361	27.347	296.381	-20.419	271.013	287.800	-21.614	-15.032	75.100	60.529	-17.761	-12.895	-10.339	-5.863	38.465	-9.504	-8191	255	
921.301	1	1	0	0	0.22804	0.38303	0.1859	0.14686	0.20018	0.16485	0.13034	0.1466	0.22102	0.18807	0.084025	0.15901	0.14622	0.24371	0.075174	0.2334	0.24583	-0.30208	0.475	-0.40625	0.14375	0.23333	-0.44792	0.525	0.097917	-0.17292	0.33333	-0.23333	0.072917	0.35625	-0.52917	0.077083	246.763	165.343	70.404	-1.341	-23.958	209.147	180.028	59.519	206.853	75.364	108.473	-6.274	63.614	249.928	127.607	289.258	8.7909e-05	0.00044406	0.00011404	392.26	2.9543e-06	7.6513e-06	390.65	155.86	1.9211e-06	1.6251e-06	177.8	64.73	58.553	26.609	2.419e-06	28.507	0.0028015	0.0048725	0.0013428	419.79	5.0928e-05	5.4485e-05	400.56	159.71	4.7957e-05	5.2624e-05	183.49	67.771	62.412	27.545	4.876e-05	29.572	170.215	13.941	53.194	-20.354	29.852	46.597	-21.955	-14.937	249.565	15.922	-17.930	-13.114	-10.700	-5.899	155.293	-9.730	-8191	255	
921.397	1	1	0	0	0.3061	0.10807	0.013555	0.010746	0.077956	0.04809	0.20095	0.067494	0.17507	0.1953	0.24789	0.048988	0.16597	0.065587	0.39832	0.1362	0.45833	-0.225	0.47083	-0.35625	-0.041667	0.41667	-0.42083	0.26042	0.016667	-0.25	0.28542	-0.23958	0.0625	0.30833	-0.45	0.43542	135.233	108.805	38.146	-26.195	289.499	300.752	19.130	239.642	242.429	-13.573	107.813	8.255	295.090	37.245	203.619	50.677	0.00011511	0.0010125	0.00017605	391.57	3.1393e-06	3.2081e-06	393.85	155.82	3.2342e-06	5.1838e-06	178.02	65.618	59.191	26.954	5.9894e-06	28.987	0.0027768	0.0047109	0.001306	419.73	5.0459e-05	5.3281e-05	401.93	159.75	4.8715e-05	5.3465e-05	184.84	68.574	62.739	27.795	5.0691e-05	30.126	157.622	67.593	91.304	-20.537	128.713	168.736	-21.625	-14.817	152.239	223.465	-17.929	-13.711	-10.287	-5.576	155.364	-9.441	-8191	255	
921.493	1	1	0	0	0.068389	0.20831	0.23721	0.16089	0.14643	0.21906	0.051618	0.26684	0.085126	0.37341	0.2517	0.14374	0.15704	0.20552	0.22933	0.17554	0.53125	-0.28333	0.49792	-0.17292	-0.01875	0.625	-0.39792	0.11667	0.31875	-0.42708	0.42708	0.1	-0.27917	0.45417	-0.28333	0.10833	184.436	28.538	101.919	251.514	22.958	128.417	51.350	-13.893	115.436	129.180	-20.064	252.197	55.266	122.142	136.596	326.569	0.00013596	0.0005978	0.00013067	397.26	5.1582e-06	3.3292e-06	392.81	156.43	1.9302e-06	4.8451e-06	180	65.897	59.01	26.823	3.6061e-06	28.963	0.0029089	0.0048476	0.0013474	423.83	5.3077e-05	5.5453e-05	404.34	160.65	5.0094e-05	5.4191e-05	185.86	68.828	62.751	27.847	5.0451e-05	30.179	149.608	85.826	82.871	-20.416	182.873	88.220	-21.924	-15.200	198.969	53.428	-18.235	-13.081	-10.614	-5.537	50.322	-9.659	-8191	255	
921.590	1	1	0	0	0.06304	0.040664	0.19151	0.11675	0.12453	0.083482	0.18547	0.42217	0.026489	0.21737	0.097038	0.19699	0.17259	0.13986	0.24439	0.14841	0.6625	-0.46875	0.55208	0.06875	-0.29167	0.38125	-0.36458	0.12708	0.3375	-0.34792	0.43958	0.2125	-0.29167	0.47708	-0.17083	-0.15833	265.037	-27.345	316.941	320.063	206.762	190.049	194.924	173.434	162.481	271.630	171.260	41.452	31.669	169.840	120.671	67.314	4.0473e-05	0.00033484	0.00024185	397.52	4.2592e-06	1.0584e-05	398.74	156.39	3.4412e-06	3.8097e-06	177.77	66.035	58.778	26.83	2.6251e-06	28.452	0.0028652	0.0048267	0.0013552	424.73	5.128e-05	5.5118e-05	407.72	160.77	5.0019e-05	5.4137e-05	185.48	69.024	62.72	27.665	5.328e-05	29.69	199.500	47.948	-16.509	-20.237	86.026	236.837	-21.657	-14.769	188.086	93.600	-18.164	-13.451	-10.190	-6.102	214.347	-9.492	-8191	255	
921.710	1	1	0	0	0.14853	0.16771	0.18439	0.18136	0.21606	0.23988	0.16973	0.10892	0.16086	0.14689	0.16175	0.31228	0.3315	0.13543	0.28495	0.065822	0.76667	-0.33333	0.45833	0.1125	-0.23333	0.42917	-0.2875	-0.16875	0.46458	-0.24375	0.43958	0.23333	-0.31667	0.32708	-0.33125	-0.0041667	305.777	190.176	225.789	-21.293	169.943	40.783	68.724	139.961	177.216	146.559	190.478	206.660	307.832	273.759	48.388	157.207	8.0992e-05	0.0011785	0.00015545	393.95	2.7302e-06	1.3381e-05	400.3	156.31	4.5502e-06	4.8446e-07	176.88	65.127	58.74	26.423	5.0723e-06	28.184	0.0029394	0.0049672	0.0014361	424.74	5.2473e-05	5.6187e-05	409.04	160.29	5.0713e-05	5.5639e-05	185	68.54	62.633	27.417	5.4408e-05	29.405	179.688	88.554	40.904	-20.482	101.369	180.500	-21.520	-14.628	14.905	129.250	-17.974	-13.320	-9.890	-5.663	123.608	-9.498	-8191	255	
921.805	1	1	0	0	0.20047	0.013413	0.11012	0.10462	0.3609	0.058352	0.22858	0.20346	0.15905	0.11345	0.22195	0.10122	0.097997	0.026399	0.092295	0.12243	0.67917	-0.16875	0.37292	0.28542	-0.37708	0.34167	0	-0.28542	0.43958	-0.19792	0.1	0.3875	-0.39375	0.17917	0.12292	-0.20417	205.920	26.335	124.436	228.065	298.479	176.774	160.709	154.025	101.724	47.863	222.284	250.872	225.452	150.984	129.852	9.613	8.901e-05	0.00071983	6.294e-05	396.17	1.9009e-06	4.485e-06	399.97	156.82	1.812e-06	2.8741e-06	179.25	65.139	58.644	26.616	2.8081e-06	28.311	0.0029421	0.0050656	0.001448	425.57	5.2568e-05	5.6692e-05	411.04	160.25	5.0513e-05	5.5611e-05	185.76	68.279	62.586	27.504	5.4211e-05	29.631	151.272	6.776	56.843	-20.442	135.179	194.526	-21.590	-14.582	197.055	263.068	-17.934	-13.029	-10.111	-5.648	279.268	-9.182	-8191	255	
921.901	1	1	0	0	0.047499	0.23084	0.24527	0.2988	0.23435	0.22657	0.10953	0.22593	0.092131	0.42067	0.061304	0.1734	0.07582	0.21886	0.24252	0.06914	0.55208	-0.13958	0.34375	0.33333	-0.13542	0.23125	-0.060417	-0.29167	0.53958	-0.32292	-0.0125	0.35	-0.36458	0.19792	0.19375	-0.36458	35.270	304.094	-14.993	225.860	-18.828	58.019	166.692	230.594	81.684	322.648	113.683	260.803	37.213	22.048	114.095	99.458	0.00010728	0.00022444	3.6645e-05	396.79	2.9995e-06	5.3202e-06	399.38	156.95	6.9172e-06	4.1015e-06	178.27	65.85	59.009	26.604	1.0347e-05	28.522	0.0028917	0.0049698	0.0014226	424.94	5.073e-05	5.6136e-05	410.28	160.83	4.7955e-05	5.5085e-05	185.91	68.662	62.547	27.6	5.311e-05	29.811	123.101	103.952	189.186	-21.164	64.204	8.369	-21.305	-14.514	98.307	92.660	-17.788	-12.995	-10.145	-5.718	130.169	-9.719	-8191	255	
921.999	1	1	0	0	0.32997	0.23168	0.31008	0.27448	0.1546	0.051894	0.14316	0.2052	0.066958	0.16792	0.22109	0.045514	0.085956	0.17742	0.12237	0.21858	0.77708	-0.15	-0.029167	0.50833	-0.33958	0.14792	0.21458	-0.59792	0.44375	-0.21875	-0.17292	0.40417	-0.49375	0.26042	0.085417	-0.39375	137.865	282.707	195.906	-12.158	102.448	216.704	40.228	247.709	304.586	218.181	287.533	287.228	271.694	267.995	76.901	222.243	7.4953e-05	0.00016562	7.1525e-05	397.29	6.4814e-07	2.5086e-06	398.66	157.98	5.5255e-06	4.9771e-06	177.7	65.54	58.867	26.384	1.1614e-05	28.269	0.0028617	0.0050464	0.0013997	425.07	5.1159e-05	5.6551e-05	410.7	160.61	4.8782e-05	5.5716e-05	185.27	68.266	62.47	27.361	5.2737e-05	29.341	192.738	76.607	120.345	-20.755	124.456	320.012	-21.212	-14.630	177.040	85.372	-17.895	-12.675	-9.633	-5.706	124.426	-9.462	-8191	255	
922.093	1	1	0	0	0.33386	0.10628	0.15903	0.086038	0.0033743	0.040926	0.18238	0.16551	0.12	0.17015	0.10792	0.069304	0.045037	0.22443	0.17322	0.15735	0.96875	0.060417	-0.21875	0.42708	-0.275	0.10417	0.24583	-0.42708	0.42708	0.077083	-0.39167	0.24583	-0.29583	0.0083333	0.45417	-0.39792	205.050	210.426	31.764	308.911	65.876	318.945	93.190	303.159	231.747	30.482	20.556	305.216	215.715	179.651	231.921	247.438	0.00015551	0.00035404	0.00015167	394.71	2.248e-06	8.2931e-06	400.12	155.83	3.3087e-06	9.3322e-06	177.73	64.901	58.207	26.066	4.165e-06	27.896	0.0028214	0.0050255	0.0013613	420.41	5.1501e-05	5.5872e-05	408.22	159.04	4.874e-05	5.6252e-05	183.85	67.581	61.849	27.022	5.1262e-05	28.896	184.711	29.155	34.809	-20.626	254.727	178.782	-21.608	-14.773	95.333	55.507	-17.875	-13.053	-10.014	-5.983	239.133	-9.693	-8191	255	
922.189	1	1	0	0	0.11787	0.33503	0.15576	0.1267	0.19188	0.11745	0.22004	0.12852	0.2	0.030493	0.14586	0.16485	0.17859	0.24205	0.075472	0.030327	0.66458	0.25625	-0.37083	0.42708	-0.33958	0.064583	0.46875	-0.38125	0.46875	0.20625	-0.40417	0.59583	-0.22083	-0.014583	0.57083	-0.25625	220.694	-14.435	100.745	249.042	-12.000	92.393	227.176	287.865	181.039	154.722	-26.343	289.355	259.043	275.437	124.490	43.912	8.7306e-05	0.00047707	6.1341e-05	393.97	5.3805e-06	6.107e-06	397.01	154.4	4.1926e-06	2.7534e-06	176.67	65.086	57.618	26.108	3.7932e-06	27.807	0.0028494	0.0049721	0.0013547	419.35	5.1891e-05	5.5448e-05	407.12	158.4	4.9672e-05	5.5442e-05	184.03	67.658	61.797	27.059	5.2118e-05	28.997	127.785	34.151	92.234	-20.586	108.679	127.081	-21.526	-14.245	175.072	174.152	-17.915	-13.708	-10.748	-6.373	309.764	-10.031	-8191	255	
922.285	1	1	0	0	0.13502	0.13231	0.2468	0.28183	0.22212	0.05551	0.092616	0.18538	0.15903	0.16971	0.16811	0.1261	0.2365	0.11736	0.30033	0.051202	0.56667	0.33333	-0.4625	0.27917	-0.14792	-0.13542	0.41875	-0.49375	0.18542	0.21875	-0.60208	0.4125	-0.23125	-0.17708	0.28333	-0.45625	280.510	217.479	106.139	44.021	112.147	139.987	240.635	202.827	149.155	139.704	-9.276	316.783	21.704	223.703	171.834	310.524	8.7394e-05	0.00023367	3.7488e-05	393.7	4.85e-06	1.3869e-06	395.55	155.38	2.5336e-06	6.9194e-06	177.8	64.51	57.478	26.048	6.8138e-06	27.763	0.002944	0.0050739	0.0013678	422.29	5.2279e-05	5.5585e-05	406.6	159.22	5.0194e-05	5.5178e-05	183.41	67.647	61.872	27.006	5.1316e-05	28.995	131.765	15.306	184.677	-21.192	100.806	304.358	-21.892	-14.757	104.021	218.845	-18.197	-13.678	-10.473	-5.793	109.565	-9.643	-8191	255	
922.381	1	1	0	0	0.13082	0.29145	0.078488	0.081874	0.22558	0.06676	0.082207	0.097821	0.19165	0.14094	0.14824	0.3289	0.077713	0.25365	0.22801	0.066464	0.58958	0.36667	-0.33542	0.41667	0.047917	-0.077083	0.43125	-0.31458	0.28125	0.46875	-0.21667	0.52083	0.083333	-0.28333	0.61458	-0.11042	147.151	210.159	211.441	76.125	28.619	16.281	155.139	-29.457	287.516	125.713	222.348	247.793	47.175	253.972	241.155	165.368	6.0232e-05	0.0003271	0.00016765	396.54	3.623e-06	1.0256e-06	394.65	154.73	4.3621e-06	4.5005e-06	176.88	64.018	57.359	25.634	4.942e-06	27.128	0.0029311	0.0049988	0.0013724	422.56	5.3051e-05	5.6643e-05	406.94	158.56	5.1195e-05	5.512e-05	182.97	67.3	61.494	26.589	5.2843e-05	28.456	185.980	-6.712	77.696	-20.970	130.061	135.470	-21.958	-14.863	46.224	215.013	-18.727	-13.858	-10.859	-6.280	81.666	-11.130	-8191	255	
922.502	1	1	0	0	0.10462	0.2025	0.21103	0.076428	0.1362	0.32581	0.16467	0.10918	0.093398	0.039603	0.1764	0.39244	0.033973	0.21557	0.21185	0.26438	0.4875	0.52292	-0.32292	0.32083	0.31875	-0.275	0.60625	-0.17917	-0.33542	0.52083	-0.3125	0.1625	0.23542	-0.4	0.57708	-0.05625	203.220	222.437	192.963	74.933	317.252	52.413	267.395	29.308	162.609	3.713	281.104	42.926	147.869	-29.845	151.910	323.463	5.8208e-05	2.5544e-05	0.00012937	387.14	5.1549e-06	2.0524e-06	395.7	152.91	4.167e-06	7.2389e-06	173.05	62.161	56.377	25.1	4.7411e-06	26.501	0.0029927	0.005069	0.0014062	420.34	5.4369e-05	5.6866e-05	404.98	156.6	5.0632e-05	5.5444e-05	179.42	65.595	60.356	26.014	5.2482e-05	27.665	183.677	197.279	80.364	-20.688	32.639	57.789	-21.943	-15.116	91.387	-9.768	-18.500	-14.032	-10.576	-6.203	216.319	-10.203	-8191	255	
922.598	1	1	0	0	0.15245	0.22715	0.015314	0.4761	0.34876	0.16577	0.18204	0.36511	0.1378	0.23122	0.22781	0.22865	0.11338	0.054462	0.15712	0.1266	0.29375	0.54583	-0.26458	0.38542	0.47708	-0.50417	0.44792	0.085417	-0.17083	0.39375	-0.30417	0.15833	0.37708	-0.57917	0.54375	-0.20625	168.169	283.581	87.634	211.221	175.730	12.251	-20.638	-24.171	88.585	12.027	8.388	-9.206	305.270	-10.175	213.624	228.746	0.00012859	0.00039327	0.00017764	389.93	2.0484e-06	1.1378e-05	392.36	150.57	2.7688e-06	7.7576e-06	171.17	61.7	55.705	24.615	1.3295e-06	25.791	0.0028834	0.0048359	0.0013759	418.31	5.1867e-05	5.4624e-05	403.61	154.49	4.8293e-05	5.3637e-05	177.86	64.531	59.604	25.535	5.1884e-05	26.883	106.716	104.939	93.902	-20.800	41.180	182.556	-22.317	-15.253	168.026	81.750	-18.428	-13.710	-10.980	-6.349	186.425	-10.529	-8191	255	
922.670	1	1	0	0	0.31878	0.12178	0.14638	0.10483	0.20219	0.18344	0.14302	0.20649	0.25641	0.16649	0.15751	0.16684	0.37341	0.3518	0.10415	0.29611	0.10417	0.41875	-0.058333	0.13125	0.43333	-0.2625	0.325	0.23958	-0.16875	0.50208	-0.27292	0.17083	0.39375	-0.45417	0.44583	0.20625	32.505	200.856	29.438	289.298	48.935	87.566	220.662	292.469	82.442	57.929	171.406	276.591	295.763	293.925	-18.536	132.200	0.00016468	0.00017265	0.00025659	387.99	2.7656e-06	1.9606e-06	396.23	151.11	5.1582e-06	1.0332e-06	168.91	60.141	54.824	24.411	5.2789e-06	24.999	0.0027773	0.0047412	0.0013799	417.87	5.0071e-05	5.3776e-05	406.59	154.19	4.7513e-05	5.3337e-05	175.51	63.17	58.648	25.203	5.1559e-05	26.293	126.252	-22.246	79.835	-21.047	73.024	112.243	-21.953	-15.326	17.837	56.113	-18.352	-13.580	-11.301	-6.865	241.991	-10.750	-8191	255	
922.791	1	1	0	0	0.14189	0.13818	0.17243	0.37639	0.22383	0.13322	0.41449	0.035004	0.24121	0.13658	0.20288	0.13572	0.084298	0.13709	0.12177	0.35755	0.079167	0.46042	-0.041667	0.060417	0.4625	-0.43958	0.1125	0.40208	-0.36667	0.39792	-0.15208	-0.052083	0.49167	-0.2625	0.2375	0.30833	-26.844	128.695	257.103	275.374	101.276	159.129	266.045	41.570	273.587	-10.224	21.245	256.571	264.319	29.455	6.423	154.664	7.8739e-05	0.00061884	7.9555e-05	402.19	5.3817e-06	3.9719e-06	457.19	154.74	2.8703e-06	5.04e-06	187.59	62.729	58.155	24.51	8.4752e-06	25.424	0.0026735	0.0046252	0.0013192	426.23	4.6547e-05	5.0271e-05	465.01	157.66	4.1762e-05	4.7274e-05	192.73	64.878	60.789	25.293	4.2653e-05	26.28	171.063	149.761	-26.207	-20.755	215.922	128.462	-22.237	-15.066	76.787	91.549	-18.684	-14.308	-10.960	-6.603	171.096	-10.834	-8191	255	
922.887	1	1	0	0	0.13591	0.25621	0.13516	0.16804	0.099813	0.29904	0.12039	0.099473	0.27259	0.07566	0.090811	0.13786	0.15032	0.14508	0.087317	0.12468	0.035417	0.53542	0.11042	0.029167	0.44583	-0.070833	0.10417	0.41042	-0.18125	0.27917	0.09375	-0.18125	0.37292	-0.19167	0.24375	0.36875	209.508	-9.363	63.690	276.380	254.906	6.307	325.334	14.691	246.670	86.291	-19.356	294.470	262.990	313.176	269.502	107.581	8.9914e-05	0.00043837	0.00015736	470.42	1.8592e-06	6.7522e-06	502.66	177.95	2.4554e-06	2.4351e-06	196.98	64.017	61.655	25.066	5.8534e-06	25.771	0.0022239	0.0037705	0.0010435	489.32	3.7196e-05	3.9643e-05	502.64	179.11	3.2493e-05	3.6711e-05	199.39	65.582	63.86	25.522	2.965e-05	26.217	132.106	88.546	319.972	-20.927	174.506	163.493	-22.176	-15.292	21.697	176.308	-18.452	-14.380	-11.666	-6.796	216.387	-11.004	-8191	255	
922.981	1	1	0	0	0.12892	0.3899	0.18044	0.37368	0.068979	0.29907	0.11557	0.096358	0.11321	0.17804	0.35748	0.15456	0.13692	0.15685	0.11615	0.17924	-0.0875	0.3375	0.325	-0.15	0.51667	-0.12708	-0.066667	0.36667	-0.25833	0.19792	0.11458	-0.325	0.28333	-0.21875	-0.010417	0.48542	113.895	129.130	-28.468	245.314	233.932	237.443	299.760	198.649	149.058	112.120	281.582	313.204	118.193	15.899	161.393	62.290	5.2652e-05	0.00060442	0.00015968	471.47	8.7308e-07	3.6093e-06	491.44	179.12	2.2675e-06	3.4851e-06	194.39	65.105	61.75	25.828	5.5367e-06	26.729	0.0015335	0.0025578	0.00068544	477.16	2.4601e-05	2.6578e-05	486.2	177.48	2.1938e-05	2.495e-05	194.52	65.479	63.078	26.022	2.4586e-05	26.995	149.473	135.063	4.362	-20.931	58.418	21.935	-21.941	-15.296	104.941	324.783	-18.297	-13.743	-11.324	-6.774	172.136	-10.817	-8191	255	
923.079	1	1	0	0	0.1077	0.18675	0.086555	0.22031	0.22823	0.20958	0.077652	0.083676	0.060313	0.065563	0.45283	0.10074	0.19499	0.069331	0.16498	0.15549	0.097917	0.14792	0.42083	-0.46667	0.38958	0.04375	-0.23125	0.44167	-0.33542	0.23958	0.2875	-0.28125	0.39375	0.05625	-0.1	0.4375	-9.339	204.243	271.231	287.499	189.915	43.672	160.808	224.929	214.706	282.848	-9.830	203.163	285.360	239.157	261.431	-23.223	9.4228e-05	0.00038478	9.4397e-05	441.23	6.3051e-07	8.0055e-06	449.88	167	9.4765e-07	7.5455e-06	184.37	65.25	60.903	26.119	8.9987e-07	27.224	0.0014325	0.0024381	0.00068858	445.67	2.6124e-05	2.8577e-05	449.89	167.63	2.6007e-05	2.9171e-05	185.46	66.159	62.645	26.356	2.8242e-05	27.522	164.837	47.138	138.722	-20.273	151.204	99.009	-21.852	-14.821	314.179	118.677	-17.574	-13.429	-10.273	-5.839	144.252	-9.432	-8191	255	
923.198	1	1	0	0	0.12683	0.067821	0.23009	0.23263	0.1473	0.088928	0.32165	0.15473	0.25103	0.048479	0.09057	0.30363	0.28576	0.19886	0.53584	0.13574	0.21042	0.15208	0.48125	-0.61042	0.54792	0.00625	-0.23958	0.475	-0.2875	0.058333	0.42917	-0.3375	0.18333	-0.01875	-0.1875	0.46042	275.457	90.495	116.078	148.591	93.978	28.347	136.125	276.398	150.803	193.622	23.843	302.200	323.051	298.975	124.311	38.353	9.971e-05	0.00033468	5.8042e-05	419.98	9.975e-07	4.9299e-06	432.62	165.37	2.5984e-06	2.1565e-06	182.52	64.985	59.213	25.956	2.444e-06	26.901	0.0016359	0.0027441	0.00075676	432.11	2.9335e-05	3.1788e-05	430.53	166.06	2.9639e-05	3.3027e-05	184.12	66.322	62.177	26.289	3.3107e-05	27.71	148.662	29.975	-10.350	-18.794	303.217	107.749	-19.988	-12.859	67.560	71.228	-16.594	-12.398	-10.012	-5.504	13.615	-9.125	-8191	255	
923.294	1	1	0	0	0.12084	0.21491	0.16367	0.43286	0.13072	0.082243	0.27067	0.043962	0.26769	0.1755	0.21313	0.1516	0.22839	0.091946	0.10692	0.12076	0.41042	0.14792	0.37917	-0.38958	0.35417	0.27917	-0.48958	0.29167	-0.13542	-0.18542	0.3	-0.4125	0.20417	0.25833	-0.32708	0.475	133.541	217.321	64.849	295.691	75.699	26.616	175.860	-2.805	200.639	84.571	109.691	-26.821	161.661	117.371	-31.020	97.734	6.9378e-05	0.00031116	0.00014758	420.78	5.81e-06	3.1191e-06	429.71	165.82	6.1794e-06	5.487e-06	180.13	65.102	61.084	27.082	4.6271e-06	28.705	0.0019656	0.0033939	0.00097154	437.68	3.8434e-05	4.15e-05	432.05	166.53	3.9412e-05	4.2782e-05	184.82	67.229	64.069	27.76	4.3119e-05	29.704	150.207	93.751	41.883	-19.823	169.492	69.716	-21.347	-14.425	181.064	93.900	-17.668	-12.816	-10.163	-5.385	101.096	-9.320	-8191	255	
923.390	1	1	0	0	0.21713	0.077669	0.24718	0.13108	0.060896	0.21142	0.17495	0.17979	0.30671	0.027774	0.14471	0.092409	0.036934	0.13067	0.20943	0.3059	0.28958	-0.033333	0.32083	-0.15625	-0.175	0.43542	-0.50833	0.29792	0.085417	-0.31667	0.45208	-0.3	0.12292	0.38958	-0.4375	0.14792	110.736	247.012	85.756	11.836	15.751	204.693	-16.588	117.225	-16.056	289.203	273.128	293.530	121.635	4.145	12.233	302.766	7.3813e-05	0.00065317	0.00023399	455.65	4.6129e-06	4.533e-06	429.52	174.53	1.0321e-06	4.1777e-06	183.48	65.898	63.52	27.958	2.4989e-06	28.27	0.0025227	0.0044006	0.0012499	477.94	4.8625e-05	5.1382e-05	440.66	178.2	4.6024e-05	4.884e-05	189.15	68.342	66.853	28.649	4.4249e-05	29.162	158.495	85.496	38.831	-20.733	108.144	42.367	-22.158	-14.687	-8.077	190.047	-17.968	-13.357	-10.283	-5.369	127.460	-9.290	-8191	255	
923.486	1	1	0	0	0.063678	0.14283	0.051058	0.12479	0.17808	0.090157	0.19242	0.2285	0.15998	0.26004	0.056949	0.072158	0.25519	0.20158	0.17276	0.12169	0.48958	-0.13958	0.44792	-0.1625	0.0083333	0.30208	-0.31458	0.16875	0.15833	-0.33333	0.43542	0.072917	-0.00625	0.59375	-0.325	0.55208	271.302	7.610	133.494	32.869	170.945	135.442	254.934	295.833	69.658	41.950	326.443	43.840	321.796	48.802	310.525	231.810	0.00010397	2.823e-05	0.00014256	442.55	5.2259e-06	6.1441e-06	425.96	165.63	7.5568e-06	1.8495e-06	178.15	63.665	59.621	26.21	3.4723e-06	27.061	0.0024892	0.0041021	0.0011858	467.3	4.4041e-05	4.6159e-05	432.26	169.14	4.2982e-05	4.7347e-05	183.39	66.432	62.923	26.979	5.0017e-05	28.349	178.499	49.370	6.902	-20.843	33.652	59.008	-21.752	-14.834	156.748	24.499	-17.854	-12.917	-10.371	-5.470	319.428	-9.771	-8191	255	
923.582	1	1	0	0	0.3017	0.19243	0.15732	0.0821	0.14852	0.26277	0.07256	0.36719	0.18414	0.22621	0.3227	0.24338	0.19496	0.13915	0.20325	0.047237	0.63333	-0.36875	0.33125	-0.1125	-0.125	0.52083	-0.36875	0.11875	0.35625	-0.33958	0.38542	-0.10833	-0.08125	0.4625	-0.22292	0.010417	31.667	54.128	75.631	290.519	84.830	8.244	40.220	310.251	272.570	-11.650	-24.856	-21.505	269.310	221.042	118.127	3.144	8.7378e-05	6.1944e-05	0.00011774	420.22	2.5579e-06	5.9728e-06	416.56	159.42	4.3929e-06	7.0113e-06	177.18	63.715	58.924	25.667	2.6913e-06	27.004	0.0027642	0.0047913	0.001387	448.33	5.1818e-05	5.6705e-05	427.65	163.25	4.9803e-05	5.6026e-05	184.35	67.022	62.498	26.607	5.4468e-05	28.081	179.995	261.779	49.216	-20.764	118.680	121.702	-21.893	-14.749	117.280	41.521	-17.955	-13.390	-10.326	-6.071	64.733	-10.305	-8191	255	
923.679	1	1	0	0	0.16227	0.083882	0.25239	0.45069	0.21792	0.23179	0.38273	0.044617	0.21101	0.19957	0.15234	0.026304	0.17946	0.30634	0.13707	0.23961	0.73125	-0.091667	0.51875	0.041667	-0.28125	0.41042	-0.11458	0.083333	0.4625	-0.41667	0.42917	0.10625	-0.010417	0.47083	-0.15417	-0.014583	72.386	137.141	59.660	250.466	10.573	301.480	231.946	31.083	43.078	299.666	66.897	5.082	76.992	-19.566	185.563	310.280	0.00012408	0.00077637	0.00027787	412.81	1.5203e-06	1.264e-05	432.91	157.01	2.5424e-06	9.9438e-06	176.34	62.589	57.82	25.231	5.179e-06	26.369	0.0028797	0.0049567	0.0014244	436.95	5.1529e-05	5.6094e-05	444.9	160.39	4.7719e-05	5.3153e-05	181.88	65.442	61.066	26.038	4.9483e-05	27.346	169.411	92.937	108.424	-20.650	-4.064	94.015	-21.377	-14.767	104.097	114.002	-18.363	-13.623	-10.703	-6.401	114.192	-10.430	-8191	255	
923.799	1	1	0	0	0.17946	0.33633	0.077895	0.12289	0.25058	0.13443	0.18534	0.2775	0.15684	0.1348	0.090321	0.11148	0.26592	0.18913	0.156	0.20975	0.55	-0.12292	0.31875	0.14792	-0.1875	0.66042	-0.125	0.05	0.5	-0.23125	0.025	0.16458	-0.14375	0.55417	-0.041667	-0.13125	38.154	264.195	141.165	299.179	291.134	-2.926	307.506	224.033	52.412	254.415	325.754	268.605	281.999	315.063	217.567	74.552	0.00011437	3.5612e-05	0.00011055	412.44	1.7036e-06	1.1528e-06	431.87	154.71	3.3831e-06	2.7621e-06	173.92	62.088	57.119	24.937	2.1348e-06	26.019	0.0026783	0.0047066	0.0013046	436.94	4.7837e-05	5.2309e-05	437.67	158.46	4.5624e-05	5.0708e-05	179.98	64.639	60.409	25.78	4.7356e-05	27.027	144.994	15.134	112.133	-20.552	-10.513	152.836	-21.385	-14.971	212.150	159.462	-18.570	-13.424	-10.573	-6.207	221.411	-10.030	-8191	255	
923.894	1	1	0	0	0.26286	0.17237	0.21902	0.21995	0.34576	0.17279	0.28806	0.27551	0.23862	0.16712	0.10623	0.046181	0.056297	0.075876	0.19041	0.155	0.85208	-0.27917	0.29792	0.39792	-0.25625	0.55	-0.039583	-0.0625	0.36667	-0.10833	-0.079167	0.47083	-0.20417	0.47708	0.09375	-0.34167	18.583	266.277	199.191	296.685	32.354	43.182	242.817	312.909	256.533	295.275	-31.711	265.833	324.383	105.333	54.180	288.956	8.0735e-05	0.00018677	0.00022442	432.28	5.5585e-06	6.2004e-06	472.05	173.47	1.805e-06	1.4743e-06	197.96	65.326	63.716	25.536	8.3313e-06	26.341	0.0024701	0.0043369	0.001176	454.5	4.2702e-05	4.7135e-05	475.4	175.93	3.8648e-05	4.1642e-05	200.78	67.109	65.514	26.028	3.497e-05	26.938	142.028	64.450	65.313	-20.107	15.470	23.838	-21.617	-14.783	63.844	162.589	-17.882	-13.667	-11.070	-6.621	163.508	-10.545	-8191	255	
923.967	1	1	0	0	0.041664	0.0067442	0.17521	0.18876	0.1529	0.19973	0.044974	0.066168	0.15463	0.22204	0.15204	0.032876	0.1779	0.055442	0.23039	0.059577	0.85417	-0.19792	0.31042	0.32708	-0.3625	0.37917	0.05	-0.30833	0.46667	-0.28125	0.045833	0.55417	-0.1375	0.27292	0.2125	-0.28125	-22.571	-14.651	152.592	161.002	241.776	1.824	145.958	115.898	164.759	284.447	25.726	11.968	285.445	314.920	33.686	125.930	8.4765e-05	0.00056467	0.0001605	501.24	5.2467e-06	9.7705e-06	530.5	183.44	5.9091e-06	4.6316e-06	203.32	68.272	66.697	26.374	4.2992e-06	27.299	0.0018694	0.0032173	0.00085348	512.38	3.1292e-05	3.3517e-05	525.59	183.42	2.9001e-05	3.1779e-05	204.64	69.911	68.302	26.753	2.8286e-05	27.587	141.030	261.331	27.543	-20.058	163.120	60.195	-21.546	-15.026	116.599	111.996	-18.284	-14.106	-11.861	-6.709	101.504	-10.731	-8191	255	
924.061	1	1	0	0	0.27056	0.12688	0.1564	0.1463	0.19481	0.23644	0.46926	0.073927	0.23984	0.053972	0.07502	0.10356	0.14294	0.13126	0.17041	0.13592	1.0271	0.020833	0.12083	0.53542	-0.36042	0.6125	0.28958	-0.12292	0.59375	-0.020833	-0.18125	0.65833	-0.24375	0.50208	0.35833	-0.15208	182.934	279.644	108.826	65.170	-12.349	88.444	225.427	210.776	290.761	249.309	74.415	100.386	312.402	-13.687	97.910	214.316	7.3468e-05	0.00023706	4.8708e-05	529.72	5.6038e-06	4.3197e-06	549.82	183.45	1.2935e-06	1.2329e-06	201.77	69.407	66.729	27.103	4.2995e-07	27.452	0.0016118	0.0026443	0.00071185	538.19	2.5978e-05	2.7646e-05	542.83	182.84	2.3577e-05	2.5476e-05	201.64	69.996	67.998	27.351	2.2856e-05	27.747	134.825	131.659	6.324	-20.326	95.235	98.595	-21.379	-15.024	124.285	160.384	-17.750	-13.749	-11.024	-6.330	257.846	-10.142	-8191	255	
924.182	1	1	0	0	0.32776	0.15385	0.21108	0.31384	0.10474	0.11329	0.073365	0.041535	0.22408	0.24711	0.10924	0.25284	0.24363	0.14107	0.24083	0.1045	0.82292	0.11875	-0.0041667	0.64375	0.020833	0.29375	0.63542	-0.275	0.53542	0.17917	-0.1625	0.65417	-0.0083333	0.14792	0.67083	-0.33542	33.230	278.953	-29.767	310.450	272.817	179.656	317.467	21.284	57.968	306.501	280.946	33.568	52.332	286.215	73.655	302.673	0.00010724	0.00018341	7.9708e-05	528.49	1.9297e-06	6.2124e-06	542.42	182.11	4.5895e-07	6.4655e-06	200.96	68.984	66.234	27.714	2.3341e-06	27.802	0.0012982	0.0021713	0.00058498	530.36	2.2071e-05	2.3544e-05	535.05	181.59	2.1372e-05	2.3167e-05	200.91	69.59	67.584	27.737	2.2532e-05	27.964	175.158	-25.718	36.595	-20.234	108.324	94.202	-21.737	-15.037	154.992	124.853	-17.829	-13.654	-10.777	-6.263	75.556	-10.320	-8191	255	
924.278	1	1	0	0	0.20341	0.20817	0.18577	0.16455	0.094978	0.26063	0.17348	0.12947	0.080866	0.10822	0.13047	0.2901	0.19064	0.062441	0.30854	0.20583	0.91875	0.47292	0.079167	0.57708	-0.029167	0.26667	0.69583	-0.18125	0.43125	0.48125	-0.20625	0.66458	-0.029167	-0.00625	0.69375	-0.20208	269.325	78.014	196.442	185.447	236.659	-4.942	-13.152	292.818	152.158	182.958	55.100	239.458	251.705	65.701	105.541	266.412	0.00011115	0.0002976	0.00010644	524.44	2.5764e-06	3.7061e-06	540.54	183.19	3.3256e-06	8.9301e-07	201.43	68.996	66.784	27.777	4.7653e-07	27.794	0.0012857	0.0021193	0.00059147	529.23	2.2859e-05	2.3941e-05	534.6	182.25	2.2317e-05	2.4231e-05	200.02	69.594	67.835	27.819	2.4243e-05	27.814	172.286	47.294	58.957	-20.369	197.832	79.599	-21.218	-14.813	36.974	158.337	-17.969	-13.589	-10.444	-6.219	245.217	-9.693	-8191	255	
924.374	1	1	0	0	0.14064	0.24802	0.031946	0.29693	0.32023	0.26389	0.32787	0.11168	0.20082	0.18622	0.081765	0.067368	0.18328	0.091023	0.15859	0.19069	0.63542	0.50417	-0.058333	0.74375	0.077083	-0.020833	0.65417	-0.12708	0.3625	0.55208	-0.12708	0.56875	0.12083	-0.20625	0.57708	-0.33333	186.903	-3.889	186.407	103.408	326.799	173.355	189.778	232.287	197.233	80.109	98.697	255.912	122.357	196.228	281.239	152.370	7.5391e-05	0.00035188	0.00013474	540.77	1.2874e-06	2.1408e-06	539.55	181.27	1.4779e-06	5.057e-06	201.31	69.197	65.951	27.58	3.0592e-06	27.63	0.0014237	0.0024094	0.00067912	543.96	2.6041e-05	2.7482e-05	538.41	180.99	2.4896e-05	2.7433e-05	200.07	70.082	67.628	27.879	2.6293e-05	27.931	166.772	140.667	69.773	-20.264	45.657	182.317	-21.765	-14.935	171.154	317.126	-17.291	-13.500	-10.634	-5.847	125.721	-9.581	-8191	255	
924.471	1	1	0	0	0.070519	0.14313	0.069701	0.14769	0.13894	0.15126	0.1703	0.062761	0.17853	0.074999	0.1215	0.054022	0.17294	0.14776	0.16793	0.13351	0.61042	0.525	-0.15	0.49583	0.34375	-0.020833	0.60833	-0.077083	0.25417	0.5625	-0.33333	0.5875	0.275	-0.28333	0.65833	-0.15625	285.406	21.519	13.544	203.710	103.711	89.821	175.641	285.131	316.023	288.646	48.026	97.131	89.311	295.265	-25.705	55.774	0.00010756	0.0003306	0.00011999	538.64	1.6395e-06	7.8206e-06	542.61	180.16	3.2855e-06	5.7963e-06	196.79	68.409	65.651	27.478	4.2806e-06	27.483	0.0014112	0.0022978	0.00066134	542.48	2.3967e-05	2.5384e-05	533.87	179.16	2.3307e-05	2.5753e-05	197.52	69.302	67.112	27.762	2.591e-05	27.729	104.142	43.761	67.194	-19.682	279.282	105.268	-20.046	-13.795	264.979	120.450	-18.098	-13.525	-10.726	-6.549	106.936	-10.947	-8191	255	
924.567	1	1	0	0	0.1357	0.069821	0.18929	0.141	0.13504	0.34033	0.30761	0.13181	0.21322	0.12637	0.20921	0.13246	0.21634	0.2109	0.080489	0.34702	0.57292	0.67708	-0.15833	0.40208	0.61458	-0.13333	0.48333	0.016667	0.0625	0.62083	-0.01875	0.38958	0.52292	-0.34167	0.67917	0.11875	166.107	141.787	265.642	221.502	188.458	83.860	227.140	-20.131	151.027	77.610	0.025	145.962	278.841	238.238	273.623	216.386	9.1532e-05	0.00044013	8.0579e-05	538.12	5.7718e-06	3.5873e-06	534.98	178.28	4.75e-06	1.8688e-06	196.82	67.713	65.307	27.549	4.0641e-06	27.347	0.0014775	0.0025479	0.00072747	542.45	2.6491e-05	2.9575e-05	529.88	178.86	2.543e-05	2.8951e-05	196.79	69.025	67.121	27.845	2.7087e-05	27.555	157.304	68.887	182.458	-20.896	112.206	150.991	-21.952	-15.372	169.891	164.025	-18.024	-13.939	-11.037	-6.653	19.326	-10.357	-8191	255	
924.663	1	1	0	0	0.12854	0.26739	0.21626	0.19617	0.093953	0.16219	0.31551	0.12921	0.32346	0.19218	0.079954	0.05633	0.22324	0.21918	0.073466	0.063633	0.40208	0.68958	0.022917	0.46667	0.5	-0.15	0.63125	-0.01875	-0.24167	0.64375	0.05	0.30208	0.64167	-0.39375	0.60833	0.40417	228.602	110.071	218.116	167.391	263.651	256.517	262.831	307.537	293.862	255.177	59.357	76.385	242.317	261.744	322.013	308.282	0.00012602	0.00025757	0.00018544	536.27	2.5326e-06	2.3107e-06	529.92	179.37	3.316e-06	4.6299e-06	194.58	67.559	65.72	27.811	5.1389e-06	27.502	0.0014497	0.0024554	0.00067785	539.18	2.4298e-05	2.643e-05	524.48	178.99	2.4103e-05	2.7576e-05	195.23	68.366	66.97	27.931	2.7498e-05	27.668	144.191	266.674	100.884	-20.765	54.399	111.891	-21.818	-15.015	46.388	95.168	-18.001	-13.835	-11.554	-6.952	18.311	-10.706	-8191	255	
#DATA ENDS
