BOXY.EXE: ISS Imagent and Oximeter Data Acquisition Program Version 0.80
Ascii Record File

#ACQ INFORMATION
2  Detector Channels 
16  External MUX Channels 
1  Auxiliary Channels 
5000  Waveform (CCF) Frequency (Hz)
1  Waveforms Skipped 
30  Waveforms Averaged 
1  Cycles Averaged 
16  Acquisitions per Waveform 
10.0806  Updata Rate (Hz) 

#FILE INFORMATION
TRUE -- External MUX Channel results are PARSED.
FALSE -- AC DC and Phase are NOT grouped.
TRUE -- Companion Program Settings File CREATED.
FALSE -- AC data not excluded
FALSE -- DC data not excluded
FALSE -- Phase data not excluded
FALSE -- Auxillary Chn. data not excluded
Tab delimiters

#CALIBRATION STATE
TRUE -- Waveform Calibration Values APPLIED.


#AUX CALIBRATION VALUES
Val Type	aux-1	

Term	1.0000e+00	
Factor	0.0000e+00	


#WF CALIBRATION VALUES
A = Detector Channel
Val Type	A-AC1	A-AC2	A-AC3	A-AC4	A-AC5	A-AC6	A-AC7	A-AC8	A-AC9	A-AC10	A-AC11	A-AC12	A-AC13	A-AC14	A-AC15	A-AC16	A-DC1	A-DC2	A-DC3	A-DC4	A-DC5	A-DC6	A-DC7	A-DC8	A-DC9	A-DC10	A-DC11	A-DC12	A-DC13	A-DC14	A-DC15	A-DC16	A-Ph1	A-Ph2	A-Ph3	A-Ph4	A-Ph5	A-Ph6	A-Ph7	A-Ph8	A-Ph9	A-Ph10	A-Ph11	A-Ph12	A-Ph13	A-Ph14	A-Ph15	A-Ph16	

Term	0.00000e+00	0.00000e+00	0.00000e+00	0.00000e+00	0.00000e+00	0.00000e+00	0.00000e+00	0.00000e+00	0.00000e+00	0.00000e+00	0.00000e+00	0.00000e+00	0.00000e+00	0.00000e+00	0.00000e+00	0.00000e+00	0.00000e+00	0.00000e+00	0.00000e+00	0.00000e+00	0.00000e+00	0.00000e+00	0.00000e+00	0.00000e+00	0.00000e+00	0.00000e+00	0.00000e+00	0.00000e+00	0.00000e+00	0.00000e+00	0.00000e+00	0.00000e+00	0.00000e+00	0.00000e+00	0.00000e+00	0.00000e+00	0.00000e+00	0.00000e+00	0.00000e+00	0.00000e+00	0.00000e+00	0.00000e+00	0.00000e+00	0.00000e+00	0.00000e+00	0.00000e+00	0.00000e+00	0.00000e+00	
Factor	1.00000e+00	1.00000e+00	1.00000e+00	1.00000e+00	1.00000e+00	1.00000e+00	1.00000e+00	1.00000e+00	1.00000e+00	1.00000e+00	1.00000e+00	1.00000e+00	1.00000e+00	1.00000e+00	1.00000e+00	1.00000e+00	1.00000e+00	1.00000e+00	1.00000e+00	1.00000e+00	1.00000e+00	1.00000e+00	1.00000e+00	1.00000e+00	1.00000e+00	1.00000e+00	1.00000e+00	1.00000e+00	1.00000e+00	1.00000e+00	1.00000e+00	1.00000e+00	X	X	X	X	X	X	X	X	X	X	X	X	X	X	X	X	

B = Detector Channel
Val Type	B-AC1	B-AC2	B-AC3	B-AC4	B-AC5	B-AC6	B-AC7	B-AC8	B-AC9	B-AC10	B-AC11	B-AC12	B-AC13	B-AC14	B-AC15	B-AC16	B-DC1	B-DC2	B-DC3	B-DC4	B-DC5	B-DC6	B-DC7	B-DC8	B-DC9	B-DC10	B-DC11	B-DC12	B-DC13	B-DC14	B-DC15	B-DC16	B-Ph1	B-Ph2	B-Ph3	B-Ph4	B-Ph5	B-Ph6	B-Ph7	B-Ph8	B-Ph9	B-Ph10	B-Ph11	B-Ph12	B-Ph13	B-Ph14	B-Ph15	B-Ph16	

Term	0.00000e+00	0.00000e+00	0.00000e+00	0.00000e+00	0.00000e+00	0.00000e+00	0.00000e+00	0.00000e+00	0.00000e+00	0.00000e+00	0.00000e+00	0.00000e+00	0.00000e+00	0.00000e+00	0.00000e+00	0.00000e+00	0.00000e+00	0.00000e+00	0.00000e+00	0.00000e+00	0.00000e+00	0.00000e+00	0.00000e+00	0.00000e+00	0.00000e+00	0.00000e+00	0.00000e+00	0.00000e+00	0.00000e+00	0.00000e+00	0.00000e+00	0.00000e+00	-1.12232e+02	-1.31493e+02	-1.26301e+02	-1.82925e+02	-6.61961e+01	-6.93729e+01	-1.56697e+02	-1.62015e+02	-6.64507e+01	-6.47760e+01	-1.69789e+02	-1.71884e+02	-1.87016e+02	-1.77077e+02	-6.21522e+01	-1.49516e+02	
Factor	1.55884e-05	1.50606e-04	4.28834e-05	2.77585e-01	1.30341e-06	1.75495e-06	1.60847e-01	4.74421e-02	1.05426e-06	1.60286e-06	8.23926e-02	2.73325e-02	3.04750e-02	8.53322e-03	1.33339e-06	1.20591e-02	1.05579e-05	1.86671e-05	5.21731e-06	1.46876e-01	1.94660e-07	2.09585e-07	8.03013e-02	2.53644e-02	1.85624e-07	2.07253e-07	4.25778e-02	1.42240e-02	1.63516e-02	4.59333e-03	1.96714e-07	6.29039e-03	X	X	X	X	X	X	X	X	X	X	X	X	X	X	X	X	



#DISTANCE SETTINGS
A = Detector Channel
A-1	A-2	A-3	A-4	A-5	A-6	A-7	A-8	A-9	A-10	A-11	A-12	A-13	A-14	A-15	A-16	

2.5000e+00	3.0000e+00	2.5000e+00	3.0000e+00	2.0000e+00	3.0000e+00	1.5000e+00	3.0000e+00	3.0000e+00	3.0000e+00	3.0000e+00	3.0000e+00	3.0000e+00	3.0000e+00	1.5000e+00	3.0000e+00	

B = Detector Channel
B-1	B-2	B-3	B-4	B-5	B-6	B-7	B-8	B-9	B-10	B-11	B-12	B-13	B-14	B-15	B-16	

1.0000e+01	1.0000e+01	1.0000e+01	1.4400e+00	1.0000e+01	1.0000e+01	1.5100e+00	1.9400e+00	1.0000e+01	1.0000e+01	1.9900e+00	2.4900e+00	2.4100e+00	2.9000e+00	1.0000e+01	2.9800e+00	




#DATA BEGINS
time	group	step	mark	flag	A-AC1	A-AC2	A-AC3	A-AC4	A-AC5	A-AC6	A-AC7	A-AC8	A-AC9	A-AC10	A-AC11	A-AC12	A-AC13	A-AC14	A-AC15	A-AC16	A-DC1	A-DC2	A-DC3	A-DC4	A-DC5	A-DC6	A-DC7	A-DC8	A-DC9	A-DC10	A-DC11	A-DC12	A-DC13	A-DC14	A-DC15	A-DC16	A-Ph1	A-Ph2	A-Ph3	A-Ph4	A-Ph5	A-Ph6	A-Ph7	A-Ph8	A-Ph9	A-Ph10	A-Ph11	A-Ph12	A-Ph13	A-Ph14	A-Ph15	A-Ph16	B-AC1	B-AC2	B-AC3	B-AC4	B-AC5	B-AC6	B-AC7	B-AC8	B-AC9	B-AC10	B-AC11	B-AC12	B-AC13	B-AC14	B-AC15	B-AC16	B-DC1	B-DC2	B-DC3	B-DC4	B-DC5	B-DC6	B-DC7	B-DC8	B-DC9	B-DC10	B-DC11	B-DC12	B-DC13	B-DC14	B-DC15	B-DC16	B-Ph1	B-Ph2	B-Ph3	B-Ph4	B-Ph5	B-Ph6	B-Ph7	B-Ph8	B-Ph9	B-Ph10	B-Ph11	B-Ph12	B-Ph13	B-Ph14	B-Ph15	B-Ph16	aux-1	digaux	

1035.917	1	1	0	256	0.16713	0.13515	0.08403	0.20436	0.064385	0.14526	0.15091	0.19002	0.19675	0.081701	0.092925	0.18364	0.11267	0.26071	0.20395	0.068515	0.19167	-0.025	0.56875	-0.27917	0.29375	0.26042	-0.15	0.35417	-0.1125	-0.26667	0.46667	-0.23125	0.125	0.42292	-0.29583	0.2875	239.769	20.298	283.948	271.267	35.309	122.328	320.989	261.865	158.011	163.510	290.971	259.567	208.665	299.118	294.379	37.467	2.529e-05	0.0010585	0.00024992	595.48	3.2465e-06	5.0824e-06	446	152.76	3.3573e-06	7.269e-06	129.28	36.617	42.257	17.044	1.3774e-06	16.017	0.0052944	0.0091362	0.0024961	642.48	9.0588e-05	9.603e-05	465.59	159.75	7.9962e-05	8.7273e-05	142.7	41.777	48.68	18.801	8.5179e-05	18.451	153.251	41.945	195.154	-20.311	24.046	232.216	-20.923	-13.898	115.511	129.577	-17.051	-10.784	-7.963	-2.660	165.819	-7.151	-8191	255	
1036.014	1	1	0	0	0.26174	0.34359	0.06373	0.1457	0.23471	0.31769	0.36886	0.072245	0.17516	0.07502	0.19924	0.23352	0.040972	0.27005	0.22358	0.20474	0.28333	-0.16042	0.54583	-0.27917	0.14375	0.29167	-0.43958	0.26458	0.14792	-0.475	0.47917	-0.13125	0.0083333	0.34792	-0.24375	0.40417	108.177	128.833	129.927	236.673	110.109	109.421	267.551	37.849	142.898	117.889	264.788	10.411	299.914	296.361	122.701	286.102	9.3345e-05	0.00058387	0.00012008	609.85	3.359e-06	5.2783e-06	460.19	156.21	5.2042e-06	2.7259e-06	132.69	37.487	42.977	17.052	2.4048e-06	16.168	0.0046697	0.0082142	0.0022659	654.05	8.5653e-05	9.2924e-05	481.59	163.94	8.3884e-05	9.3926e-05	147.4	42.988	49.677	18.863	8.5818e-05	18.596	196.815	17.683	-23.875	-19.611	278.792	315.175	-21.071	-13.742	205.048	105.519	-16.648	-11.429	-8.467	-3.098	65.364	-6.483	-8191	255	
1036.110	1	1	0	0	0.027347	0.16681	0.21797	0.34284	0.17269	0.22543	0.018279	0.12804	0.0087754	0.2066	0.15474	0.23987	0.17201	0.10546	0.262	0.17736	0.75	-0.2375	0.52292	0.014583	-0.15	0.58125	-0.46875	0.19792	0.42083	-0.45	0.35	-0.0125	-0.052083	0.44375	-0.32292	0.12292	81.796	16.889	167.865	192.112	248.860	247.654	167.044	-12.306	202.940	198.043	303.878	-9.755	102.674	41.619	28.923	293.145	0.0001771	0.00044063	0.00021885	618.57	1.156e-05	4.5024e-06	467.11	158.65	2.2744e-06	4.0839e-07	132.73	37.045	42.968	17.047	8.62e-06	16.033	0.0047922	0.0082287	0.0022808	665.48	8.6611e-05	9.1779e-05	484.93	166.03	8.2429e-05	9.0729e-05	147.68	42.971	49.724	18.872	8.7991e-05	18.525	148.683	32.026	323.036	-20.055	229.355	62.802	-21.327	-13.745	205.429	182.846	-17.044	-10.194	-8.041	-2.743	149.704	-7.278	-8191	255	
1036.206	1	1	0	0	0.19813	0.1723	0.043369	0.27713	0.030128	0.0074278	0.14949	0.25083	0.09432	0.030115	0.14305	0.14491	0.18085	0.098011	0.22644	0.066397	0.68125	-0.10417	0.30833	-0.079167	-0.20833	0.58125	-0.3625	0.16458	0.50833	-0.33125	0.13542	0.26667	-0.08125	0.52292	-0.30208	0.079167	240.337	213.997	-15.598	183.298	16.094	15.681	227.174	33.397	60.489	233.466	132.997	46.672	34.883	27.712	-30.703	315.061	8.4805e-05	0.00077071	0.00024489	629.95	7.4141e-06	7.1167e-06	470.83	158.8	2.4566e-06	7.2236e-06	133.36	37.352	43.51	16.997	8.0875e-06	15.554	0.0046597	0.0079108	0.0022373	669.1	8.4408e-05	8.9831e-05	489	165.96	8.1882e-05	8.8513e-05	147.7	42.954	49.62	18.726	8.5454e-05	18.169	112.802	91.461	78.965	-20.075	-22.340	132.168	-21.211	-13.847	163.891	85.208	-16.785	-10.768	-8.431	-2.487	29.625	-6.389	-8191	255	
1036.325	1	1	0	0	0.11654	0.038136	0.2784	0.10847	0.1923	0.22311	0.076183	0.16103	0.1102	0.14733	0.16396	0.14264	0.03686	0.29395	0.094803	0.15483	0.775	-0.13125	0.59167	0.26875	-0.34583	0.5625	-0.23333	-0.091667	0.5625	-0.26042	0.21042	0.16042	-0.14375	0.35625	-0.15	0.058333	99.473	52.793	92.042	220.781	115.381	276.310	310.685	307.664	138.893	259.880	279.000	54.233	244.806	17.071	-9.423	322.661	5.5379e-05	0.00044454	2.3756e-05	625.39	5.4278e-06	6.9363e-06	461.87	158.25	1.6967e-06	7.0173e-06	132.72	36.402	43.09	16.777	5.2073e-06	15.758	0.0046211	0.0081561	0.0023027	669.61	8.7061e-05	9.419e-05	484.62	166.42	8.5205e-05	9.4862e-05	147.92	42.458	49.91	18.702	9.2474e-05	18.2	147.981	17.363	63.355	-19.882	96.492	234.961	-20.711	-13.679	114.486	54.557	-17.010	-10.992	-7.189	-2.731	165.084	-6.927	-8191	255	
1036.398	1	1	0	0	0.16433	0.23746	0.22833	0.14722	0.19852	0.079585	0.052116	0.19634	0.24089	0.14145	0.31348	0.27917	0.26101	0.11581	0.40955	0.26762	0.90625	-0.3375	0.1375	0.41667	-0.29583	0.61042	-0.20833	-0.15208	0.54583	-0.29792	0.16458	0.35625	-0.27083	0.38958	0.12708	-0.15417	298.644	158.987	112.953	297.824	147.590	177.256	97.982	124.243	283.843	273.745	292.247	176.141	12.679	121.430	250.315	65.235	3.8611e-05	0.00048645	0.00016096	615.62	3.5557e-06	5.4398e-06	454.28	158.14	1.8969e-06	1.2379e-05	130.96	35.819	42.466	16.727	3.3333e-06	15.459	0.005004	0.0088044	0.0025073	663.36	9.2692e-05	9.918e-05	478.53	166.38	8.8389e-05	9.8883e-05	147.67	42.383	50.112	18.71	9.6208e-05	18.156	228.918	265.161	128.304	-19.938	169.211	315.380	-20.994	-13.397	152.749	96.708	-17.391	-10.824	-8.548	-2.177	-10.796	-6.270	-8191	255	
1036.519	1	1	0	0	0.088794	0.24011	0.14879	0.19447	0.19948	0.0653	0.10837	0.059411	0.11427	0.05861	0.14432	0.29218	0.17079	0.10336	0.2736	0.16613	0.91875	-0.29792	0.14375	0.23958	-0.4875	0.46667	-0.020833	-0.33958	0.60833	-0.18333	0.075	0.55417	-0.25833	0.21667	0.1875	-0.25833	291.874	185.351	8.119	107.679	-26.677	130.831	243.497	153.674	125.257	163.120	62.115	8.689	270.026	234.259	240.738	246.813	7.3312e-05	0.001109	0.00021622	591.24	5.6448e-06	4.9741e-06	441.32	156.64	1.6816e-06	5.2457e-06	129.51	35.901	42.798	16.587	5.7823e-06	15.156	0.0051314	0.0091421	0.0026038	649.55	9.4762e-05	0.00010398	467.48	165.19	9.2199e-05	0.00010286	146.65	42.68	50.115	18.702	0.00010095	18.13	184.339	118.700	54.883	-19.719	157.581	73.658	-20.825	-13.846	218.857	259.515	-17.199	-11.337	-8.404	-2.950	46.996	-6.701	-8191	255	
1036.615	1	1	0	0	0.19959	0.21763	0.041845	0.23171	0.021969	0.069708	0.27409	0.21359	0.15845	0.096587	0.24062	0.1556	0.17284	0.45829	0.091204	0.21294	0.84167	-0.21458	0.15417	0.49792	-0.25208	0.37917	0.29583	-0.33958	0.63958	-0.06875	0.025	0.4625	-0.26458	0.25	0.45625	-0.28542	79.989	226.157	279.231	102.060	276.725	96.040	-29.709	215.245	136.516	231.869	210.089	-1.690	40.769	-16.257	137.050	32.106	0.00010722	0.00068041	0.00015116	586.86	4.1185e-06	1.071e-05	429.93	153.09	3.5458e-06	9.6681e-06	125.87	35.392	41.878	16.311	7.3603e-06	14.785	0.0054408	0.0097054	0.0027487	644.99	0.00010188	0.00011086	459.34	162.78	9.8895e-05	0.00011132	145.12	42.668	50.219	18.583	0.00010807	18.03	64.483	147.965	22.048	-19.704	115.009	82.280	-20.931	-13.833	195.757	283.181	-16.896	-10.949	-7.756	-1.995	65.449	-6.151	-8191	255	
1036.709	1	1	0	0	0.16077	0.30945	0.34398	0.16507	0.13032	0.0756	0.28317	0.20255	0.28455	0.29759	0.024647	0.18171	0.20162	0.27361	0.13615	0.25828	0.85417	0.17917	-0.16458	0.48333	-0.15208	-0.060417	0.20208	-0.33542	0.38333	0.010417	-0.225	0.58958	-0.22917	0.14583	0.34792	-0.40208	63.085	309.581	149.465	212.523	-21.053	289.315	31.666	274.216	247.311	240.462	28.096	205.672	281.811	136.284	34.376	117.516	7.1011e-05	0.0010335	0.00016497	582.74	7.3965e-06	6.0058e-06	429.13	149.76	2.3321e-06	6.6149e-06	120.64	34.476	40.732	15.714	6.9261e-06	14.449	0.0058857	0.010464	0.0029284	647.85	0.0001123	0.00012235	462.61	161.03	0.00011292	0.00012632	144.14	42.462	50.164	18.428	0.00012321	18.028	151.015	26.823	154.171	-19.587	258.508	87.837	-20.791	-13.626	10.061	129.778	-17.144	-10.664	-7.620	-2.377	127.241	-6.653	-8191	255	
1036.805	1	1	0	0	0.088214	0.16091	0.021637	0.16226	0.26259	0.20479	0.26343	0.17744	0.095218	0.32436	0.19516	0.078993	0.035229	0.079545	0.10268	0.13569	0.56458	0.33125	-0.16667	0.46458	-0.095833	0.041667	0.5	-0.45417	0.43333	0.21458	-0.48542	0.4875	-0.20417	-0.21458	0.37083	-0.20208	115.046	128.385	303.276	233.647	289.761	-11.163	220.313	-24.842	180.929	92.815	287.063	56.292	93.914	-13.397	311.467	215.884	4.9606e-05	0.00038516	0.00012566	595.63	1.0946e-05	1.5693e-05	442.85	145.98	4.9251e-06	8.104e-06	119.44	34.047	39.621	15.459	3.4712e-06	14.201	0.0067723	0.01215	0.0034072	671.11	0.00013054	0.00014306	481.87	160.07	0.00013117	0.00014803	145.9	43.463	50.973	18.6	0.00014615	18.651	48.439	3.518	76.461	-20.076	257.191	274.329	-21.184	-13.515	95.687	11.535	-16.509	-11.134	-7.231	-2.054	84.068	-6.409	-8191	255	
1036.926	1	1	0	0	0.10335	0.11092	0.12679	0.18318	0.15483	0.2343	0.056984	0.35648	0.19642	0.15747	0.21989	0.12879	0.20716	0.1061	0.11704	0.22925	0.7375	0.44583	-0.20208	0.45	-0.16875	-0.19167	0.45417	-0.31875	0.34583	0.375	-0.27083	0.30833	0.13542	-0.025	0.575	-0.01875	175.450	93.393	70.259	283.050	223.842	213.881	209.057	208.793	263.578	261.014	312.117	304.842	-8.425	-4.636	196.662	155.699	8.1353e-05	0.00070947	0.00013753	593.2	1.0055e-05	8.9537e-06	449.6	142.92	6.0603e-06	6.3341e-06	119.49	35.173	40.142	15.499	3.6356e-06	14.987	0.0082159	0.014539	0.0040877	692.67	0.00015732	0.00017367	504.61	161.06	0.00015855	0.00017877	153.9	46.892	53.681	19.203	0.00015758	19.475	190.797	270.643	8.490	-20.300	152.212	113.975	-21.536	-14.182	25.426	122.649	-17.067	-10.779	-8.746	-3.134	76.735	-7.069	-8191	255	
1036.998	1	1	0	0	0.26094	0.11501	0.11189	0.23432	0.072171	0.39964	0.043253	0.043188	0.16509	0.17476	0.14149	0.18963	0.27356	0.20334	0.065697	0.34362	0.43125	0.22708	-0.37917	0.47917	0.0625	-0.36458	0.51875	-0.089583	0.047917	0.44167	-0.35625	0.4625	0.23542	-0.24167	0.23542	-0.06875	39.018	15.498	280.187	179.313	284.240	248.939	-8.083	183.345	256.256	158.960	53.379	14.598	-11.832	-18.389	140.962	268.931	9.6572e-05	0.00021689	0.00022073	613.77	3.8316e-06	1.2113e-05	483.79	146.14	2.6769e-06	1.4896e-06	129.77	39.317	43.111	16.982	3.6004e-06	17.078	0.0076774	0.013058	0.0035355	686.41	0.0001205	0.00012318	516.08	157.22	0.00010212	0.00011054	149.37	46.145	50.684	19.109	0.00010136	19.934	10.228	248.772	320.592	-20.519	-2.385	165.313	-21.656	-14.047	66.524	-12.809	-17.109	-12.733	-9.112	-3.761	132.284	-7.274	-8191	255	
1037.094	1	1	0	0	0.076128	0.26993	0.21054	0.11195	0.2232	0.25506	0.13694	0.20787	0.22007	0.22492	0.15278	0.30858	0.17485	0.018885	0.099056	0.18342	0.29167	0.55833	0.025	0.40417	0.39375	-0.125	0.49167	-0.03125	-0.0625	0.73125	-0.32083	0.18542	0.12292	-0.35833	0.44167	0.10208	27.488	104.641	81.559	102.506	4.209	142.855	224.071	270.409	172.943	189.815	251.838	232.692	-24.862	118.370	49.308	141.903	9.7394e-05	0.0010602	0.00011801	626.52	2.985e-06	1.5112e-05	508.12	149.88	3.9795e-06	8.3063e-06	135.43	39.956	42.936	17.306	2.5064e-06	17.252	0.005387	0.00952	0.0026687	680.74	0.0001003	0.00010792	534.37	159.16	9.535e-05	0.00010659	153.55	46.479	50.655	19.392	0.00010015	20.185	159.482	114.858	275.223	-20.846	298.696	12.406	-20.957	-14.252	158.931	261.418	-16.981	-12.296	-9.083	-3.864	106.263	-7.552	-8191	255	
1037.215	1	1	0	0	0.30017	0.23849	0.082627	0.14408	0.34674	0.083944	0.13016	0.16644	0.13672	0.16275	0.2207	0.072548	0.12438	0.18753	0.26959	0.32987	0.23333	0.60417	-0.064583	0.05625	0.43958	-0.22083	0.25833	-0.047917	-0.11875	0.41458	-0.15833	-0.075	0.49792	-0.39792	0.23333	0.29375	112.094	294.322	237.450	-22.953	66.121	191.491	79.119	-9.688	34.551	202.243	163.208	324.424	107.166	39.268	101.005	42.584	6.0093e-05	0.00041614	0.00014195	620.57	8.7361e-06	8.8335e-06	510.33	148.92	4.3433e-06	6.664e-06	139.43	40.43	43.64	17.56	6.7298e-06	17.868	0.0054178	0.0092893	0.0026299	674.95	9.738e-05	0.00010472	535.45	159.15	9.1457e-05	0.00010319	155.63	46.922	51.127	19.668	9.4758e-05	20.602	123.955	-30.813	179.178	-20.325	50.701	323.016	-21.718	-14.023	139.314	195.171	-17.248	-11.762	-8.624	-3.303	253.690	-7.807	-8191	255	
1037.311	1	1	0	0	0.21383	0.10228	0.16068	0.27633	0.054371	0.13838	0.27232	0.26341	0.1297	0.12258	0.050232	0.15176	0.21802	0.25602	0.14762	0.060278	-0.022917	0.50833	-0.0125	-0.0083333	0.57708	-0.25	0.34375	0.058333	-0.27708	0.57083	-0.25208	0.0125	0.44792	-0.089583	0.29167	0.26042	-24.698	17.429	250.275	184.765	106.165	264.925	13.320	209.927	84.951	103.999	-24.434	37.163	281.568	270.292	39.758	89.018	5.1904e-05	0.00045508	0.00046691	620.88	8.7886e-06	3.8466e-06	518.67	151.01	5.334e-06	7.5728e-06	142.24	41.91	44.321	18.049	3.85e-06	18.473	0.0050463	0.0087655	0.0024372	669.24	8.9026e-05	9.596e-05	539.02	159.5	8.3476e-05	9.2427e-05	156.64	47.736	51.016	19.882	8.6875e-05	20.878	175.940	1.010	13.178	-20.868	128.699	229.476	-21.451	-13.712	205.703	152.105	-17.147	-11.455	-8.677	-3.045	118.043	-7.194	-8191	255	
1037.407	1	1	0	0	0.12809	0.19732	0.2092	0.30407	0.084904	0.084784	0.1873	0.12642	0.23219	0.18745	0.14892	0.043928	0.061263	0.18773	0.31909	0.286	0.18333	0.55	0.0020833	-0.13958	0.5875	-0.089583	0.2875	0.47083	-0.21667	0.41875	0.21458	0.095833	0.44167	-0.14375	0.1	0.55625	243.666	43.655	301.051	34.193	303.135	23.682	302.633	82.115	23.273	6.230	228.182	110.135	261.413	264.802	35.268	171.478	4.6985e-05	0.00024086	0.00017489	620.55	2.7551e-06	1.2535e-05	520.9	154.23	8.3788e-06	4.8254e-06	143.65	43.424	44.717	18.271	5.7204e-06	18.867	0.004622	0.0082057	0.0022618	663.94	8.4232e-05	9.0434e-05	539.13	160.68	7.9068e-05	8.9674e-05	157.71	48.868	51.35	20.029	8.1926e-05	21.068	90.099	63.591	158.606	-20.107	-12.330	88.774	-21.379	-13.525	210.085	56.701	-16.692	-11.856	-8.905	-3.481	161.078	-7.445	-8191	255	
1037.501	1	1	0	0	0.16722	0.18675	0.082978	0.17478	0.010797	0.30412	0.18009	0.12075	0.25612	0.33541	0.28219	0.21755	0.18918	0.11832	0.16058	0.15524	0.125	0.41667	-0.17708	-0.2125	0.68958	-0.175	0.19167	0.50833	-0.3	0.4875	0.13958	-0.21458	0.51875	-0.17083	-0.24375	0.42083	53.454	289.671	265.041	218.458	69.473	180.842	148.916	-5.005	95.871	46.455	-24.402	52.849	244.129	102.891	77.903	86.450	0.00012997	0.00039462	0.00011682	615.64	4.0767e-07	4.7577e-07	511.87	149.82	3.641e-06	6.55e-06	140.72	42.546	44.195	17.875	1.1304e-05	18.204	0.0043866	0.0077781	0.0021342	654.51	7.8932e-05	8.5554e-05	528.28	157.3	7.5912e-05	8.4402e-05	154.07	47.442	50.353	19.701	8.2562e-05	20.588	177.608	266.607	-0.070	-20.534	114.787	60.692	-21.474	-13.763	118.368	136.733	-16.599	-11.453	-8.911	-3.073	139.820	-7.203	-8191	255	
1037.622	1	1	0	0	0.17303	0.24342	0.052629	0.1154	0.073079	0.29027	0.2498	0.13208	0.17057	0.039162	0.14909	0.18738	0.35347	0.25511	0.024389	0.23648	0.085417	0.31875	0.29792	-0.30208	0.57083	-0.13125	-0.22917	0.32083	-0.26042	0.32917	0.33958	-0.26667	0.46458	-0.079167	-0.35208	0.69792	47.449	-12.433	173.130	194.635	24.690	6.860	28.072	18.974	240.901	233.325	168.082	2.903	118.352	-31.262	34.906	170.780	8.6296e-05	0.00055763	0.00018774	595.11	1.7011e-06	7.6048e-06	494.68	144.85	5.5446e-06	1.148e-05	135.53	41.218	42.904	17.602	2.3282e-06	17.93	0.0044583	0.0078289	0.0022108	638.21	8.4015e-05	9.1163e-05	512.54	152.58	8.1364e-05	9.2496e-05	151.11	46.674	49.976	19.481	9.039e-05	20.627	118.360	6.050	312.526	-20.537	266.466	170.739	-21.672	-13.658	119.799	165.965	-16.815	-11.617	-8.862	-3.437	61.845	-7.209	-8191	255	
1037.694	1	1	0	0	0.12702	0.2789	0.11665	0.077558	0.26465	0.30891	0.23014	0.12635	0.33574	0.10227	0.32588	0.25476	0.35474	0.27849	0.22894	0.1027	0.020833	0.2375	0.4875	-0.28333	0.425	0.035417	-0.25417	0.39167	-0.34583	-0.039583	0.67708	-0.18542	0.21458	0.30833	-0.41042	0.47917	74.647	95.780	2.249	315.301	285.242	1.819	114.346	209.210	273.692	113.585	293.224	290.027	95.358	266.540	166.821	194.787	0.00010885	0.00010721	0.00018282	580.77	7.7665e-06	2.74e-06	479.25	141.54	2.0652e-06	1.2363e-06	135.68	41.121	42.719	17.453	1.1184e-06	18.33	0.0049595	0.0086542	0.0024273	627.86	9.1601e-05	9.8468e-05	501.35	150.33	8.6982e-05	9.729e-05	150.61	47.15	50.005	19.493	9.1097e-05	20.82	146.073	19.939	37.986	-20.400	161.427	101.597	-21.100	-13.657	38.900	258.701	-17.010	-11.975	-8.678	-2.974	130.825	-7.410	-8191	255	
1037.790	1	1	0	0	0.23718	0.24599	0.23428	0.30649	0.31879	0.321	0.17421	0.15219	0.26624	0.10579	0.011079	0.19448	0.30178	0.11335	0.15933	0.10154	0.12292	0.041667	0.28125	-0.50833	0.2375	0.077083	-0.45625	0.5875	-0.32917	0.12083	0.34167	-0.43542	0.29583	0.41667	-0.29792	0.43958	310.702	13.509	-0.677	32.834	144.346	73.915	191.613	325.023	10.133	109.107	2.750	308.188	235.816	6.712	308.596	324.509	0.0001404	0.00040243	2.4609e-05	578.93	1.7644e-06	9.4782e-06	481.63	143.02	7.3144e-06	1.081e-05	138	42.636	44.364	18.155	2.0152e-06	18.727	0.0049973	0.0087143	0.0024448	628.86	9.0754e-05	9.7177e-05	504.1	151.17	8.6583e-05	9.5716e-05	153.33	48.58	51.217	20.058	8.7995e-05	21.527	123.795	25.865	150.477	-20.119	65.634	67.482	-21.488	-13.566	80.960	218.603	-17.306	-11.734	-9.225	-3.384	255.799	-7.475	-8191	255	
1037.886	1	1	0	0	0.060483	0.014787	0.23712	0.11019	0.18058	0.19789	0.2589	0.12591	0.1771	0.21008	0.11614	0.21243	0.23401	0.13826	0.20649	0.34379	0.22292	-0.06875	0.81458	-0.28542	0.23333	0.42708	-0.54167	0.33958	0.21042	-0.20625	0.34792	-0.24583	0.14167	0.45625	-0.225	0.32917	-16.463	285.710	256.634	-25.903	28.198	315.162	285.023	172.767	-29.182	232.286	261.922	-25.580	118.119	17.466	261.442	198.552	5.5625e-05	0.00027673	0.00028832	585.62	8.7998e-06	8.5777e-06	495.47	144.37	4.5409e-06	2.347e-06	141.34	43.504	44.286	18.234	1.3282e-06	19.012	0.0048016	0.0083838	0.0023318	633.76	8.7731e-05	9.3968e-05	514.35	153.36	8.2861e-05	9.124e-05	154.86	49.255	51.345	20.052	8.6339e-05	21.439	229.536	14.909	59.698	-20.277	152.895	238.583	-21.155	-13.867	110.455	194.328	-16.829	-11.697	-8.602	-3.298	165.939	-7.350	-8191	255	
1038.006	1	1	0	0	0.045776	0.1051	0.16111	0.22937	0.21745	0.23371	0.169	0.26345	0.30526	0.23754	0.34168	0.025308	0.16718	0.083051	0.065592	0.077773	0.50417	-0.08125	0.71667	-0.15208	0.0625	0.41875	-0.26042	0.31875	0.25625	-0.36042	0.45	0.0875	0.010417	0.36042	-0.3625	0.51458	227.395	81.010	-10.355	314.633	176.009	273.413	238.375	241.819	242.133	131.285	52.750	-19.439	320.673	279.040	326.297	47.070	4.9581e-05	0.00050497	0.00022679	586.58	3.1628e-06	7.1777e-06	490.52	144.39	6.5651e-06	4.0215e-06	137.55	42.954	44.344	18.135	5.2502e-06	18.936	0.0046392	0.0080343	0.0022564	629.56	8.4002e-05	8.9565e-05	510.51	151.67	7.9021e-05	8.7301e-05	152.33	48.341	50.459	19.872	8.4343e-05	21.313	122.948	290.382	189.108	-19.902	127.742	8.213	-21.193	-13.773	76.072	299.746	-16.815	-11.355	-8.213	-3.454	255.554	-7.149	-8191	255	
1038.103	1	1	0	0	0.31095	0.076443	0.033386	0.23649	0.18306	0.56867	0.15366	0.27196	0.22827	0.1756	0.19126	0.13528	0.20185	0.25163	0.29457	0.22433	0.69583	-0.19792	0.6375	-0.075	-0.15417	0.42292	-0.0625	0.072917	0.29792	-0.29375	0.63333	0.12708	-0.00625	0.52917	-0.29792	0.125	305.505	3.328	261.555	293.640	300.407	261.792	300.023	-21.561	97.325	22.339	318.882	-0.685	154.510	274.275	292.292	183.951	3.1911e-05	0.00054112	0.00016799	577.7	1.3935e-05	6.6418e-06	492.01	144.43	3.517e-06	3.9116e-06	138.39	43.386	43.85	17.984	1.952e-06	19.188	0.0045559	0.0079484	0.0022734	625.87	8.3738e-05	9.0197e-05	510.46	152	8.2656e-05	9.2097e-05	154.16	48.958	51.193	20.001	9.0894e-05	21.734	256.506	285.532	33.880	-20.567	129.191	6.626	-20.743	-13.720	52.062	144.031	-17.121	-11.769	-9.589	-3.479	250.395	-7.273	-8191	255	
1038.199	1	1	0	0	0.033296	0.15696	0.20181	0.35927	0.20061	0.26873	0.20045	0.17889	0.14365	0.13115	0.033951	0.16284	0.040899	0.16442	0.16373	0.1439	0.85208	-0.475	0.34583	-0.052083	-0.18333	0.45208	-0.42917	0.28542	0.43125	-0.48958	0.15833	0.16458	-0.1125	0.49792	-0.072917	0.10208	14.821	317.116	159.017	-0.623	196.787	70.121	45.321	179.659	294.438	45.938	15.697	229.327	-22.863	287.241	222.667	152.701	8.4911e-05	0.00033631	0.00011917	584.5	3.4263e-06	5.1664e-06	493.3	145.38	3.3429e-06	1.3305e-05	142.31	43.812	44.617	18.424	6.5323e-06	19.414	0.0049933	0.0087274	0.0024762	635.22	9.3038e-05	9.9523e-05	517.93	154.09	8.9603e-05	0.0001013	158.35	50.346	52.107	20.466	9.7816e-05	22.179	114.712	205.916	294.157	-20.229	36.624	226.694	-20.906	-13.878	227.140	254.651	-17.095	-11.791	-9.016	-3.191	35.061	-7.475	-8191	255	
1038.295	1	1	0	0	0.1066	0.10597	0.064614	0.17061	0.31894	0.031747	0.044395	0.21934	0.19715	0.14046	0.23336	0.085627	0.34634	0.19785	0.10902	0.15719	0.73333	-0.2	0.44375	0.05625	-0.31875	0.51667	-0.16667	-0.23333	0.50833	-0.35208	0.31042	0.3875	-0.3375	0.39375	0.029167	-0.029167	-1.814	-12.855	310.799	294.130	50.097	15.005	99.080	151.063	288.363	101.893	185.446	121.068	-18.627	271.495	234.519	243.002	8.2301e-05	0.00025195	0.00031746	592.83	8.2835e-06	3.6128e-06	501.5	146.54	2.949e-06	4.7764e-06	142.53	43.938	44.677	18.238	2.4987e-06	19.465	0.0052325	0.0092533	0.0025963	645.58	9.7554e-05	0.00010437	524.91	155.55	9.2775e-05	0.00010391	159.4	50.233	52.181	20.386	9.7493e-05	22.071	150.364	128.742	100.899	-19.754	180.081	232.918	-20.998	-13.875	208.775	210.553	-16.522	-11.901	-8.853	-3.427	143.880	-7.543	-8191	255	
1038.391	1	1	0	0	0.12699	0.11686	0.13718	0.28955	0.27118	0.27744	0.029023	0.077272	0.22706	0.108	0.11649	0.2783	0.075051	0.15963	0.029771	0.16423	0.91875	-0.29167	0.31875	0.35833	-0.31875	0.42292	-0.020833	-0.28958	0.50833	-0.425	0.025	0.47083	-0.23958	0.74167	0.045833	-0.058333	135.166	321.133	292.765	50.093	194.274	322.623	263.792	286.983	274.187	13.306	198.952	307.011	68.385	79.419	15.214	109.848	9.794e-05	0.00043811	9.2722e-05	586.53	5.013e-06	7.4063e-06	497.35	144.62	1.4749e-06	1.2014e-05	140.99	43.287	44.003	18.166	1.826e-06	19.217	0.0052368	0.009227	0.0025602	638.8	9.4845e-05	0.00010081	519.44	153.6	8.9589e-05	0.00010027	157.33	49.269	51.431	20.187	9.2975e-05	21.801	114.926	193.900	275.456	-20.040	121.960	272.196	-21.157	-13.951	102.720	172.096	-16.851	-11.746	-8.682	-3.491	150.284	-7.499	-8191	255	
1038.487	1	1	0	0	0.18945	0.19389	0.23681	0.24084	0.25167	0.30537	0.16627	0.19877	0.11096	0.092985	0.045355	0.20274	0.085733	0.14006	0.21095	0.12261	0.85	-0.21667	0.13333	0.45625	-0.46667	0.47917	0.10833	-0.1625	0.52292	-0.095833	-0.1375	0.47083	-0.25833	0.26667	0.2	-0.38125	-25.303	147.671	-5.966	256.978	164.191	168.631	293.796	-21.808	0.508	271.218	293.816	60.669	294.758	169.458	207.945	56.384	0.00016491	0.00036098	0.00028008	581.82	3.8638e-06	4.8604e-06	494.87	145.17	7.3724e-06	1.0221e-05	139.84	43.501	44.196	18.283	2.6477e-06	19.295	0.0050288	0.0087796	0.0024436	632.66	9.0967e-05	9.8233e-05	515.7	152.89	8.652e-05	9.5478e-05	155.87	49.486	51.006	20.189	9.1026e-05	21.903	176.583	178.246	50.537	-19.984	219.360	280.754	-20.707	-13.492	35.724	40.537	-16.351	-11.399	-8.357	-3.284	183.305	-6.675	-8191	255	
1038.606	1	1	0	0	0.1993	0.17956	0.044385	0.21045	0.060908	0.29104	0.21663	0.26822	0.064856	0.12807	0.066719	0.15314	0.097768	0.28362	0.19018	0.02099	0.68125	0.033333	-0.045833	0.5125	-0.19583	0.22083	0.23958	-0.19792	0.49792	0.016667	-0.23333	0.48958	-0.32917	0.06875	0.44792	-0.32083	287.429	207.756	207.789	278.576	273.284	-2.371	215.415	-24.648	1.163	76.292	192.450	92.850	138.483	-23.761	27.943	314.024	0.00010526	0.00054335	0.00016834	578.61	4.8036e-06	8.5244e-06	494.5	143.55	4.9759e-06	5.9778e-06	142.44	44.143	44.569	18.324	4.148e-06	19.733	0.0049387	0.0086682	0.0023989	628.63	9.0567e-05	9.8506e-05	516.75	152.31	8.844e-05	9.7647e-05	157.83	50.174	51.957	20.333	9.4834e-05	22.402	184.849	284.407	124.569	-19.868	54.313	189.449	-20.909	-13.433	72.034	103.353	-16.269	-10.968	-7.993	-2.322	20.305	-7.080	-8191	255	
1038.702	1	1	0	0	0.2439	0.12126	0.10611	0.057517	0.075313	0.16394	0.066187	0.14231	0.20694	0.098649	0.10212	0.2003	0.34681	0.23072	0.15764	0.14386	0.80417	0.11458	-0.17292	0.67083	-0.0875	0.097917	0.34792	-0.49792	0.42292	0.19375	-0.17292	0.4375	-0.23542	0.13958	0.45833	-0.40208	317.283	259.129	314.072	262.185	305.030	-7.566	36.114	-6.417	258.021	78.644	6.065	56.645	88.645	236.655	39.753	216.241	0.00012086	0.001032	9.9575e-05	581.09	6.0373e-06	8.2818e-06	498.02	145.48	9.4782e-06	4.8982e-06	143.4	43.348	45.039	18.48	6.0972e-06	19.677	0.0052001	0.0091693	0.0025238	635.99	9.6385e-05	0.00010348	520.67	154.45	9.2463e-05	0.0001038	159.27	50.09	52.227	20.469	9.6995e-05	22.284	229.116	48.177	13.971	-19.718	132.454	107.533	-20.907	-13.400	124.016	94.997	-16.258	-11.301	-8.550	-3.184	130.864	-7.261	-8191	255	
1038.798	1	1	0	0	0.10049	0.31935	0.14224	0.14461	0.10215	0.17047	0.18257	0.20447	0.3254	0.21755	0.010433	0.061986	0.088221	0.036236	0.098725	0.26059	0.79792	0.3	-0.22083	0.56667	-0.16042	0.035417	0.53333	-0.35208	0.39792	0.31042	-0.52917	0.54792	-0.035417	-0.13333	0.61458	-0.16042	252.478	237.926	-22.727	213.748	40.701	293.915	90.548	207.662	165.731	186.108	230.448	102.856	286.699	-25.225	88.888	266.953	5.224e-05	0.00084332	9.4608e-05	579.59	4.1936e-06	8.8941e-06	490.66	144.35	4.4102e-06	9.0561e-06	139.27	42.673	44.02	18.197	4.4936e-06	19.091	0.0053417	0.0093592	0.002603	635.02	9.6971e-05	0.0001041	515.71	153.18	9.2889e-05	0.00010218	156.68	48.955	51.274	20.106	9.6038e-05	21.751	100.274	272.606	74.562	-20.087	38.722	72.462	-20.703	-13.565	92.196	63.991	-16.494	-12.034	-7.992	-2.817	24.537	-7.114	-8191	255	
1038.895	1	1	0	0	0.17754	0.29307	0.11249	0.19486	0.10227	0.11781	0.12595	0.19954	0.081019	0.1913	0.074794	0.1873	0.044529	0.11571	0.15249	0.32249	0.59583	0.27708	-0.36458	0.58333	0.035417	-0.095833	0.43542	-0.22292	0.28125	0.41875	-0.15	0.27708	0.19583	-0.32917	0.58333	-0.16458	72.640	301.382	278.908	323.948	196.157	304.558	18.644	290.179	57.108	270.768	125.526	248.884	76.260	299.851	297.932	-18.589	0.00011899	0.00014047	0.00011479	575.89	3.9644e-06	1.7589e-05	483.46	141.98	1.074e-06	2.8017e-06	139.18	42.812	43.656	18.044	4.9963e-06	19.261	0.0051686	0.0089718	0.0025384	624.65	9.3476e-05	9.9338e-05	508.53	150.9	8.7384e-05	9.8036e-05	154.49	48.756	50.749	19.917	9.081e-05	21.765	110.149	97.394	280.526	-20.097	169.943	70.730	-21.219	-13.258	58.607	181.019	-16.826	-11.416	-7.836	-3.586	259.842	-6.980	-8191	255	
1038.991	1	1	0	0	0.11677	0.10062	0.10767	0.088724	0.34752	0.076883	0.15629	0.35994	0.058759	0.30252	0.096521	0.071429	0.27827	0.22394	0.11341	0.28101	0.43125	0.59792	-0.34167	0.18958	0.225	-0.24167	0.46042	-0.18958	0.041667	0.41667	-0.18333	0.35833	0.17708	-0.37917	0.40833	-0.275	244.279	30.438	300.361	-4.508	233.272	75.930	302.009	273.354	33.842	198.050	236.847	116.627	-17.919	76.913	91.667	98.986	0.00012945	0.00060315	0.00015722	564.71	5.8931e-06	4.2471e-06	487.57	139.6	7.14e-06	5.7156e-06	138.66	43.042	43.557	18.2	7.7332e-06	19.434	0.004898	0.008611	0.0023842	614.45	8.845e-05	9.4744e-05	505.93	148.07	8.3527e-05	9.2717e-05	154.42	48.853	50.505	19.995	8.9338e-05	21.92	135.717	0.304	54.090	-18.933	77.935	3.090	-21.082	-13.181	70.789	150.992	-17.116	-10.734	-8.596	-2.753	188.229	-7.281	-8191	255	
1039.087	1	1	0	0	0.039778	0.25152	0.21439	0.061226	0.20867	0.21976	0.10397	0.32206	0.019851	0.17834	0.058232	0.1221	0.32053	0.15797	0.12354	0.13523	0.18542	0.48333	-0.275	0.20833	0.37708	-0.34167	0.33958	-0.058333	-0.058333	0.49375	-0.33125	0.25208	0.2625	-0.4375	0.55	-0.033333	241.652	32.330	327.475	73.044	48.046	40.853	239.294	54.761	180.799	281.841	280.997	272.060	237.458	167.818	97.147	203.631	9.1265e-05	0.0011183	0.00025414	564.35	6.5175e-06	9.4741e-06	484.7	142.07	6.2051e-06	8.0966e-07	138.74	43.809	44.289	18.283	2.4093e-06	19.511	0.0047976	0.0084045	0.0024082	615.62	8.8616e-05	9.4639e-05	505.68	150.28	8.5895e-05	9.597e-05	155.89	49.735	51.251	20.258	9.4366e-05	22.116	89.337	33.727	129.850	-19.733	241.148	20.015	-20.875	-12.918	189.674	231.090	-16.414	-11.189	-7.618	-2.521	50.426	-6.843	-8191	255	
1039.183	1	1	0	0	0.02778	0.091108	0.092969	0.17558	0.10121	0.12378	0.2565	0.27286	0.12218	0.23883	0.16266	0.17548	0.068289	0.029316	0.2288	0.046665	0.05625	0.49792	-0.070833	0.21458	0.43125	-0.1875	0.375	0.23125	-0.18333	0.6	-0.075	0.10833	0.39375	-0.35	0.36875	0.091667	106.233	-7.435	187.973	285.592	26.035	218.790	264.806	-16.660	172.665	213.053	177.390	252.398	167.846	208.759	131.657	204.754	8.966e-05	0.00090382	0.00017814	569.35	8.3574e-06	2.5704e-06	477.65	141.85	3.6147e-06	2.708e-06	138.75	42.234	43.278	18.007	4.6285e-06	19.01	0.0050262	0.0087848	0.0024908	616.66	9.2638e-05	9.921e-05	502.41	149.73	8.748e-05	9.8575e-05	154.91	48.342	50.584	20.015	9.455e-05	21.758	62.511	73.966	104.742	-19.233	128.500	29.749	-20.824	-13.326	124.528	-6.859	-16.261	-11.798	-8.493	-2.767	128.855	-7.048	-8191	255	
1039.304	1	1	0	0	0.024129	0.1124	0.18657	0.11699	0.14446	0.20679	0.11396	0.044035	0.096257	0.22169	0.22031	0.10489	0.1498	0.29584	0.11172	0.17627	0.17292	0.46042	-0.225	0.0041667	0.62917	-0.30625	0.22917	0.2125	-0.20417	0.76875	-0.23542	-0.10417	0.50417	-0.36667	0.16667	0.25	35.147	102.292	59.666	175.609	53.455	285.079	214.078	293.439	31.314	266.045	166.687	144.960	38.863	301.019	260.181	275.613	8.0307e-05	0.0005544	0.00022755	566.88	1.8069e-06	7.783e-06	473.79	140.08	8.2672e-06	5.093e-06	138.14	42.74	43.875	18.099	2.0778e-06	19.198	0.0050979	0.008994	0.0025179	615.38	9.2767e-05	0.00010079	500.51	149.46	8.8462e-05	0.00010036	155.24	48.4	50.658	20.035	9.3268e-05	21.779	151.439	100.717	24.629	-20.512	159.657	178.690	-20.906	-13.615	152.296	83.950	-16.561	-12.119	-8.886	-2.770	132.349	-6.728	-8191	255	
1039.398	1	1	0	0	0.13936	0.29704	0.20252	0.16034	0.21269	0.36622	0.19252	0.25116	0.16546	0.21753	0.28732	0.069573	0.12615	0.17088	0.15562	0.028799	-0.0083333	0.73958	0.077083	-0.13333	0.34792	-0.45208	0.089583	0.43542	-0.39792	0.5375	0.11042	-0.19167	0.51042	-0.23542	0.33958	0.35625	-21.698	245.742	234.687	184.629	-31.892	31.969	177.364	102.923	218.313	208.643	244.542	148.048	323.211	3.790	262.347	227.746	8.7801e-05	0.0011892	0.00034488	558.21	7.7363e-06	6.9574e-06	476.27	138.3	5.6068e-06	1.5999e-06	137.42	42.57	43.056	17.819	5.7237e-06	19.209	0.0050007	0.0088139	0.0024456	607.49	9.003e-05	9.815e-05	499.14	147.47	8.5603e-05	9.572e-05	153.11	48.328	50.016	19.73	8.9263e-05	21.618	236.276	298.971	168.310	-19.837	267.948	105.952	-21.725	-13.977	136.204	11.268	-17.125	-12.133	-9.504	-3.763	188.191	-8.233	-8191	255	
1039.494	1	1	0	0	0.19807	0.24802	0.15504	0.45575	0.044096	0.2046	0.13828	0.1184	0.1834	0.14546	0.25948	0.23177	0.11514	0.052642	0.27812	0.1374	0.0125	0.46875	0.13958	-0.19792	0.6125	-0.12708	0.095833	0.36667	-0.40417	0.34583	0.22708	-0.5125	0.47708	-0.2375	0.060417	0.41042	95.723	250.129	195.321	51.617	6.729	174.479	270.848	188.442	180.860	154.093	318.338	275.317	17.094	-30.968	99.856	256.349	3.3869e-05	0.00080871	0.00010586	558.13	5.4668e-06	7.7671e-07	473.97	137.61	2.5223e-06	2.1157e-06	136.94	42.825	43.489	17.69	6.2266e-06	19.098	0.0047717	0.0083443	0.0023337	601.45	8.6667e-05	9.2496e-05	496.53	145.41	8.2211e-05	9.1096e-05	151.47	48.294	49.692	19.618	8.3845e-05	21.478	324.441	229.476	293.860	-20.854	112.767	68.689	-21.348	-13.770	52.059	53.480	-16.897	-11.978	-9.485	-3.609	142.313	-7.987	-8191	255	
1039.568	1	1	0	0	0.16811	0.14501	0.23995	0.11544	0.091087	0.16635	0.17089	0.26239	0.12994	0.20706	0.16861	0.22702	0.13352	0.20764	0.049637	0.23459	0.22708	0.38542	0.53542	-0.34167	0.40625	0.045833	-0.06875	0.475	-0.14792	0.37083	0.44167	-0.36667	0.3875	0.08125	-0.125	0.3625	287.635	146.986	291.522	294.365	52.884	223.238	239.764	262.091	178.115	-21.010	129.228	-8.567	202.075	239.195	90.530	62.009	8.4409e-05	0.00078238	1.6685e-05	551.85	2.2046e-06	4.8571e-06	465.54	135.76	5.2809e-06	4.0008e-06	134.81	41.601	41.942	17.534	4.3827e-06	18.571	0.0046561	0.008093	0.0022273	595.59	8.3554e-05	9.1472e-05	487.07	144.31	8.1024e-05	8.9959e-05	149.33	47.202	48.893	19.376	8.591e-05	21.119	130.793	94.241	115.538	-20.436	133.244	140.658	-21.666	-14.101	129.976	80.291	-17.023	-12.097	-9.248	-3.366	-1.840	-7.852	-8191	255	
1039.686	1	1	0	0	0.094118	0.12621	0.19787	0.36246	0.040819	0.1699	0.061066	0.24053	0.24789	0.2025	0.021738	0.056159	0.070056	0.16676	0.18496	0.068341	0.13542	0.175	0.41667	-0.40833	0.46875	0.08125	-0.14792	0.48333	-0.17292	0.19792	0.44792	-0.34167	0.41458	0.2625	-0.3	0.63333	274.707	147.223	182.362	65.691	164.901	172.440	-25.532	230.757	73.426	92.700	264.050	316.217	225.961	21.419	-25.579	303.278	0.00011168	0.00093253	9.2056e-05	544.21	9.3308e-06	7.3774e-06	461.53	135.11	4.3572e-06	4.478e-06	133.32	40.697	41.865	17.509	7.3589e-07	18.601	0.0047299	0.0082146	0.0023034	591.96	8.6863e-05	9.2836e-05	482.49	143.8	8.2715e-05	9.2658e-05	148.97	46.8	48.877	19.391	8.8874e-05	21.258	218.864	50.739	27.245	-20.222	316.072	154.250	-21.587	-14.296	305.684	119.057	-16.916	-12.540	-9.503	-3.836	196.404	-7.323	-8191	255	
1039.783	1	1	0	0	0.21695	0.016674	0.13213	0.31209	0.12869	0.18203	0.26351	0.22624	0.056482	0.21756	0.09276	0.19742	0.13074	0.11815	0.048748	0.038763	0.33542	0.0625	0.41875	-0.21875	0.32292	0.20417	-0.28958	0.51042	-0.10833	-0.039583	0.50833	-0.0875	0.23125	0.33958	-0.38125	0.5375	243.105	293.569	26.453	304.203	274.824	259.229	250.467	291.601	33.935	188.328	277.135	137.157	61.066	237.124	7.323	55.962	9.5042e-05	0.00053957	7.0653e-05	545.48	2.3122e-06	9.7976e-06	462.15	136.59	2.8986e-06	2.4476e-06	136.32	40.904	42.666	17.644	7.5698e-06	18.854	0.0048229	0.0084742	0.0023841	594.48	8.9333e-05	9.3655e-05	485.56	144.88	8.551e-05	9.2938e-05	150.87	47.111	49.101	19.465	8.9033e-05	21.349	147.103	17.149	121.063	-20.420	136.178	73.915	-21.852	-14.066	-9.841	217.814	-16.974	-12.039	-9.038	-4.062	183.342	-8.316	-8191	255	
1039.879	1	1	0	0	0.08748	0.074504	0.29088	0.17049	0.16927	0.063741	0.068108	0.26552	0.015633	0.17279	0.24601	0.07506	0.20752	0.3218	0.21013	0.23158	0.45625	0.045833	0.63333	-0.27292	0.13542	0.36875	-0.26458	0.39167	0.17083	-0.12083	0.59375	-0.26458	0.05625	0.34583	-0.22708	0.47708	152.957	219.606	250.654	291.846	292.534	88.889	170.207	259.685	36.252	174.764	192.558	17.616	246.228	46.938	46.154	310.557	7.5855e-05	0.00082178	0.00019072	543.52	5.0553e-06	5.8719e-06	467.49	137.54	4.7027e-06	8.2049e-06	137.11	42.546	43.227	17.949	8.8319e-06	19.424	0.0048609	0.00838	0.0023749	594.86	8.7414e-05	9.3299e-05	488.03	145.33	8.2805e-05	9.2629e-05	152.17	48.576	49.721	19.761	8.8401e-05	21.8	50.850	261.111	72.482	-20.288	125.831	113.122	-21.480	-13.975	110.066	98.273	-17.403	-11.596	-9.162	-3.882	277.091	-7.755	-8191	255	
1039.999	1	1	0	0	0.16881	0.17629	0.12739	0.19775	0.14925	0.15837	0.34965	0.27122	0.16854	0.095691	0.15507	0.03003	0.35736	0.26258	0.25633	0.141	0.54167	-0.1375	0.44167	-0.16667	0.19167	0.54583	-0.32917	0.3625	0.30417	-0.0875	0.55833	-0.21875	-0.027083	0.40833	-0.25208	0.43542	242.206	233.602	311.734	285.870	161.878	258.337	257.213	57.268	301.253	212.593	283.177	133.036	102.809	39.287	318.792	5.674	1.7138e-05	0.00028518	0.00022606	549.61	5.3884e-06	7.5944e-06	468.56	137.23	1.8365e-06	3.3376e-06	136.94	42.44	42.508	17.808	3.8983e-06	18.877	0.0046742	0.008209	0.0023567	596.12	8.5434e-05	9.214e-05	490.67	145.22	8.1309e-05	8.9334e-05	151.27	47.695	49.129	19.513	8.4909e-05	21.358	-26.387	235.388	52.627	-19.938	95.011	99.793	-21.627	-13.918	189.473	97.980	-17.486	-11.874	-8.984	-3.687	78.882	-7.607	-8191	255	
1040.096	1	1	0	0	0.23057	0.39778	0.083706	0.084942	0.13611	0.31128	0.29173	0.096995	0.25329	0.29604	0.15364	0.22383	0.28915	0.13407	0.201	0.14486	0.76458	-0.1125	0.45833	0.04375	-0.08125	0.72292	-0.29375	0.3875	0.50208	-0.16458	0.58958	0.066667	-0.05	0.42292	-0.13125	0.15417	139.806	259.823	196.173	44.588	313.808	266.322	319.880	-24.526	138.823	5.661	322.328	283.994	3.801	32.308	140.844	191.488	5.2247e-05	0.00072363	0.00023606	543.26	6.3836e-06	3.6675e-06	463.53	135.71	1.6402e-06	1.0723e-05	133.59	40.911	42.222	17.687	4.6948e-06	18.748	0.0045242	0.0079598	0.0022308	589.11	8.2768e-05	8.8534e-05	483.91	142.65	7.7552e-05	8.7895e-05	148.45	46.846	48.585	19.394	8.4084e-05	21.171	102.259	214.404	-2.568	-20.530	275.021	155.195	-21.609	-14.221	-23.907	188.777	-17.272	-12.718	-9.534	-3.660	87.629	-7.699	-8191	255	
1040.167	1	1	0	0	0.027412	0.25461	0.36645	0.073692	0.22901	0.059506	0.12497	0.14797	0.28693	0.32187	0.17191	0.2768	0.23283	0.22888	0.22871	0.28064	0.58333	-0.24375	0.44583	0.13542	-0.20417	0.66042	-0.22083	0.12292	0.29375	-0.26875	0.3	0.15625	-0.22917	0.51875	-0.38333	0.31042	165.266	59.369	150.133	-26.128	253.462	47.602	227.232	183.212	-10.719	4.423	-10.904	-8.286	155.431	27.582	23.203	175.486	5.5183e-05	0.00084416	0.00016035	544.34	2.1986e-06	7.2738e-06	460.63	136.16	2.858e-06	3.4865e-06	134.25	41.872	42.228	17.595	4.0794e-06	18.855	0.0045368	0.0080484	0.0022549	588.5	8.3876e-05	9.1165e-05	482.74	143.88	8.0447e-05	9.1124e-05	149.92	47.292	48.81	19.519	8.8059e-05	21.338	156.503	96.677	1.778	-20.751	106.588	225.768	-21.450	-14.519	77.773	49.213	-17.087	-11.742	-9.752	-3.789	101.802	-7.543	-8191	255	
1040.288	1	1	0	0	0.21652	0.1325	0.15321	0.14633	0.15264	0.17675	0.28877	0.25535	0.26832	0.055668	0.11584	0.11189	0.11407	0.056979	0.26135	0.29149	0.82292	-0.14167	0.35833	0.16875	-0.16042	0.38958	-0.09375	0.052083	0.525	-0.058333	0.3625	0.2375	-0.31875	0.41875	0.11667	0.0083333	120.127	222.627	268.522	315.599	283.247	293.909	252.020	-12.116	16.956	180.899	5.749	264.236	221.370	-7.638	-29.440	3.542	8.4203e-05	0.00056172	0.00021019	542.47	3.8826e-06	7.1604e-06	464.13	136.34	2.5331e-06	2.6126e-06	137.26	42.188	42.48	17.75	5.3443e-06	19.181	0.0047213	0.0084169	0.0023604	590.56	8.7585e-05	9.5214e-05	486.48	144.99	8.535e-05	9.6054e-05	152.05	47.971	49.606	19.699	9.1034e-05	21.662	144.214	314.686	97.268	-20.474	190.429	12.614	-21.351	-14.201	15.648	-7.782	-17.576	-12.194	-9.200	-3.752	186.678	-8.095	-8191	255	
1040.384	1	1	0	0	0.20447	0.22142	0.34075	0.26633	0.022248	0.11388	0.13105	0.073129	0.12317	0.18676	0.23117	0.019824	0.005939	0.27675	0.18578	0.072413	1.0125	-0.10625	0.25833	0.57292	-0.32708	0.49167	0.027083	-0.1625	0.70625	-0.16458	0.3875	0.51875	-0.46667	0.38333	0.20833	-0.31667	80.075	244.977	80.707	277.915	184.457	292.233	177.344	56.825	29.477	299.126	183.612	13.453	299.837	291.377	272.269	142.778	4.5521e-05	0.00044108	0.00023814	544.72	2.5357e-06	5.3036e-06	467.81	137.32	5.1165e-06	1.7567e-05	137.1	41.503	42.315	17.677	4.8306e-06	18.626	0.0049513	0.0088113	0.0024327	598.58	9.1336e-05	9.8049e-05	492.06	145.47	8.7347e-05	9.7038e-05	152.24	47.656	49.339	19.533	9.1565e-05	21.298	221.514	152.102	102.105	-20.361	59.020	113.103	-21.422	-14.075	53.621	172.099	-17.096	-11.795	-9.671	-3.735	225.997	-7.389	-8191	255	
1040.478	1	1	0	0	0.013675	0.18302	0.25107	0.069719	0.18705	0.11345	0.13815	0.10834	0.2166	0.19449	0.21065	0.22565	0.13075	0.10324	0.14272	0.29597	0.82292	-0.15417	0.17917	0.39167	-0.2	0.20833	0.1125	-0.2	0.55208	-0.16875	-0.12708	0.40833	-0.3	0.3	0.1625	-0.42083	64.554	19.409	171.697	33.435	193.612	131.255	-29.917	197.019	294.037	33.440	172.930	273.496	19.506	204.739	209.545	103.936	5.1103e-05	0.00072768	9.3802e-05	545.2	2.5552e-06	9.3445e-06	461.89	135.49	3.3955e-06	5.4733e-06	134.04	41.032	42.236	17.517	4.7892e-06	18.772	0.0050151	0.0087947	0.0024285	596.3	9.0777e-05	9.6301e-05	485.48	144.87	8.5937e-05	9.4464e-05	150.26	46.988	49.091	19.401	8.9149e-05	21.223	156.512	64.057	119.740	-20.613	73.615	-13.983	-21.023	-14.123	245.549	200.996	-17.145	-12.507	-9.141	-3.727	188.721	-7.813	-8191	255	
1040.599	1	1	0	0	0.31065	0.3781	0.32652	0.27661	0.25285	0.1401	0.081894	0.1424	0.083438	0.19667	0.32917	0.13911	0.11649	0.11095	0.20972	0.09901	1	0.08125	0.10625	0.53125	-0.28125	0.47917	0.40208	-0.41667	0.33542	0.047917	-0.18125	0.69375	-0.28333	0.26042	0.40208	-0.39167	123.873	266.801	15.242	318.367	123.802	70.599	173.235	196.297	178.898	108.108	44.858	-21.962	-5.666	156.705	-8.803	-20.338	6.3957e-05	0.00059446	0.0001991	540.41	3.9235e-06	7.2611e-06	463.86	136.4	3.4928e-06	8.2506e-06	134.38	41.616	42.097	17.571	5.7815e-06	18.858	0.0048976	0.0084468	0.0023128	590.06	8.7623e-05	9.326e-05	484.76	143.94	8.2059e-05	9.089e-05	149.4	47.069	48.764	19.342	8.5204e-05	21.169	215.559	148.971	187.450	-20.510	316.283	112.768	-21.252	-13.904	24.072	95.564	-17.654	-12.024	-8.884	-4.143	70.832	-7.815	-8191	255	
1040.695	1	1	0	0	0.14314	0.16458	0.22333	0.29692	0.21392	0.2674	0.3037	0.35813	0.16562	0.27371	0.18361	0.15121	0.20692	0.21744	0.090037	0.17236	0.81875	0.095833	-0.025	0.67917	-0.033333	0.275	0.54375	-0.32292	0.36875	0.38542	-0.15417	0.47083	-0.26042	-0.027083	0.61667	-0.175	-5.938	253.893	282.020	175.407	145.350	16.056	271.940	206.638	182.800	189.346	116.042	-21.406	224.826	250.062	30.986	286.114	2.0875e-05	0.00015174	6.69e-05	538.37	6.0001e-06	1.0237e-05	463.92	135.23	2.7585e-06	6.1631e-06	135.47	42.236	42.746	17.789	2.8759e-06	19.159	0.0046058	0.0079872	0.0022238	586.19	8.2927e-05	8.8786e-05	486.04	143.39	7.9219e-05	8.7654e-05	150.01	47.915	49.25	19.582	8.5649e-05	21.596	173.661	259.569	295.858	-20.942	189.787	36.596	-21.552	-13.988	101.291	168.560	-17.179	-12.200	-9.265	-4.191	104.427	-7.214	-8191	255	
1040.791	1	1	0	0	0.083326	0.064194	0.13536	0.20977	0.17604	0.067927	0.17294	0.11696	0.18046	0.039549	0.12638	0.28177	0.15215	0.10557	0.12083	0.14788	0.90208	0.2375	-0.35833	0.53542	-0.01875	-0.0375	0.57917	-0.26667	0.16458	0.44375	-0.035417	0.59167	-0.0020833	0.020833	0.58333	-0.1	82.804	282.712	50.610	98.511	142.914	59.299	152.151	107.361	304.368	316.741	207.162	256.212	233.668	138.157	85.867	261.743	6.0301e-05	0.0011417	0.00019256	538	5.4434e-06	7.8413e-06	464.9	137.18	3.3356e-06	5.4846e-06	136.05	41.56	42.359	17.885	6.646e-06	18.905	0.0046869	0.0080901	0.002278	588.82	8.6112e-05	9.2499e-05	488.12	144.95	8.2811e-05	9.2725e-05	151.11	47.565	49.304	19.67	8.9599e-05	21.459	159.251	69.068	-17.134	-20.514	111.110	78.167	-21.329	-13.758	310.223	39.984	-17.426	-12.098	-9.569	-3.839	135.157	-7.520	-8191	255	
1040.863	1	1	0	0	0.18909	0.12385	0.063557	0.32096	0.33849	0.20058	0.29013	0.29762	0.15908	0.079412	0.37279	0.28791	0.11628	0.24531	0.17965	0.055814	0.61875	0.55	-0.27917	0.47083	-0.10417	0.010417	0.72917	-0.275	0.23958	0.60417	-0.35417	0.575	0.24167	-0.052083	0.60625	-0.12083	122.322	308.408	252.906	318.521	180.147	-31.785	227.342	15.083	224.501	222.470	166.350	235.438	44.394	275.120	203.364	326.738	6.8887e-05	0.00034482	0.00036882	545.98	7.4642e-06	6.2834e-06	463.38	136.31	5.3207e-06	3.3371e-06	135.6	40.861	42.501	17.447	3.9574e-06	18.507	0.0047874	0.0085131	0.0024067	594.36	8.9144e-05	9.6043e-05	487.3	144.96	8.6173e-05	9.7217e-05	151.89	47.036	49.522	19.517	9.4411e-05	21.272	147.871	-3.945	49.875	-21.115	14.631	170.705	-21.429	-14.061	-23.153	5.629	-17.589	-12.238	-9.549	-3.875	231.131	-8.151	-8191	255	
1040.984	1	1	0	0	0.15133	0.11988	0.17385	0.087525	0.082216	0.1566	0.25459	0.045207	0.23379	0.083507	0.35907	0.35267	0.24728	0.081297	0.22721	0.09385	0.3125	0.56875	-0.20625	0.32708	0.20625	-0.21458	0.34167	-0.20625	0.1125	0.58542	-0.23125	0.25417	0.26875	-0.3875	0.51875	-0.18333	10.782	131.314	25.316	204.630	28.948	249.258	252.686	280.108	144.117	242.733	-26.807	125.864	163.453	10.379	79.318	252.330	3.3279e-05	0.00064314	0.00023144	546.28	8.6699e-06	1.1585e-05	465.44	136.93	5.9415e-06	9.8486e-06	135.39	41.076	41.963	17.69	9.8294e-06	18.701	0.0050152	0.008853	0.0024869	599.6	9.2609e-05	0.00010022	490.41	146.46	8.8227e-05	9.9516e-05	152.19	47.172	49.401	19.615	9.4801e-05	21.337	211.940	-17.726	227.994	-20.829	129.755	197.633	-21.664	-14.141	227.419	100.578	-17.077	-12.817	-8.757	-3.759	199.909	-7.258	-8191	255	
1041.080	1	1	0	0	0.12227	0.097532	0.26016	0.16621	0.11846	0.10451	0.23589	0.25171	0.16953	0.23012	0.11278	0.22718	0.19395	0.28108	0.24811	0.15689	0.3375	0.46875	-0.23333	0.24583	0.42917	-0.24375	0.45208	-0.13333	-0.26875	0.43333	-0.3625	0.17083	0.37083	-0.2	0.41667	0.060417	160.728	34.053	309.559	159.070	211.294	270.155	128.873	-12.696	55.495	56.225	53.203	149.291	43.157	-27.455	287.976	250.316	4.8115e-05	0.0011913	0.0002174	542.11	1.75e-06	8.3427e-06	472.95	137.18	3.6163e-06	9.6733e-06	136.99	41.497	42.414	17.784	6.0594e-06	19.068	0.0050482	0.0088767	0.0024768	596.98	9.1667e-05	9.8817e-05	494.45	146.02	8.724e-05	9.7049e-05	153.09	47.83	49.76	19.664	9.2871e-05	21.548	196.112	98.981	43.910	-20.707	-1.402	125.369	-21.295	-13.934	50.768	44.727	-17.363	-12.589	-9.750	-3.961	218.531	-7.834	-8191	255	
1041.176	1	1	0	0	0.15522	0.33383	0.2361	0.1258	0.16212	0.16196	0.12248	0.30076	0.012515	0.10629	0.12037	0.28311	0.090585	0.074967	0.062282	0.33431	-0.014583	0.57917	-0.31458	0.25833	0.32083	-0.43125	0.28958	-0.010417	-0.10208	0.47083	-0.22917	0.083333	0.40833	-0.30417	0.3125	0.225	80.512	322.264	274.009	100.784	180.549	219.573	20.449	248.012	256.448	73.549	81.179	260.756	327.738	114.061	159.903	271.009	0.00010292	0.00071339	0.00029532	543.86	7.8501e-06	5.7391e-06	468.77	137.35	4.3776e-06	8.2494e-06	137.61	42.108	42.571	17.783	4.4521e-06	18.883	0.0049286	0.0086844	0.0023873	594.09	8.8648e-05	9.6163e-05	493.76	145.39	8.3632e-05	9.4315e-05	152.59	47.708	49.509	19.607	8.6347e-05	21.298	129.938	106.458	69.696	-20.071	-0.322	322.643	-21.561	-13.837	89.533	253.867	-17.414	-12.392	-9.344	-4.010	-31.558	-7.467	-8191	255	
1041.272	1	1	0	0	0.069293	0.21713	0.13675	0.33963	0.41012	0.19782	0.12847	0.10702	0.30675	0.10928	0.11853	0.060527	0.11706	0.31427	0.21206	0.11282	0.2	0.59583	-0.033333	0.014583	0.48125	-0.24792	0.26458	0.3375	-0.41875	0.53958	0.075	-0.058333	0.37917	-0.27708	0.38542	0.31667	57.368	269.268	29.021	190.174	175.106	305.281	79.642	178.996	315.207	22.720	198.324	11.366	114.597	280.090	8.400	214.236	0.00012381	0.00041266	4.5817e-05	537.87	3.1273e-06	3.8059e-06	467.64	135.36	1.2427e-06	1.1114e-05	133.74	41.384	42.298	17.636	3.2511e-06	18.645	0.0047215	0.0081944	0.002277	586.13	8.5138e-05	9.2442e-05	486.43	143.43	8.15e-05	9.0657e-05	149.14	46.815	48.856	19.44	8.6461e-05	21.095	163.910	69.097	21.043	-20.775	92.114	66.510	-21.568	-14.543	13.927	196.704	-16.924	-11.945	-9.095	-3.544	65.253	-7.510	-8191	255	
1041.368	1	1	0	0	0.09298	0.23709	0.075523	0.11987	0.06536	0.2165	0.19738	0.20747	0.19586	0.138	0.071676	0.092212	0.1478	0.20495	0.040325	0.15881	-0.00625	0.625	0.16042	-0.12917	0.45417	-0.30208	0.052083	0.43542	-0.23333	0.41042	0.17083	-0.091667	0.65833	-0.2375	0.11875	0.40625	150.358	33.321	-13.912	5.784	130.341	229.906	161.234	238.323	244.178	121.426	3.927	-17.232	85.841	296.718	161.493	146.565	4.0392e-05	0.00052931	0.00014295	536.95	5.6158e-06	1.5254e-06	460.19	136.86	3.2852e-06	5.4882e-06	136.04	41.356	41.995	17.645	4.4117e-06	18.634	0.0047114	0.0083073	0.0023118	585.95	8.7556e-05	9.3186e-05	482.55	144.53	8.3736e-05	9.4387e-05	150.57	46.984	49.338	19.556	8.9415e-05	21.33	134.228	26.703	129.318	-20.419	154.653	275.594	-21.755	-14.343	91.782	50.831	-17.604	-12.791	-9.547	-4.120	120.413	-7.927	-8191	255	
1041.464	1	1	0	0	0.19281	0.22219	0.10406	0.10515	0.28087	0.1069	0.39487	0.19703	0.33536	0.28161	0.059507	0.11825	0.1094	0.23567	0.12293	0.088474	0.03125	0.375	0.20208	-0.27708	0.38958	-0.31458	-0.04375	0.475	-0.28333	0.4875	0.26458	-0.30833	0.45208	-0.05	-0.10625	0.41667	-17.188	88.382	248.159	196.952	-11.260	116.759	24.660	218.735	217.017	110.014	133.965	313.898	233.245	291.630	305.713	264.429	5.6164e-05	0.00075605	0.000245	540.1	9.3785e-06	8.643e-06	466.1	136.52	5.9476e-06	1.0905e-05	135.06	41.523	41.945	17.648	2.175e-06	18.787	0.0049397	0.0087428	0.0024168	593.43	9.1533e-05	9.7698e-05	489.14	145.33	8.8828e-05	9.9146e-05	152.07	47.794	49.76	19.767	9.5408e-05	21.643	225.973	58.140	196.736	-20.866	140.317	146.123	-21.230	-14.444	84.350	216.978	-17.739	-12.362	-9.703	-3.670	226.536	-7.936	-8191	255	
1041.561	1	1	0	0	0.11667	0.11922	0.29028	0.23878	0.14596	0.08956	0.12455	0.17741	0.25435	0.24899	0.27108	0.22405	0.01977	0.17893	0.30732	0.10419	0.17917	0.27708	0.36042	-0.26042	0.47708	-0.0020833	-0.14375	0.425	-0.15208	-0.014583	0.35208	-0.43125	0.28542	0.18542	-0.064583	0.42917	215.878	106.321	-27.813	228.706	308.609	139.213	139.457	52.348	184.403	262.665	211.932	256.968	170.422	222.160	-15.159	257.263	0.00014222	0.00062136	2.1345e-05	545.17	1.8853e-06	7.8851e-06	470.8	138.02	2.6835e-06	1.4221e-05	137.23	41.772	42.924	17.835	2.3983e-06	19.103	0.0052402	0.0091949	0.0025823	603.42	9.7224e-05	0.00010314	497.16	147.8	9.4189e-05	0.00010288	155.42	48.577	50.758	19.938	9.9885e-05	21.928	125.519	44.704	282.633	-20.368	116.607	34.775	-22.044	-14.621	156.568	156.526	-17.645	-12.251	-9.264	-4.038	-3.524	-8.314	-8191	255	
1041.679	1	1	0	0	0.32658	0.10131	0.21186	0.13257	0.1267	0.0771	0.21912	0.20435	0.098536	0.42431	0.05107	0.25785	0.20681	0.062219	0.12464	0.32612	0.18542	0.12292	0.4875	-0.22917	0.44583	0.089583	-0.28958	0.62292	-0.05625	0.10625	0.48333	-0.34583	0.22708	0.20625	-0.15625	0.57292	279.637	256.950	233.208	86.820	303.365	160.302	245.557	239.071	52.999	160.754	83.714	300.449	208.073	207.979	239.744	42.087	6.0921e-05	0.0011101	0.0002537	552.28	8.9394e-07	8.8367e-06	468.6	137.32	3.7442e-06	5.129e-06	136.57	41.086	42.54	17.433	1.0012e-05	18.636	0.0054922	0.0095162	0.0026978	608.47	0.00010022	0.00010773	497.15	147.79	9.7561e-05	0.00010752	154.75	47.881	50.212	19.678	0.00010451	21.589	168.793	240.684	28.635	-20.599	290.444	51.651	-21.454	-14.337	-15.442	165.393	-17.383	-12.921	-9.003	-4.362	36.760	-7.410	-8191	255	
1041.776	1	1	0	0	0.33035	0.17518	0.16715	0.13396	0.1747	0.12788	0.17331	0.34451	0.072206	0.05514	0.075295	0.30874	0.089889	0.025044	0.02289	0.14466	0.14167	0.022917	0.65625	-0.20208	0.425	0.34167	-0.4875	0.47917	-0.03125	-0.13125	0.275	-0.29792	0.35417	0.38333	-0.26458	0.34583	115.338	233.165	132.053	274.908	152.429	307.319	42.941	252.608	23.836	-22.378	-10.596	225.147	242.874	207.419	-1.266	160.053	0.00013764	0.00086613	0.0003228	547.29	4.0946e-06	5.6321e-06	472.93	137.49	6.0781e-06	2.2395e-06	136.57	40.971	42.137	17.666	6.1742e-06	18.702	0.0056212	0.0098182	0.0027693	609.87	0.00010402	0.00011057	499.98	148.04	9.8078e-05	0.00011004	155.57	48.12	50.399	19.887	0.00010596	21.79	135.299	140.349	304.093	-20.591	-2.392	283.715	-21.953	-14.569	179.033	105.627	-17.421	-12.725	-9.133	-4.208	134.510	-8.170	-8191	255	
1041.872	1	1	0	0	0.26945	0.29626	0.079592	0.12485	0.068307	0.22661	0.4501	0.11765	0.24115	0.16421	0.15549	0.21704	0.14902	0.10899	0.15846	0.11981	0.35833	-0.14375	0.67083	-0.19167	0.05625	0.34375	-0.28542	0.49792	0.14792	-0.11458	0.37708	-0.21458	0.12292	0.33125	-0.29583	0.34583	66.753	201.342	41.244	92.435	133.031	18.276	154.187	192.946	-25.999	134.290	-26.202	243.428	166.881	269.174	251.762	171.716	5.7918e-05	0.00089162	0.00012568	554.61	1.0668e-05	1.9892e-06	475.11	138.68	4.8492e-06	1.2143e-06	138.69	41.449	42.881	17.774	9.6398e-06	19.148	0.0056803	0.0099769	0.0027984	613.42	0.00010377	0.00011195	504.38	149.15	9.8774e-05	0.00010989	157.31	48.691	50.89	20.079	0.00010574	22.126	55.659	213.849	146.626	-20.431	67.790	139.457	-21.940	-13.971	201.997	-13.635	-17.516	-11.804	-9.218	-3.945	150.110	-8.625	-8191	255	
1041.968	1	1	0	0	0.14161	0.13879	0.18911	0.097963	0.11776	0.14236	0.31007	0.2218	0.14154	0.36707	0.29494	0.18635	0.11181	0.097902	0.076163	0.054983	0.43125	-0.13333	0.72708	-0.28333	-0.0625	0.3375	-0.3375	0.25833	0.13542	-0.18542	0.59167	0.079167	0.039583	0.44167	-0.21042	0.22917	304.417	214.806	55.911	140.705	30.706	246.292	327.900	322.090	32.898	271.210	248.017	179.332	7.970	218.763	79.929	25.455	3.2465e-05	0.00067604	0.00037162	560.38	9.1094e-06	5.3339e-06	475.47	138.7	1.101e-05	1.5272e-05	137.93	42.362	42.37	17.821	5.6794e-06	18.983	0.0056478	0.00986	0.0027904	613.81	0.00010283	0.00011174	503.49	148.73	9.6907e-05	0.00010793	156.85	49.009	50.604	20.015	0.0001022	21.915	157.480	110.685	318.373	-20.577	70.230	288.908	-21.652	-13.851	141.280	156.477	-17.160	-12.230	-9.020	-3.771	49.756	-7.587	-8191	255	
1042.064	1	1	0	0	0.18912	0.2692	0.18933	0.21248	0.22661	0.21945	0.084873	0.066849	0.25032	0.054274	0.086618	0.13817	0.13564	0.13731	0.25989	0.34067	0.5875	-0.125	0.55833	0.0875	-0.022917	0.64792	-0.31042	0.34583	0.43542	-0.28958	0.42083	-0.13958	-0.083333	0.51667	-0.22917	0.21875	-14.448	263.043	322.307	252.322	14.559	225.683	215.413	244.424	93.513	316.711	59.936	99.646	26.088	-14.144	185.548	241.996	0.00013355	0.00046802	0.00012312	538.76	8.4222e-06	5.4765e-06	467.45	137.58	8.0384e-07	5.5811e-06	134.17	40.864	41.418	17.58	1.1529e-06	18.655	0.0054468	0.0095	0.0026663	599.95	9.8247e-05	0.00010724	493.51	146.56	9.4117e-05	0.00010743	152.58	47.458	49.557	19.699	9.9513e-05	21.431	138.393	220.983	248.735	-20.348	158.403	158.632	-21.736	-14.358	126.518	298.945	-17.733	-12.592	-8.806	-3.640	175.806	-7.675	-8191	255	
1042.160	1	1	0	0	0.27067	0.21648	0.2296	0.23441	0.085166	0.018039	0.048336	0.33715	0.11773	0.20956	0.31344	0.20865	0.15057	0.11921	0.17696	0.12004	0.82292	-0.21042	0.3375	0.22708	-0.020833	0.51042	-0.27292	0.095833	0.50833	-0.28125	0.40625	0.25	-0.18542	0.43958	-0.125	-0.11875	163.401	192.588	91.045	294.479	280.478	77.219	86.737	294.991	100.039	67.169	6.396	325.168	-18.400	42.724	19.428	229.068	7.6842e-05	0.0001472	0.00030095	539.68	3.1674e-06	7.7993e-06	464.04	135.91	2.4593e-06	3.0687e-06	135.07	40.204	42.168	17.693	6.7212e-06	18.73	0.0054161	0.0094693	0.0026567	596.54	9.8322e-05	0.00010676	489.71	145.99	9.4769e-05	0.00010626	153.08	47.376	49.969	19.758	0.00010051	21.513	215.146	240.481	-13.464	-20.802	265.512	43.333	-21.449	-14.110	248.755	145.327	-16.839	-12.422	-9.648	-3.659	10.495	-8.139	-8191	255	
1042.281	1	1	0	0	0.3112	0.15797	0.11083	0.19085	0.072665	0.3984	0.21356	0.20299	0.1333	0.13152	0.13663	0.098969	0.12178	0.392	0.12796	0.095161	0.92292	-0.070833	0.36875	0.2	-0.22292	0.42083	-0.15	-0.095833	0.49167	-0.15417	0.14167	0.44583	-0.38125	0.375	-0.060417	-0.10625	190.018	276.807	64.384	140.202	194.888	183.067	19.337	76.138	285.828	89.535	41.426	261.543	69.870	326.273	44.816	159.350	0.00011619	0.00096964	0.00032997	540.98	7.433e-06	3.405e-06	469.35	137.23	4.1936e-06	8.156e-06	137.04	40.992	42.181	17.655	5.3999e-06	18.761	0.0055597	0.009853	0.0027301	604.11	0.00010245	0.00011191	497.55	147.76	9.9286e-05	0.00011067	155.55	48.045	50.63	19.961	0.00010589	21.844	117.310	18.301	142.797	-20.166	31.074	110.836	-21.766	-14.059	-14.243	27.063	-17.060	-11.868	-9.285	-3.852	51.134	-7.622	-8191	255	
1042.377	1	1	0	0	0.29853	0.10729	0.30762	0.16508	0.14276	0.073851	0.28513	0.061176	0.046996	0.16515	0.27304	0.30642	0.078709	0.17923	0.07352	0.27623	0.87292	-0.15208	0.11875	0.46042	-0.44792	0.27708	-0.047917	-0.05	0.63125	-0.35417	0.1875	0.31042	-0.17083	0.42917	0.225	-0.24167	144.868	-13.704	181.884	32.010	-14.565	-13.324	-12.063	227.809	205.782	75.630	288.829	43.650	213.227	12.667	210.927	235.640	0.00014084	0.00053517	0.00015638	553.05	2.8741e-07	6.9436e-06	479.74	138.48	7.645e-06	1.7918e-06	138.28	41.197	42.497	17.785	7.9049e-06	18.834	0.0058552	0.010318	0.0028374	620.4	0.00010868	0.00011712	511.21	150.66	0.00010458	0.00011704	158.52	48.835	51.488	20.146	0.0001124	22.079	208.492	96.051	323.021	-20.019	291.589	328.054	-21.420	-13.803	72.571	204.181	-17.493	-11.404	-9.838	-3.942	303.254	-8.239	-8191	255	
1042.471	1	1	0	0	0.25512	0.21276	0.26091	0.11454	0.11691	0.17729	0.12068	0.19633	0.075129	0.082949	0.10081	0.10488	0.18399	0.18125	0.035746	0.23642	0.90833	-0.11042	0.22292	0.4125	-0.20417	0.30833	0.12708	-0.18333	0.59375	-0.2625	-0.24375	0.51875	-0.31458	0.33542	0.48542	-0.3625	207.538	237.998	-24.825	229.659	301.830	-9.057	288.250	173.483	228.689	46.971	218.115	207.148	241.461	159.072	-4.291	236.154	2.246e-05	0.00061475	0.00014366	556.89	6.1314e-06	1.218e-05	480.65	140.64	3.9443e-06	7.5183e-06	139.09	40.725	42.461	17.603	6.5198e-06	18.336	0.0060827	0.01059	0.0029341	627.01	0.00011121	0.00011836	513.34	151.22	0.00010578	0.00011732	158.19	48.076	50.955	19.906	0.00011181	21.651	226.391	297.414	281.621	-20.196	198.218	126.384	-21.548	-13.535	204.894	63.321	-17.615	-12.596	-9.146	-4.343	98.405	-8.142	-8191	255	
1042.567	1	1	0	0	0.29308	0.062724	0.14965	0.14595	0.27965	0.21484	0.1987	0.13774	0.03395	0.17293	0.24832	0.29141	0.1384	0.23776	0.084566	0.091549	0.66667	-0.025	-0.05	0.57708	-0.29167	0.26458	0.55	-0.53125	0.39375	-0.083333	-0.066667	0.6875	-0.18333	0.24167	0.60208	-0.29167	259.727	198.443	257.931	71.296	-2.394	26.715	73.558	235.203	258.570	133.682	308.741	167.459	-22.510	291.321	2.476	135.466	0.00016235	0.0015939	0.00016394	558.02	9.1811e-06	3.6037e-06	477.64	139.62	2.7881e-06	4.421e-06	136.98	40.641	42.33	17.515	1.0638e-05	18.301	0.0060117	0.01045	0.0029351	623.91	0.00011014	0.00011687	508.55	150.35	0.00010437	0.00011528	157.41	47.998	50.839	19.919	0.00010903	21.489	175.365	244.274	203.353	-20.114	117.505	-1.540	-21.089	-13.844	100.270	201.466	-16.788	-11.397	-9.073	-3.586	145.756	-8.181	-8191	255	
1042.688	1	1	0	0	0.048626	0.19286	0.23902	0.17399	0.21721	0.056283	0.35761	0.15511	0.068679	0.051261	0.17353	0.21947	0.15982	0.1917	0.069854	0.13095	0.82083	0.2125	-0.13542	0.42292	-0.091667	0.15208	0.64375	-0.33125	0.5125	0.31458	-0.37917	0.3875	-0.14375	-0.05	0.38542	-0.31875	207.392	208.179	62.705	174.210	224.869	207.351	279.370	273.425	295.449	266.185	258.559	214.730	-12.807	282.408	295.612	-13.334	7.5678e-05	0.0008908	0.00021799	554.59	2.5591e-06	4.3053e-06	473.99	137.83	5.9574e-06	1.0804e-05	137.39	41.127	42.132	17.547	3.143e-06	18.687	0.0058387	0.010226	0.00287	616.72	0.00010512	0.00011228	504.39	148.08	9.7932e-05	0.00010709	155.36	47.683	49.965	19.728	9.9609e-05	21.48	169.226	312.967	71.728	-20.412	152.273	219.271	-21.613	-13.427	301.632	276.267	-17.022	-11.283	-9.199	-3.358	279.256	-7.613	-8191	255	
1042.760	1	1	0	0	0.14207	0.34871	0.057136	0.21045	0.16566	0.054119	0.10116	0.20912	0.27478	0.064648	0.38038	0.060888	0.22665	0.53567	0.11763	0.30204	0.76458	0.26458	-0.30208	0.46667	0.06875	-0.18542	0.50625	-0.38125	0.47708	0.26042	-0.37083	0.48333	0.010417	-0.085417	0.57083	-0.38333	37.140	201.235	191.935	298.686	200.378	-27.600	126.128	223.406	203.772	168.300	188.639	66.372	177.432	310.946	135.579	156.260	3.3873e-05	0.00057562	0.00025532	542.66	6.8066e-06	9.0074e-06	470.83	137.8	3.1238e-06	2.7632e-06	138.74	41.34	42.571	17.779	6.2666e-06	19.033	0.0052298	0.0091159	0.0025713	601.24	9.4598e-05	0.00010256	499.06	146.95	8.986e-05	0.00010093	155.4	48.041	50.069	19.91	9.9095e-05	21.768	142.195	76.415	83.474	-20.592	85.281	181.834	-20.972	-13.735	259.382	94.619	-17.192	-12.201	-9.366	-3.443	202.122	-7.761	-8191	255	
1042.856	1	1	0	0	0.32138	0.12577	0.14603	0.074481	0.11032	0.28627	0.18382	0.11634	0.358	0.13067	0.19335	0.24268	0.14367	0.1869	0.29888	0.15192	0.7	0.475	-0.16458	0.24792	0.20625	-0.1	0.41667	-0.26667	0.1125	0.5	-0.26667	0.49167	0.13958	-0.39792	0.52083	-0.11875	259.647	-24.825	154.684	310.585	274.752	135.830	-30.392	189.714	284.998	325.178	-2.037	239.664	96.073	285.741	207.503	239.557	5.1829e-05	0.00076644	0.0001808	544.45	8.109e-06	3.5379e-06	470.84	138.25	5.4729e-06	5.1431e-06	137.6	40.785	41.707	17.444	3.3364e-06	18.392	0.0053391	0.0094592	0.0026784	605.92	9.915e-05	0.00010788	501.72	148.23	9.6344e-05	0.00010856	155.91	47.466	49.873	19.768	0.00010384	21.294	186.636	151.301	56.039	-20.289	17.981	56.424	-21.027	-13.852	310.678	269.122	-16.695	-12.355	-8.902	-3.514	106.596	-7.298	-8191	255	
1042.952	1	1	0	0	0.090753	0.053975	0.024596	0.019776	0.14237	0.18937	0.30099	0.277	0.075545	0.26041	0.19793	0.24159	0.30063	0.18113	0.12976	0.25456	0.46875	0.37708	-0.25	0.4	0.375	-0.10833	0.31667	-0.0125	0.058333	0.3625	-0.052083	0.39583	0.2125	-0.25208	0.55	-0.22292	286.821	303.451	150.245	311.619	321.970	4.530	246.514	280.939	69.520	19.113	82.368	7.142	73.364	160.890	29.899	248.679	0.00010432	0.00042518	0.00011678	552.01	6.8605e-06	9.0786e-06	475.18	137.13	5.861e-06	7.6832e-07	137.29	39.603	41.67	17.433	1.0037e-06	18.234	0.005606	0.0099734	0.0028287	611.9	0.00010405	0.00011355	504.78	148.6	9.9502e-05	0.00011271	156.13	46.875	49.996	19.755	0.00010797	21.298	185.179	231.623	32.903	-20.647	195.943	113.433	-21.297	-13.933	155.509	326.054	-16.801	-11.869	-9.397	-3.950	97.171	-8.076	-8191	255	
1043.048	1	1	0	0	0.21072	0.11536	0.22874	0.022511	0.0897	0.060402	0.1712	0.035243	0.033382	0.35708	0.11522	0.21266	0.11104	0.39413	0.23584	0.26064	0.37708	0.51667	-0.21042	0.32708	0.37292	-0.34375	0.575	0.072917	-0.08125	0.58958	-0.054167	0.33125	0.36458	-0.3875	0.38333	-0.09375	5.540	154.432	140.927	255.496	169.606	111.086	121.328	166.494	195.914	169.145	26.678	146.219	33.423	-16.200	161.333	244.614	4.1583e-05	0.00062003	0.00036974	559.29	1.9906e-06	1.3378e-05	476.25	138.92	3.9084e-06	3.837e-06	137.34	40.088	41.204	17.364	6.8226e-06	18.18	0.0057959	0.01029	0.0028411	618.52	0.00010716	0.0001156	505.24	149.53	0.00010235	0.00011537	156.07	47.277	50.106	19.757	0.00010726	21.351	106.048	28.316	50.835	-20.018	47.895	215.218	-21.175	-13.575	80.724	267.031	-17.016	-11.945	-9.360	-3.397	73.513	-7.441	-8191	255	
1043.169	1	1	0	0	0.070114	0.095445	0.31904	0.20614	0.16082	0.29383	0.090709	0.20081	0.18768	0.081818	0.14234	0.20492	0.2482	0.12105	0.067409	0.098178	0.24167	0.6125	-0.16667	0.16667	0.46042	-0.37917	0.29583	0.020833	-0.35208	0.46458	-0.3125	-0.12083	0.43958	-0.33125	0.3125	0.085417	148.657	21.244	247.574	280.493	324.376	-9.722	274.741	304.877	121.418	22.964	106.381	36.379	222.153	-17.521	112.726	238.226	0.0001417	0.00022026	0.0001163	552.21	1.8307e-06	6.9951e-06	478.05	138.69	3.0105e-06	1.3273e-05	137.76	40.961	42.854	17.714	1.1726e-05	18.832	0.005799	0.010173	0.0027974	617.39	0.00010578	0.000114	505.1	149.39	9.9633e-05	0.000111	156.31	47.704	50.517	19.938	0.00010277	21.692	149.219	18.513	119.700	-20.557	215.302	196.977	-21.653	-13.782	118.801	274.795	-17.604	-11.872	-9.699	-3.463	161.314	-7.203	-8191	255	
1043.265	1	1	0	0	0.060003	0.1633	0.25631	0.21341	0.1016	0.063945	0.12565	0.1209	0.38082	0.26701	0.33669	0.24365	0.3551	0.46725	0.49489	0.251	-0.035417	0.57292	0.0041667	-0.17292	0.55833	-0.32083	0.32708	0.28333	-0.16458	0.34375	-0.045833	-0.16042	0.47083	-0.35208	0.19583	0.37292	-25.958	173.436	42.633	278.839	138.797	268.684	1.402	288.758	263.301	302.584	326.650	204.766	-18.231	-8.432	115.828	233.374	7.8253e-05	0.00024936	6.5136e-06	550.78	2.5544e-06	3.6615e-06	472.68	136.53	2.0538e-06	4.8593e-06	135.16	39.728	41.451	17.387	2.7888e-06	18.194	0.0056372	0.0097617	0.0027079	608.95	0.00010181	0.00010795	499.38	146.95	9.404e-05	0.00010449	152.32	46.556	49.091	19.518	9.6681e-05	20.95	131.949	-11.095	85.930	-20.431	22.930	0.874	-21.392	-13.528	76.227	205.955	-16.562	-11.775	-8.899	-3.494	192.948	-7.607	-8191	255	
1043.361	1	1	0	0	0.21695	0.19711	0.19112	0.18493	0.14352	0.32229	0.13795	0.13555	0.096989	0.03243	0.1801	0.1456	0.23278	0.07303	0.11875	0.1032	0.089583	0.27083	0.19167	-0.34375	0.44583	-0.14583	0.22292	0.43333	-0.09375	0.35625	0.19583	-0.11875	0.42292	-0.11875	0.072917	0.52708	251.380	-21.005	145.733	51.644	170.022	198.518	262.534	33.236	165.444	270.450	33.628	102.787	223.215	242.944	190.034	167.653	3.3644e-05	0.00024714	9.6957e-05	538.67	7.2385e-06	8.0038e-06	458.02	134.85	6.2812e-06	4.6947e-06	132.98	39.731	40.972	17.354	5.0852e-06	18.018	0.0052391	0.0091868	0.0025429	591.76	9.5414e-05	0.00010085	482.97	143.53	8.9053e-05	9.9559e-05	149.54	45.94	48.536	19.359	9.4919e-05	20.761	73.917	-27.696	284.859	-20.383	64.198	239.387	-21.254	-13.623	152.646	64.371	-17.169	-11.842	-8.717	-3.035	253.847	-7.681	-8191	255	
1043.457	1	1	0	0	0.1539	0.079827	0.090318	0.24795	0.12073	0.23655	0.090624	0.14231	0.10521	0.16927	0.12926	0.13225	0.18719	0.1477	0.13558	0.18962	0.052083	0.40417	0.25	-0.33542	0.57292	-0.19167	-0.06875	0.46875	-0.23125	0.60208	0.50417	-0.28125	0.47917	-0.15417	0.054167	0.45208	-15.480	110.427	144.965	300.624	-4.412	212.302	-13.259	283.281	260.581	71.818	307.115	269.363	268.451	259.304	326.940	311.602	6.5087e-05	0.00018975	0.00014404	538.2	8.4863e-06	3.928e-06	461.83	135.58	5.1704e-06	7.4678e-06	133.69	39.554	41.505	17.483	5.7252e-06	18.065	0.0051782	0.0090098	0.0025317	593.01	9.5748e-05	0.00010273	485.39	144.92	9.3185e-05	0.00010284	150.99	46.364	49.311	19.549	0.00010042	21.105	160.057	237.461	103.232	-20.297	192.233	57.171	-21.508	-13.887	30.960	125.797	-16.707	-12.799	-8.968	-3.775	284.393	-7.518	-8191	255	
1043.553	1	1	0	0	0.19283	0.2406	0.2771	0.14902	0.14872	0.063181	0.30818	0.074137	0.15172	0.093118	0.19519	0.13621	0.14946	0.25512	0.10977	0.15083	0.22708	0.29792	0.33958	-0.24583	0.47917	0.15417	-0.11458	0.47708	-0.19167	0.12917	0.36667	-0.37292	0.42708	0.033333	-0.27917	0.43542	285.555	44.433	94.579	-11.894	85.736	233.268	298.001	318.143	95.735	228.668	68.008	43.244	26.792	191.987	285.088	320.724	9.9402e-05	0.00046564	0.00036515	546.87	3.7638e-06	8.376e-06	471.73	137.44	1.4581e-06	3.9358e-06	137.59	40.495	41.727	17.598	4.3359e-06	18.497	0.0054846	0.0096038	0.0026859	606.72	0.00010247	0.00011023	501.32	148.45	9.9778e-05	0.00011112	156.26	47.554	50.371	19.967	0.00010861	21.557	185.953	116.993	24.116	-20.317	326.817	289.445	-21.421	-14.161	321.231	307.907	-17.246	-12.233	-8.966	-3.920	254.239	-8.051	-8191	255	
1043.650	1	1	0	0	0.36142	0.060787	0.15832	0.15068	0.094721	0.10371	0.23975	0.14953	0.084829	0.15861	0.17312	0.094012	0.27956	0.056356	0.30695	0.12941	-0.13542	0.11042	0.4875	-0.31667	0.49792	-0.016667	-0.475	0.41042	-0.12292	0.21667	0.36458	-0.30208	0.37917	0.11875	-0.21667	0.55417	302.267	216.598	295.188	212.129	208.881	92.545	275.367	91.772	112.711	275.865	317.143	319.746	174.753	122.224	77.307	38.600	9.4579e-05	0.00021672	0.00040063	557.69	5.1096e-06	7.8602e-06	480.03	139.47	2.2624e-06	1.6172e-06	136.95	39.564	41.892	17.495	6.0758e-06	18.053	0.0058172	0.01025	0.0029383	621.89	0.00010804	0.00011674	511.62	150.44	0.00010238	0.00011404	156.12	47.031	50.381	19.798	0.00010969	21.161	203.222	103.580	127.230	-20.124	191.599	174.896	-21.208	-13.944	325.201	158.939	-16.792	-11.963	-9.265	-3.238	160.623	-6.934	-8191	255	
1043.768	1	1	0	0	0.057513	0.17148	0.078654	0.039966	0.1866	0.22182	0.12105	0.046546	0.13436	0.13734	0.255	0.31518	0.064892	0.12227	0.25287	0.14587	0.12292	0.12292	0.55208	-0.18958	0.21875	0.27708	-0.26875	0.51667	0.014583	-0.085417	0.5125	-0.30208	0.21458	0.39792	-0.38125	0.43125	166.098	111.605	142.233	56.881	19.998	234.395	282.325	116.057	110.740	32.432	325.702	240.409	113.059	-24.301	273.842	61.513	9.9842e-05	0.00047699	0.0002364	554.2	6.5539e-06	8.0456e-06	479.32	137.95	2.2256e-06	4.5798e-07	135.83	39.427	41.825	17.473	9.0532e-06	18.078	0.0058091	0.010184	0.0028653	618.18	0.00010538	0.00011472	508.68	148.72	0.00010045	0.00011181	155.64	46.707	49.887	19.672	0.00010567	21.015	5.886	132.154	182.182	-19.662	40.181	99.000	-21.216	-13.622	139.310	-8.604	-16.925	-12.647	-8.569	-2.976	74.159	-7.908	-8191	255	
1043.865	1	1	0	0	0.02117	0.19337	0.063591	0.14725	0.044696	0.15515	0.077546	0.0092558	0.12744	0.056349	0.17915	0.15241	0.10063	0.10297	0.067279	0.094963	0.27708	-0.13333	0.59792	-0.29583	0.027083	0.41667	-0.41042	0.38333	0.045833	-0.18333	0.41875	-0.25833	0.052083	0.39792	-0.2875	0.39375	52.738	234.639	179.912	162.690	126.596	242.588	311.439	103.365	7.326	155.252	2.913	286.291	-5.714	-19.815	261.834	84.575	9.2242e-05	0.00038037	4.8714e-05	556.17	2.7273e-06	1.191e-05	476.31	137.69	4.3037e-06	5.1494e-06	137.88	40.312	42.29	17.628	4.7306e-06	18.211	0.0056245	0.0098993	0.002761	615.22	0.00010103	0.00010977	505.11	148.12	9.5674e-05	0.00010633	154.74	46.986	49.88	19.757	9.8565e-05	21.085	103.084	85.626	58.211	-20.051	224.944	236.975	-20.817	-13.526	141.516	48.814	-16.669	-11.902	-8.646	-3.075	198.483	-7.570	-8191	255	
1043.961	1	1	0	0	0.047466	0.25784	0.1902	0.31991	0.17793	0.087182	0.16273	0.1906	0.025055	0.11369	0.14846	0.084066	0.063639	0.45029	0.046039	0.37754	0.21875	-0.2875	0.675	-0.11875	-0.070833	0.3875	-0.40208	0.22708	0.0875	-0.32083	0.49167	0.1	-0.18125	0.33333	-0.13542	0.085417	33.227	227.882	-27.362	266.966	223.426	200.183	172.783	127.961	190.025	203.271	255.758	256.139	91.878	243.739	213.197	14.193	6.0517e-05	0.0010036	7.464e-05	552.32	1.9277e-06	7.3241e-06	479.48	137.67	1.1112e-06	2.8471e-06	138.81	41.414	42.554	17.824	3.246e-06	18.383	0.0053321	0.0093704	0.0025755	606.5	9.5487e-05	0.00010242	501.31	147.35	8.9862e-05	9.9214e-05	153.82	47.266	49.783	19.814	9.2114e-05	21.146	140.553	95.054	192.963	-19.911	39.523	124.349	-20.733	-13.288	320.589	96.527	-16.490	-12.082	-8.593	-3.026	197.360	-6.730	-8191	255	
1044.057	1	1	0	0	0.2265	0.18692	0.18253	0.094307	0.31357	0.17974	0.038729	0.13776	0.37296	0.27769	0.044286	0.29698	0.051988	0.17106	0.22041	0.13242	0.63333	-0.26667	0.66042	-0.0625	0.03125	0.5875	-0.54583	0.14792	0.18333	-0.40625	0.38125	-0.095833	-0.054167	0.52708	-0.13958	0.22292	260.727	130.952	290.163	328.651	176.969	110.906	266.183	236.537	250.311	73.443	-15.842	298.431	317.733	230.465	3.308	140.474	8.4576e-05	0.00047331	0.00019415	546.77	3.2882e-06	1.0435e-05	476.71	137.18	4.9813e-06	7.1055e-06	138.48	41.229	42.419	17.797	1.6967e-06	18.322	0.0050128	0.008813	0.002452	598.21	9.161e-05	9.7901e-05	498.06	146.54	8.8364e-05	9.7646e-05	153.99	47.318	49.759	19.721	9.4434e-05	20.999	94.803	243.604	226.919	-19.889	181.498	200.410	-20.696	-13.155	43.291	39.377	-16.481	-12.221	-9.255	-3.332	0.453	-7.822	-8191	255	
1044.153	1	1	0	0	0.083576	0.25483	0.18822	0.20738	0.1105	0.2647	0.28428	0.13609	0.23202	0.10418	0.15079	0.25255	0.10744	0.20257	0.14906	0.11982	0.81875	-0.45625	0.45	0.2	-0.13542	0.57917	-0.19375	-0.09375	0.27292	-0.42708	0.23125	0.24167	-0.41875	0.63333	-0.24167	0.12917	121.811	188.722	103.220	233.544	80.719	255.119	323.784	272.585	66.978	209.041	184.967	300.914	10.854	123.160	145.672	146.526	0.00013351	0.00037835	7.3293e-05	550.35	5.4295e-06	6.4476e-06	474.4	138.98	5.491e-06	8.1041e-06	135.12	39.719	42.479	17.632	6.1563e-06	17.935	0.0052498	0.0090482	0.002549	604.09	9.6736e-05	0.00010452	497.62	148.01	9.335e-05	0.00010355	153.24	46.441	49.688	19.704	9.9805e-05	20.765	155.927	57.589	47.436	-19.901	-21.707	73.994	-20.781	-13.810	35.867	84.061	-16.404	-11.750	-8.484	-3.614	81.610	-7.934	-8191	255	
1044.249	1	1	0	0	0.20289	0.24618	0.23366	0.2619	0.10423	0.19165	0.40327	0.075228	0.12962	0.19881	0.36076	0.071288	0.29671	0.29184	0.10129	0.044689	0.85	-0.44167	0.14375	0.21875	-0.32083	0.40625	-0.064583	-0.26042	0.56875	-0.20417	0.27083	0.44167	-0.3	0.34583	-0.21667	-0.35	242.209	83.328	-5.954	275.823	23.743	-19.563	234.266	231.116	265.610	123.246	27.984	226.841	279.804	319.699	313.860	58.729	4.3514e-05	0.00062817	0.00019636	550.71	4.2985e-06	5.2624e-06	477.48	138.64	6.3885e-06	3.7461e-06	138	39.704	42.217	17.273	3.3557e-06	17.927	0.0054157	0.0096399	0.0026616	614.41	0.00010112	0.00010893	503.83	149.28	9.7936e-05	0.00010848	155.07	46.743	49.868	19.692	0.00010467	20.959	78.021	292.575	105.585	-19.762	119.420	147.014	-20.768	-13.928	58.792	291.360	-17.112	-12.063	-9.283	-3.482	60.400	-7.731	-8191	255	
1044.345	1	1	0	0	0.10897	0.28214	0.05888	0.085881	0.065087	0.14756	0.28314	0.27332	0.075228	0.18972	0.17947	0.070728	0.22121	0.18115	0.22143	0.33696	0.85	-0.1125	0.052083	0.4375	-0.26667	0.50625	0.091667	-0.25	0.52083	-0.35	0.17708	0.38125	-0.2125	0.25625	0.24167	-0.41875	201.362	27.746	209.687	212.211	183.307	57.888	308.218	290.315	106.314	42.055	205.942	55.266	306.950	-21.265	326.068	21.541	0.00011752	0.00085179	7.5993e-05	559.92	7.925e-06	7.4033e-06	486.93	140.73	4.0036e-06	8.1028e-06	138.68	40.037	42.339	17.931	3.6958e-06	18.253	0.0056915	0.010001	0.0027974	621.76	0.00010591	0.00011216	514.1	151.48	0.00010121	0.00011093	157.84	47.204	50.923	20.101	0.00010725	21.387	179.469	39.166	145.383	-19.930	137.116	133.495	-21.155	-13.736	111.474	70.436	-16.929	-11.380	-9.288	-3.032	178.888	-6.814	-8191	255	
1044.464	1	1	0	0	0.14972	0.2908	0.13865	0.10482	0.13641	0.36474	0.35714	0.14762	0.03525	0.16404	0.048604	0.14431	0.26813	0.35864	0.18098	0.13871	0.91667	-0.11667	0.2875	0.56667	-0.40208	0.31458	0.12917	-0.40625	0.38333	0.058333	0.014583	0.59792	-0.14583	0.13958	0.20417	-0.29375	58.474	282.484	-0.001	38.035	18.747	141.358	268.205	290.874	286.897	112.561	142.567	22.724	-29.785	324.152	9.913	155.699	3.2036e-05	0.00098674	5.8482e-05	566.57	3.0905e-06	1.7244e-06	486.46	142.12	4.6922e-06	5.5888e-06	139.17	40.325	42.858	17.84	5.5182e-06	18.183	0.0058355	0.010221	0.0028338	629.52	0.00010622	0.00011357	515.98	152.52	0.00010169	0.00011303	158.55	47.519	50.828	20.042	0.0001077	21.128	80.263	179.396	22.653	-19.752	60.290	16.652	-21.165	-13.869	36.423	169.510	-17.228	-12.054	-8.565	-3.343	-15.050	-7.459	-8191	255	
1044.560	1	1	0	0	0.27449	0.24995	0.15245	0.2018	0.13325	0.12517	0.13364	0.13959	0.18286	0.2042	0.24065	0.058749	0.19728	0.12994	0.11896	0.047759	0.81042	0	0.0375	0.36458	-0.23333	0.03125	0.24792	-0.31042	0.47917	0.072917	-0.21042	0.45625	-0.45625	0.11667	0.45833	-0.55625	28.814	116.179	220.624	94.814	271.770	61.615	306.395	48.124	62.245	83.434	23.352	-26.808	308.633	178.382	182.949	98.894	0.00010317	0.00081657	0.00015419	567.83	1.0289e-05	7.2419e-06	486.64	139.95	1.4463e-06	2.8237e-06	137	39.465	42.056	17.672	8.7372e-06	17.647	0.0057578	0.010138	0.0028525	625.96	0.000105	0.00011271	511.6	150.76	9.9881e-05	0.00011172	156.42	46.455	50.297	19.828	0.00010604	20.85	179.189	22.117	137.569	-20.136	304.090	185.244	-21.410	-13.656	292.340	210.554	-16.558	-12.360	-9.190	-3.447	164.777	-6.954	-8191	255	
1044.634	1	1	0	0	0.17652	0.29027	0.022037	0.19536	0.066167	0.29521	0.33418	0.3148	0.032725	0.2797	0.23556	0.14977	0.25567	0.098395	0.31491	0.36458	0.85625	-0.11042	-0.23333	0.21875	-0.25	-0.0041667	0.37292	-0.2125	0.44167	0.072917	-0.20208	0.6375	-0.15833	0.0125	0.31458	-0.28125	226.245	201.861	50.524	183.268	96.887	66.619	294.066	295.630	9.371	323.152	109.555	57.694	283.039	91.064	4.756	123.106	0.00011179	0.00086653	0.00016665	558.85	1.3151e-06	1.9165e-05	481.4	140.25	1.651e-06	8.9022e-06	139.04	40.556	42.493	17.636	2.5033e-06	18.034	0.0056764	0.0099444	0.0027852	618.28	0.00010187	0.00010925	507.48	150.58	9.6182e-05	0.00010739	155.78	46.634	50.104	19.846	0.00010094	20.849	114.357	85.831	192.857	-19.892	293.119	178.993	-20.869	-13.034	112.327	192.895	-16.555	-11.281	-8.494	-2.982	327.174	-7.451	-8191	255	
1044.730	1	1	0	0	0.064122	0.20516	0.11061	0.25448	0.33752	0.21284	0.10597	0.028475	0.087382	0.2664	0.10791	0.19379	0.15381	0.11983	0.23158	0.10338	0.65208	0.18542	-0.19375	0.57917	-0.014583	-0.15417	0.575	-0.42708	0.35208	0.29167	-0.10625	0.89375	0.03125	-0.2	0.52083	-0.40208	134.479	-0.136	294.726	269.932	264.491	131.511	235.826	-25.658	-28.763	101.930	183.707	151.978	32.548	215.785	257.293	106.701	0.00014502	0.00056341	1.6287e-05	556.21	3.7362e-06	1.1061e-05	477.23	139.88	6.0342e-06	1.5918e-05	137.11	40.591	42.576	17.918	4.3327e-06	18.33	0.0053309	0.0094476	0.0026406	609.5	9.7404e-05	0.00010549	503.67	148.97	9.1008e-05	0.00010359	154.69	46.873	50.201	19.963	9.7012e-05	21.053	86.318	145.125	174.782	-20.097	64.248	124.179	-20.654	-13.017	294.208	69.233	-16.436	-11.627	-7.547	-2.687	4.028	-6.676	-8191	255	
1044.849	1	1	0	0	0.29973	0.19331	0.12616	0.080356	0.27723	0.086983	0.19374	0.14046	0.081689	0.12517	0.30566	0.18805	0.11207	0.023478	0.10886	0.1245	0.25208	0.44375	-0.34167	0.41875	0.010417	-0.16042	0.34792	-0.30208	0.25417	0.55417	-0.28333	0.45	0.19583	-0.22083	0.6375	-0.083333	-13.292	111.965	159.854	106.662	324.215	18.639	284.466	2.063	115.333	33.654	244.907	295.651	272.296	66.598	92.465	-15.993	0.00011441	0.0005836	0.00024096	557.07	4.6953e-06	8.1432e-07	479.12	139.72	2.3146e-06	4.1771e-06	136.84	40.154	42.299	17.778	3.5989e-06	17.958	0.0052127	0.0091883	0.0025587	609.4	9.5626e-05	0.00010385	502.06	148.89	9.0809e-05	0.00010167	153.83	46.45	49.521	19.689	9.3969e-05	20.594	116.614	3.830	114.010	-19.830	177.801	126.148	-20.856	-13.363	100.785	220.239	-16.430	-12.017	-8.355	-2.923	41.838	-7.707	-8191	255	
1044.945	1	1	0	0	0.14377	0.35516	0.13796	0.10815	0.19992	0.074513	0.047465	0.21348	0.15393	0.073453	0.17079	0.039441	0.031415	0.25171	0.20034	0.1045	0.53333	0.48958	-0.25417	0.46042	0.33125	-0.22083	0.50833	-0.052083	-0.041667	0.53958	-0.20625	0.36042	0.21042	-0.63333	0.55417	-0.2	151.122	70.089	305.842	75.514	231.466	293.146	263.786	313.602	70.611	-12.283	-20.379	156.659	319.774	29.250	-6.400	283.794	7.0048e-05	0.00054659	0.00012651	546.62	2.5428e-06	5.0997e-07	469.63	137.83	3.4864e-06	5.4107e-06	134.45	39.136	41.77	17.583	6.0388e-06	17.741	0.0051326	0.0089877	0.0024914	597.3	9.3097e-05	9.9605e-05	491.25	146.49	8.8899e-05	9.8661e-05	150.4	45.361	49.115	19.617	9.321e-05	20.251	141.831	170.926	144.665	-19.834	174.995	207.931	-20.654	-13.454	108.199	108.536	-16.620	-11.420	-8.352	-3.321	151.672	-7.592	-8191	255	
1045.041	1	1	0	0	0.22559	0.2132	0.13018	0.24422	0.1647	0.094995	0.25867	0.18844	0.22511	0.17538	0.057469	0.15858	0.14517	0.13368	0.12757	0.27252	0.16458	0.69792	-0.21667	0.22292	0.36042	-0.39167	0.37083	-0.11458	-0.20833	0.41875	-0.17292	0.25208	0.26458	-0.2625	0.33542	0.18125	307.738	69.986	248.628	68.098	314.241	-12.560	87.368	316.239	101.618	292.994	-28.100	7.684	228.316	36.383	319.613	120.928	0.00011069	0.00068101	0.00035065	541.35	5.6893e-08	5.5686e-06	468.97	139.69	5.0014e-06	6.8339e-06	135.22	39.153	41.974	17.649	1.0552e-06	17.539	0.0050776	0.008957	0.0024711	598.03	9.3213e-05	0.00010023	491.82	147.43	9.0335e-05	9.9347e-05	152.06	45.553	49.545	19.734	9.7137e-05	20.436	160.645	39.588	-4.062	-20.201	-8.044	300.550	-21.230	-13.560	138.043	130.926	-16.474	-11.356	-8.438	-3.083	49.028	-7.430	-8191	255	
1045.162	1	1	0	0	0.25727	0.23485	0.27889	0.064069	0.2228	0.20602	0.12357	0.16973	0.20454	0.21562	0.21057	0.15249	0.16488	0.069733	0.15643	0.25287	0.17083	0.56042	-0.27917	-0.03125	0.525	-0.38125	0.31667	0.175	-0.19375	0.49583	-0.12708	0.027083	0.43958	-0.4625	0.33542	0.33333	209.895	209.267	166.445	120.431	251.583	262.462	199.296	208.489	272.122	101.349	317.517	96.181	37.726	10.164	308.298	270.616	0.00011384	0.00047792	0.00018709	551.92	8.7648e-06	2.8172e-06	477.65	140.58	5.3424e-06	8.4557e-06	137.63	39.4	42.712	17.693	1.9091e-06	17.64	0.0053363	0.0093842	0.0026018	610.15	9.9194e-05	0.00010684	502.18	149.96	9.69e-05	0.00010823	154.79	46.165	50.39	19.875	0.00010363	20.748	215.513	102.477	-19.318	-19.456	132.924	316.294	-21.085	-12.953	149.245	113.155	-16.413	-11.539	-8.899	-2.875	123.690	-7.323	-8191	255	
1045.233	1	1	0	0	0.23616	0.061301	0.31767	0.10718	0.25355	0.14605	0.38158	0.2403	0.13172	0.032891	0.209	0.18478	0.13215	0.30688	0.33279	0.26117	0.1625	0.58125	0.020833	-0.060417	0.55208	-0.14792	0.17917	0.1625	-0.38542	0.26667	-0.04375	-0.25833	0.44167	-0.19583	0.15833	0.40625	282.890	265.549	-27.434	267.373	321.437	275.769	251.809	228.150	-28.513	272.985	29.789	31.964	-15.075	242.093	246.853	110.958	6.5407e-05	0.00021722	0.00032691	562.97	7.3357e-06	1.308e-05	483.06	141.08	2.0371e-06	1.1119e-05	138.07	39.045	42.657	17.715	1.7406e-06	17.566	0.0056736	0.0099429	0.0027891	623.56	0.00010573	0.00011348	512.57	151.91	0.00010197	0.00011283	156.94	46.226	50.711	19.959	0.00010757	20.718	145.266	-16.667	273.303	-19.992	113.693	43.254	-20.780	-13.714	158.157	157.764	-16.505	-12.045	-8.748	-2.808	103.461	-7.054	-8191	255	
1045.330	1	1	0	0	0.097719	0.24694	0.22132	0.15722	0.071147	0.20229	0.11905	0.17407	0.18646	0.070544	0.049331	0.21186	0.028043	0.30879	0.10105	0.27813	0.016667	0.51875	0.29792	-0.2875	0.65417	-0.16042	0.083333	0.325	-0.11875	0.37292	0.23125	-0.1375	0.56042	-0.23125	0.077083	0.50417	258.088	271.445	209.975	-24.878	4.384	64.683	90.054	270.908	184.351	72.529	229.644	191.222	-23.153	-22.067	164.569	178.647	1.1255e-05	0.0017417	0.00017193	566.78	2.6789e-06	2.5045e-06	485.27	141.63	2.4288e-06	9.542e-06	137.44	38.993	42.318	17.466	6.9506e-06	17.467	0.0058264	0.010114	0.0028654	627.73	0.00010671	0.00011542	513.96	152.07	0.00010233	0.00011311	156.04	45.85	50.266	19.844	0.00010651	20.488	93.185	13.945	41.110	-19.859	250.977	42.270	-21.579	-13.734	122.569	132.316	-16.656	-12.715	-9.446	-2.858	281.338	-7.286	-8191	255	
1045.450	1	1	0	0	0.097638	0.12513	0.18815	0.17709	0.39707	0.054196	0.047079	0.22247	0.21717	0.069632	0.25895	0.1386	0.1833	0.15952	0.18147	0.19518	0.15208	0.28958	0.22917	-0.32708	0.53333	-0.0020833	-0.041667	0.32292	-0.22708	0.37083	0.41042	-0.27708	0.54583	-0.14167	-0.12292	0.37083	303.359	102.772	9.895	322.501	214.963	148.435	129.284	300.002	100.921	135.023	285.641	31.348	129.761	9.078	65.855	279.675	7.815e-05	0.00046845	0.00014104	566.35	2.177e-06	6.141e-06	482.21	142.14	1.5382e-06	5.2027e-06	137.07	38.742	42.119	17.791	9.4671e-06	17.216	0.005646	0.010084	0.0028232	625.2	0.00010486	0.00011263	509.63	151.66	9.9272e-05	0.00011034	155.97	45.788	50.106	19.847	0.00010389	20.339	133.028	318.763	61.480	-19.688	146.165	63.137	-21.020	-13.349	1.247	257.608	-17.321	-11.859	-9.026	-2.610	92.034	-6.790	-8191	255	
1045.545	1	1	0	0	0.3141	0.11779	0.24445	0.15369	0.045549	0.20019	0.024722	0.027062	0.29893	0.21931	0.12181	0.27371	0.13921	0.37593	0.094435	0.20913	0.091667	0.20625	0.30417	-0.18542	0.33542	0.033333	-0.21042	0.61458	-0.45417	0.10625	0.5	-0.22917	0.31667	0.0083333	-0.26042	0.29583	129.000	265.148	-3.907	322.393	116.959	-30.434	95.509	308.212	138.019	245.991	271.653	56.168	194.787	-19.451	236.762	299.299	7.5804e-05	0.00075178	0.00017159	551.21	1.033e-05	6.5041e-06	475.06	139.06	5.7015e-06	2.1934e-06	135.2	38.812	42.013	17.504	4.4305e-06	17.358	0.0055468	0.0096998	0.0027419	614.39	9.9967e-05	0.00010771	501.4	148.61	9.4099e-05	0.00010551	153.15	45.424	49.404	19.634	9.819e-05	20.192	121.904	111.942	114.210	-19.950	275.982	28.502	-21.165	-13.263	69.716	292.169	-16.452	-11.992	-8.716	-2.442	64.195	-6.963	-8191	255	
1045.641	1	1	0	0	0.12698	0.26818	0.21679	0.089705	0.23318	0.1881	0.080177	0.099887	0.22231	0.14866	0.070217	0.17937	0.099908	0.21213	0.2201	0.25797	0.2375	0.16667	0.57708	-0.36458	0.14167	0.17917	-0.31042	0.60208	0.12292	0.12292	0.32083	-0.28333	0.36458	0.2375	-0.32917	0.50417	101.150	22.709	-28.400	136.273	101.770	313.133	2.670	84.753	139.419	225.344	176.010	-17.164	221.276	1.804	173.539	132.585	4.5852e-05	0.00095606	0.0001219	549.35	1.7302e-06	5.6576e-06	475	139.54	3.615e-06	6.8642e-06	135.51	39.253	42.593	17.64	6.5596e-06	17.481	0.0052073	0.0091434	0.0025594	603.61	9.486e-05	0.00010161	496.66	147.81	8.8515e-05	0.00010046	151.92	45.54	49.675	19.775	9.5956e-05	20.216	92.156	41.364	3.505	-19.825	82.444	123.342	-20.889	-13.194	252.044	225.916	-15.991	-10.703	-7.616	-2.121	131.064	-6.884	-8191	255	
1045.761	1	1	0	0	0.2443	0.10727	0.25146	0.082693	0.28166	0.081763	0.082246	0.23557	0.05123	0.087264	0.20867	0.22688	0.12072	0.19919	0.16698	0.21718	0.37708	0.11875	0.6625	-0.19583	0.20833	0.4125	-0.30625	0.57708	0.016667	-0.0041667	0.56458	-0.37708	0.020833	0.26042	-0.22083	0.42708	274.227	233.794	164.409	266.997	167.120	134.899	287.610	311.285	84.690	32.004	321.319	297.075	30.633	211.313	-16.294	254.267	0.00010266	0.00049883	3.4748e-05	551.88	2.5625e-06	4.573e-06	470.68	138.76	7.7712e-06	1.3281e-05	134.72	39.101	42.51	17.766	3.2896e-06	17.373	0.0051702	0.0090016	0.0025142	604.25	9.2304e-05	0.00010129	494.93	147.76	8.9408e-05	9.959e-05	151.92	45.163	49.621	19.79	9.6222e-05	20.167	153.838	197.990	176.491	-19.910	90.264	84.955	-20.687	-12.564	121.095	262.049	-16.038	-11.558	-8.423	-3.535	125.085	-8.096	-8191	255	
#DATA ENDS
