BOXY.EXE: ISS Imagent and Oximeter Data Acquisition Program Version 0.80
Ascii Record File

#ACQ INFORMATION
2  Detector Channels 
16  External MUX Channels 
1  Auxiliary Channels 
5000  Waveform (CCF) Frequency (Hz)
1  Waveforms Skipped 
30  Waveforms Averaged 
1  Cycles Averaged 
16  Acquisitions per Waveform 
10.0806  Updata Rate (Hz) 

#FILE INFORMATION
TRUE -- External MUX Channel results are PARSED.
FALSE -- AC DC and Phase are NOT grouped.
TRUE -- Companion Program Settings File CREATED.
FALSE -- AC data not excluded
FALSE -- DC data not excluded
FALSE -- Phase data not excluded
FALSE -- Auxillary Chn. data not excluded
Tab delimiters

#CALIBRATION STATE
TRUE -- Waveform Calibration Values APPLIED.


#AUX CALIBRATION VALUES
Val Type	aux-1	

Term	1.0000e+00	
Factor	0.0000e+00	


#WF CALIBRATION VALUES
A = Detector Channel
Val Type	A-AC1	A-AC2	A-AC3	A-AC4	A-AC5	A-AC6	A-AC7	A-AC8	A-AC9	A-AC10	A-AC11	A-AC12	A-AC13	A-AC14	A-AC15	A-AC16	A-DC1	A-DC2	A-DC3	A-DC4	A-DC5	A-DC6	A-DC7	A-DC8	A-DC9	A-DC10	A-DC11	A-DC12	A-DC13	A-DC14	A-DC15	A-DC16	A-Ph1	A-Ph2	A-Ph3	A-Ph4	A-Ph5	A-Ph6	A-Ph7	A-Ph8	A-Ph9	A-Ph10	A-Ph11	A-Ph12	A-Ph13	A-Ph14	A-Ph15	A-Ph16	

Term	0.00000e+00	0.00000e+00	0.00000e+00	0.00000e+00	0.00000e+00	0.00000e+00	0.00000e+00	0.00000e+00	0.00000e+00	0.00000e+00	0.00000e+00	0.00000e+00	0.00000e+00	0.00000e+00	0.00000e+00	0.00000e+00	0.00000e+00	0.00000e+00	0.00000e+00	0.00000e+00	0.00000e+00	0.00000e+00	0.00000e+00	0.00000e+00	0.00000e+00	0.00000e+00	0.00000e+00	0.00000e+00	0.00000e+00	0.00000e+00	0.00000e+00	0.00000e+00	0.00000e+00	0.00000e+00	0.00000e+00	0.00000e+00	0.00000e+00	0.00000e+00	0.00000e+00	0.00000e+00	0.00000e+00	0.00000e+00	0.00000e+00	0.00000e+00	0.00000e+00	0.00000e+00	0.00000e+00	0.00000e+00	
Factor	1.00000e+00	1.00000e+00	1.00000e+00	1.00000e+00	1.00000e+00	1.00000e+00	1.00000e+00	1.00000e+00	1.00000e+00	1.00000e+00	1.00000e+00	1.00000e+00	1.00000e+00	1.00000e+00	1.00000e+00	1.00000e+00	1.00000e+00	1.00000e+00	1.00000e+00	1.00000e+00	1.00000e+00	1.00000e+00	1.00000e+00	1.00000e+00	1.00000e+00	1.00000e+00	1.00000e+00	1.00000e+00	1.00000e+00	1.00000e+00	1.00000e+00	1.00000e+00	X	X	X	X	X	X	X	X	X	X	X	X	X	X	X	X	

B = Detector Channel
Val Type	B-AC1	B-AC2	B-AC3	B-AC4	B-AC5	B-AC6	B-AC7	B-AC8	B-AC9	B-AC10	B-AC11	B-AC12	B-AC13	B-AC14	B-AC15	B-AC16	B-DC1	B-DC2	B-DC3	B-DC4	B-DC5	B-DC6	B-DC7	B-DC8	B-DC9	B-DC10	B-DC11	B-DC12	B-DC13	B-DC14	B-DC15	B-DC16	B-Ph1	B-Ph2	B-Ph3	B-Ph4	B-Ph5	B-Ph6	B-Ph7	B-Ph8	B-Ph9	B-Ph10	B-Ph11	B-Ph12	B-Ph13	B-Ph14	B-Ph15	B-Ph16	

Term	0.00000e+00	0.00000e+00	0.00000e+00	0.00000e+00	0.00000e+00	0.00000e+00	0.00000e+00	0.00000e+00	0.00000e+00	0.00000e+00	0.00000e+00	0.00000e+00	0.00000e+00	0.00000e+00	0.00000e+00	0.00000e+00	0.00000e+00	0.00000e+00	0.00000e+00	0.00000e+00	0.00000e+00	0.00000e+00	0.00000e+00	0.00000e+00	0.00000e+00	0.00000e+00	0.00000e+00	0.00000e+00	0.00000e+00	0.00000e+00	0.00000e+00	0.00000e+00	-1.12232e+02	-1.31493e+02	-1.26301e+02	-1.82925e+02	-6.61961e+01	-6.93729e+01	-1.56697e+02	-1.62015e+02	-6.64507e+01	-6.47760e+01	-1.69789e+02	-1.71884e+02	-1.87016e+02	-1.77077e+02	-6.21522e+01	-1.49516e+02	
Factor	1.55884e-05	1.50606e-04	4.28834e-05	2.77585e-01	1.30341e-06	1.75495e-06	1.60847e-01	4.74421e-02	1.05426e-06	1.60286e-06	8.23926e-02	2.73325e-02	3.04750e-02	8.53322e-03	1.33339e-06	1.20591e-02	1.05579e-05	1.86671e-05	5.21731e-06	1.46876e-01	1.94660e-07	2.09585e-07	8.03013e-02	2.53644e-02	1.85624e-07	2.07253e-07	4.25778e-02	1.42240e-02	1.63516e-02	4.59333e-03	1.96714e-07	6.29039e-03	X	X	X	X	X	X	X	X	X	X	X	X	X	X	X	X	



#DISTANCE SETTINGS
A = Detector Channel
A-1	A-2	A-3	A-4	A-5	A-6	A-7	A-8	A-9	A-10	A-11	A-12	A-13	A-14	A-15	A-16	

2.5000e+00	3.0000e+00	2.5000e+00	3.0000e+00	2.0000e+00	3.0000e+00	1.5000e+00	3.0000e+00	3.0000e+00	3.0000e+00	3.0000e+00	3.0000e+00	3.0000e+00	3.0000e+00	1.5000e+00	3.0000e+00	

B = Detector Channel
B-1	B-2	B-3	B-4	B-5	B-6	B-7	B-8	B-9	B-10	B-11	B-12	B-13	B-14	B-15	B-16	

1.0000e+01	1.0000e+01	1.0000e+01	1.4400e+00	1.0000e+01	1.0000e+01	1.5100e+00	1.9400e+00	1.0000e+01	1.0000e+01	1.9900e+00	2.4900e+00	2.4100e+00	2.9000e+00	1.0000e+01	2.9800e+00	




#DATA BEGINS
time	group	step	mark	flag	A-AC1	A-AC2	A-AC3	A-AC4	A-AC5	A-AC6	A-AC7	A-AC8	A-AC9	A-AC10	A-AC11	A-AC12	A-AC13	A-AC14	A-AC15	A-AC16	A-DC1	A-DC2	A-DC3	A-DC4	A-DC5	A-DC6	A-DC7	A-DC8	A-DC9	A-DC10	A-DC11	A-DC12	A-DC13	A-DC14	A-DC15	A-DC16	A-Ph1	A-Ph2	A-Ph3	A-Ph4	A-Ph5	A-Ph6	A-Ph7	A-Ph8	A-Ph9	A-Ph10	A-Ph11	A-Ph12	A-Ph13	A-Ph14	A-Ph15	A-Ph16	B-AC1	B-AC2	B-AC3	B-AC4	B-AC5	B-AC6	B-AC7	B-AC8	B-AC9	B-AC10	B-AC11	B-AC12	B-AC13	B-AC14	B-AC15	B-AC16	B-DC1	B-DC2	B-DC3	B-DC4	B-DC5	B-DC6	B-DC7	B-DC8	B-DC9	B-DC10	B-DC11	B-DC12	B-DC13	B-DC14	B-DC15	B-DC16	B-Ph1	B-Ph2	B-Ph3	B-Ph4	B-Ph5	B-Ph6	B-Ph7	B-Ph8	B-Ph9	B-Ph10	B-Ph11	B-Ph12	B-Ph13	B-Ph14	B-Ph15	B-Ph16	aux-1	digaux	

1002.593	1	1	0	256	0.1634	0.30056	0.22377	0.096961	0.10058	0.10757	0.28559	0.23359	0.049229	0.0072973	0.21427	0.091325	0.077819	0.29303	0.03056	0.21375	0.80417	-0.12292	0.65417	-0.1125	-0.43542	0.54167	-0.28333	0.085417	0.57292	-0.44375	0.38125	0.24792	-0.19792	0.51458	-0.11042	0.17917	131.938	106.619	166.874	-24.913	18.605	110.933	43.285	206.331	100.033	21.957	58.103	14.495	167.096	-5.996	18.757	195.791	0.00011863	0.00064738	2.1375e-05	939.25	5.1424e-06	1.2968e-05	645.84	222.22	4.3852e-06	9.7323e-06	176.69	56.832	73.201	27.355	6.7068e-06	23.613	0.0081835	0.01438	0.0039797	1019.4	0.00014907	0.00015911	689.14	237.44	0.00014132	0.00015858	204.52	67.221	84.613	30.455	0.00014773	27.79	179.241	114.481	287.388	-20.501	196.882	71.679	-21.630	-14.825	163.582	147.762	-17.876	-12.768	-10.131	-4.763	166.980	-8.478	-8191	255	
1002.690	1	1	0	0	0.080103	0.10939	0.13905	0.30509	0.19404	0.18578	0.37605	0.2263	0.069603	0.24764	0.18193	0.18713	0.26486	0.031973	0.30026	0.092424	0.79583	-0.19375	0.52708	-0.097917	-0.1625	0.35625	-0.24375	0.035417	0.49375	-0.28333	0.11667	0.19167	-0.48542	0.50625	-0.1	-0.13542	73.141	263.242	283.649	225.258	301.742	190.274	-17.870	221.081	317.823	120.468	-14.234	271.247	295.450	291.427	-17.674	30.643	0.00011966	0.00060834	0.00022119	952.07	4.6078e-06	1.5439e-05	659.84	228.25	3.3324e-06	7.2344e-06	182.3	58.936	74.269	27.257	2.7277e-06	23.601	0.0081047	0.014082	0.0039131	1033.2	0.00014851	0.00015738	702.53	242.1	0.00013989	0.00015618	208.73	68.699	85.611	30.419	0.00014754	27.879	117.880	315.362	85.321	-20.681	150.012	302.884	-21.177	-14.947	109.977	-22.163	-18.047	-13.175	-10.267	-4.732	68.052	-8.609	-8191	255	
1002.761	1	1	0	0	0.059936	0.18793	0.16309	0.13229	0.020838	0.26104	0.23823	0.20856	0.15818	0.26365	0.2816	0.10833	0.13092	0.13645	0.17147	0.22293	0.86667	-0.21875	0.095833	0.18333	-0.32708	0.35	-0.15208	-0.14167	0.51042	-0.25208	0.11667	0.56667	-0.35625	0.19375	0.058333	-0.2	210.738	202.455	217.749	200.507	288.974	297.992	165.841	-0.043	269.908	194.380	19.245	290.833	83.913	178.093	53.385	181.626	9.5711e-05	0.00053358	0.00032507	954.14	3.376e-06	1.6524e-05	676.02	228.72	5.1534e-06	9.7543e-06	185.06	58.32	73.528	27.081	5.7755e-06	23.612	0.008093	0.013862	0.0038961	1039.4	0.00014592	0.00015569	713.83	243.16	0.0001375	0.00015197	210.4	67.992	84.758	30.167	0.00014348	27.712	60.065	109.872	74.434	-20.506	37.958	128.022	-21.603	-14.981	91.418	75.875	-17.679	-12.781	-9.730	-4.435	10.331	-7.848	-8191	255	
1002.857	1	1	0	0	0.065857	0.31666	0.12734	0.32368	0.13683	0.24002	0.18963	0.26104	0.10431	0.15938	0.28481	0.17137	0.44764	0.081239	0.19056	0.23065	1.0042	-0.21875	0.225	0.36042	-0.33958	0.36042	0.13125	-0.1875	0.31042	-0.33125	0.070833	0.34375	-0.43125	0.23542	0.21667	-0.34167	49.708	160.666	232.847	45.133	109.557	-7.529	260.545	316.682	306.051	201.306	-25.172	158.109	-19.699	282.895	83.201	278.224	8.5531e-05	0.0012034	0.00017552	961.58	5.1524e-06	7.842e-06	669.16	229.5	1.4102e-06	9.7132e-06	186.03	57.469	73.92	27.146	6.1751e-06	22.993	0.0077859	0.013405	0.0037474	1034.4	0.00013946	0.00014981	708.44	243.09	0.000134	0.00014832	209.1	66.868	84.493	29.869	0.00014058	26.969	98.173	6.361	60.840	-20.260	37.021	171.135	-21.172	-14.859	-7.384	-26.665	-17.836	-12.565	-9.897	-4.266	116.233	-8.213	-8191	255	
1002.978	1	1	0	0	0.090919	0.14033	0.30982	0.12753	0.0024673	0.14896	0.095112	0.1047	0.25412	0.1459	0.10007	0.088307	0.37109	0.19304	0.31557	0.2032	0.79792	-0.1625	-0.022917	0.58958	-0.39583	0.37083	0.19167	-0.49167	0.55833	-0.020833	-0.18958	0.55417	-0.54375	0.0020833	0.39375	-0.36458	171.170	4.999	202.499	299.270	211.821	156.720	149.392	291.236	49.618	125.771	65.435	206.273	321.107	192.369	-22.320	268.645	0.00014144	0.00025263	0.00035497	956.55	8.4777e-06	4.2684e-06	667.71	231.8	2.5524e-06	4.8098e-06	186.43	58.699	74.218	27.428	1.2448e-05	23.362	0.0075153	0.013106	0.0036509	1030.7	0.0001356	0.00014467	702.96	243.74	0.0001274	0.00014192	208.51	66.913	84.247	30.071	0.00012878	27.199	128.107	59.364	28.537	-19.754	319.552	215.289	-21.410	-14.316	70.405	315.044	-17.473	-12.894	-9.801	-4.278	183.936	-7.631	-8191	255	
1003.074	1	1	0	0	0.060869	0.21785	0.12259	0.14335	0.18735	0.12002	0.070464	0.22181	0.13349	0.24488	0.24847	0.10011	0.032309	0.23847	0.2735	0.3848	0.74375	0.10208	-0.28958	0.48542	-0.1625	0.13333	0.31458	-0.39792	0.42917	0.054167	-0.21042	0.38958	-0.22292	0.075	0.30833	-0.25208	77.770	256.946	181.526	300.639	268.611	236.938	7.415	201.483	155.944	-23.184	246.768	295.883	159.152	326.199	89.123	263.125	7.4927e-05	0.000887	0.00023896	985.9	5.6416e-06	6.0584e-06	705.48	243.6	3.5212e-06	2.258e-06	199.88	62.24	79.09	29.055	7.6203e-06	25.164	0.006847	0.011946	0.0033087	1043.5	0.00012062	0.00012999	732.39	253.62	0.00011022	0.00012327	219.72	69.609	87.783	31.152	0.00011106	28.03	173.569	-4.838	59.459	-20.074	-29.782	96.017	-21.353	-14.628	32.456	68.351	-17.705	-12.593	-9.759	-4.303	312.305	-8.173	-8191	255	
1003.170	1	1	0	0	0.17754	0.049498	0.16223	0.2008	0.1687	0.082646	0.095082	0.17444	0.35444	0.12669	0.2105	0.15959	0.17014	0.075393	0.13253	0.19866	0.73542	0.14167	-0.28542	0.425	-0.089583	0.054167	0.42083	-0.40208	0.52292	0.43125	-0.15833	0.55625	-0.10208	-0.058333	0.55208	-0.29375	191.621	95.446	156.495	208.187	184.686	202.966	152.911	248.966	240.841	73.799	60.725	322.413	283.281	57.140	168.232	279.250	6.0831e-05	0.00063051	0.00042259	1016.2	8.647e-06	5.4941e-06	735.56	260.48	2.0974e-06	7.7502e-06	215.17	65.855	84.307	30.245	4.5598e-07	25.749	0.0058236	0.010282	0.0028263	1063.5	0.0001042	0.00011114	759.09	268.44	9.5501e-05	0.00010606	230.44	72.136	90.704	32.06	0.00010028	28.377	163.712	82.214	72.171	-20.370	180.945	48.000	-21.404	-14.527	293.586	308.063	-17.377	-12.706	-10.003	-4.656	-32.101	-8.532	-8191	255	
1003.267	1	1	0	0	0.09152	0.20742	0.029858	0.16338	0.11159	0.26567	0.010283	0.19555	0.062019	0.27906	0.13933	0.39988	0.085753	0.097688	0.037027	0.045448	0.65	0.275	-0.06875	0.33542	-0.29375	-0.066667	0.49167	-0.30208	0.275	0.32292	-0.39792	0.57708	-0.01875	-0.2	0.4	-0.27917	-28.201	255.991	24.042	291.954	34.179	3.596	295.136	303.773	248.929	310.664	216.319	287.933	306.516	132.835	-13.341	299.680	0.00017494	0.00027728	0.00015042	1033.8	2.1815e-06	4.2957e-06	752.94	268.19	4.4001e-06	1.0287e-05	215.93	66.21	83.694	30.138	6.0463e-06	25.759	0.0053994	0.0095075	0.0026191	1074.4	9.9238e-05	0.00010691	774.08	274.71	9.5805e-05	0.00010716	233.06	72.643	90.984	32.055	0.00010356	28.611	103.924	263.813	72.131	-20.058	105.179	324.548	-21.228	-14.642	303.479	161.267	-17.498	-12.369	-9.357	-4.292	128.906	-8.173	-8191	255	
1003.363	1	1	0	0	0.07907	0.32876	0.36479	0.18701	0.091334	0.20156	0.16906	0.38435	0.29181	0.16805	0.22495	0.1977	0.21595	0.22831	0.24748	0.2337	0.48125	0.46042	-0.4	0.17917	0.077083	-0.19167	0.35625	-0.10625	0.020833	0.41042	-0.39167	0.37708	0.20417	-0.20833	0.5	-0.24792	207.563	22.931	321.676	11.506	237.841	283.264	272.100	261.657	87.671	289.546	253.761	241.259	238.771	240.442	118.117	259.944	0.00010075	0.00012388	0.00021217	1036.2	7.0068e-06	7.7895e-06	756.74	268.44	8.4899e-07	8.497e-06	219.65	67.228	84.825	30.855	5.1775e-06	26.472	0.0055767	0.0097964	0.0027348	1081.6	0.00010213	0.0001112	773.41	275.28	9.8385e-05	0.00011015	235.8	73.495	92.185	32.657	0.00010528	29.3	200.531	298.886	280.753	-20.010	151.211	156.482	-21.122	-14.345	118.162	131.384	-17.381	-12.316	-9.528	-4.050	2.757	-7.731	-8191	255	
1003.459	1	1	0	0	0.065654	0.16571	0.12084	0.13396	0.20613	0.19299	0.23945	0.16221	0.27223	0.089689	0.12548	0.16473	0.072364	0.11244	0.29822	0.069599	0.44167	0.44375	-0.34167	0.24583	0.275	-0.29583	0.37708	-0.23958	-0.047917	0.53958	-0.25	0.066667	0.21667	-0.48958	0.60833	-0.079167	-5.763	46.776	59.102	40.927	-23.446	56.601	215.093	176.433	108.514	188.249	282.711	184.100	287.179	257.325	209.803	79.916	0.00017563	0.00031752	0.00013918	1044.2	6.7888e-07	8.0801e-06	765.04	270.9	5.0957e-06	5.4045e-06	223.27	68.034	85.78	31.094	5.6693e-06	26.831	0.0057577	0.010163	0.0028298	1090.9	0.00010638	0.0001136	784.92	278.78	0.00010086	0.00011089	238.63	74.786	93.435	32.982	0.0001028	29.532	165.224	104.504	104.525	-19.869	210.277	194.316	-20.913	-14.107	119.373	106.003	-17.120	-12.514	-9.455	-4.415	138.689	-7.673	-8191	255	
1003.555	1	1	0	0	0.3008	0.22039	0.23781	0.086995	0.29382	0.16595	0.023472	0.2507	0.1808	0.088429	0.26541	0.17488	0.084592	0.25662	0.13957	0.13584	0.27292	0.64583	-0.25625	-0.085417	0.39167	-0.50208	0.23958	0.12917	-0.28125	0.675	-0.3375	0.01875	0.46458	-0.45625	0.4375	0.05625	164.112	23.860	35.838	183.791	20.125	293.557	261.211	276.900	167.523	50.469	160.954	54.867	235.867	-5.011	-31.230	220.278	0.00017116	0.00081266	0.00019468	1046	3.1498e-06	1.3544e-05	766.74	276.97	1.0605e-05	8.0902e-06	225.7	69.576	88.234	31.871	1.0888e-05	26.891	0.0055785	0.0097018	0.0026681	1090.1	0.00010052	0.00010594	784.08	282.5	9.2212e-05	0.00010205	239.61	75.227	94.723	33.396	8.9444e-05	29.1	162.456	90.434	57.488	-19.579	10.653	-7.502	-20.891	-14.058	117.226	89.157	-17.328	-12.410	-9.276	-4.026	164.462	-7.868	-8191	255	
1003.674	1	1	0	0	0.22133	0.23576	0.14402	0.19213	0.23325	0.13983	0.22579	0.37523	0.24449	0.17616	0.13552	0.0896	0.22581	0.26405	0.20069	0.1924	0.25208	0.41875	-0.19375	-0.06875	0.57292	-0.40208	0.18958	0.083333	-0.42292	0.47292	-0.05	-0.175	0.48958	-0.29167	0.31458	0.23958	201.563	14.301	129.308	222.793	231.519	173.766	0.203	253.785	305.773	168.588	323.574	247.944	22.876	316.909	128.016	253.775	4.7887e-05	0.00093675	0.0001197	1048.2	2.3513e-06	4.0064e-06	744.88	282.03	3.4608e-06	9.1711e-06	226.47	70.189	93.452	33.36	4.444e-06	26.221	0.0047477	0.0081115	0.0022398	1072.6	8.1466e-05	8.5171e-05	757.1	285.71	7.2832e-05	7.8842e-05	234.91	74.248	97.663	34.511	7.0505e-05	27.9	321.248	19.724	288.209	-19.549	109.031	24.324	-21.696	-14.332	135.233	90.228	-16.967	-12.261	-8.683	-3.484	134.089	-7.438	-8191	255	
1003.770	1	1	0	0	0.10509	0.10899	0.17199	0.21396	0.26126	0.23892	0.15555	0.081831	0.086894	0.37065	0.15562	0.3645	0.1777	0.086542	0.22674	0.258	0.13125	0.49792	0.05625	-0.21042	0.63958	-0.24167	0.097917	0.29792	-0.2875	0.34583	-0.17708	-0.52083	0.39375	-0.39167	0.1625	0.39583	-6.781	290.252	70.967	106.978	77.991	8.377	162.831	321.372	215.231	7.990	145.058	3.385	305.520	324.640	195.709	240.913	0.000196	0.00041892	4.6659e-05	1033.5	5.2755e-06	1.0054e-05	731.8	287.3	1.2177e-06	1.1686e-05	225.5	70.367	93.154	33.675	2.202e-06	26.678	0.0038796	0.0066589	0.0018548	1050.8	6.9771e-05	7.3983e-05	739.13	288.08	6.714e-05	7.5248e-05	234.38	74.484	97.943	34.724	7.507e-05	28.602	146.825	324.235	297.554	-19.621	243.349	115.728	-20.599	-13.313	215.048	119.325	-16.600	-11.887	-8.582	-3.368	102.474	-7.471	-8191	255	
1003.866	1	1	0	0	0.3545	0.1812	0.23677	0.1953	0.25383	0.14577	0.10971	0.28066	0.15018	0.3848	0.17054	0.1102	0.034634	0.28365	0.22075	0.097105	0.0875	0.2375	-0.11458	-0.27292	0.57708	-0.33125	-0.275	0.36042	-0.44375	0.21458	0.19583	-0.30208	0.34375	-0.24167	-0.11875	0.32083	66.908	259.285	159.551	-28.228	323.471	151.347	230.747	265.621	123.049	133.771	295.010	99.335	280.317	285.490	269.992	6.458	0.00018922	0.00060723	0.00028539	1049.3	7.41e-06	7.6736e-06	761.63	301.77	4.8503e-06	1.0387e-05	238.49	74.955	97.126	34.298	5.1187e-06	27.397	0.0041415	0.0073185	0.0020874	1076.6	7.885e-05	8.5833e-05	773.59	305.14	7.8613e-05	8.6919e-05	249.44	79.467	102.6	35.576	8.5184e-05	29.563	136.392	-5.539	49.310	-18.842	141.899	143.223	-20.364	-13.767	186.961	62.565	-16.337	-11.743	-10.547	-5.013	225.406	-9.103	-8191	255	
1003.962	1	1	0	0	0.065711	0.14891	0.14485	0.18807	0.15556	0.32354	0.25577	0.13814	0.14373	0.2739	0.13564	0.23374	0.14799	0.35124	0.10831	0.1639	0.14792	0.35	0.20625	-0.44792	0.33125	-0.17708	-0.11458	0.40417	-0.50625	0.36458	0.30417	-0.35417	0.37917	-0.30208	-0.21458	0.42708	107.823	96.881	233.696	319.940	235.832	221.619	188.753	42.915	281.253	187.204	313.915	119.878	326.506	257.816	267.230	213.702	0.0001068	0.00071139	0.00015817	1070.3	2.2578e-06	3.8137e-06	780.15	301.85	3.1376e-06	9.6828e-06	238.27	74.404	96.006	33.379	5.2414e-06	27.634	0.0046583	0.0080834	0.0023036	1100.7	8.704e-05	9.4253e-05	793.23	306.79	8.6372e-05	9.7797e-05	251.61	80.152	102.68	35.227	9.7977e-05	30.164	147.683	118.109	260.614	-20.530	154.156	180.761	-21.718	-15.302	43.519	124.080	-18.169	-13.782	-10.708	-5.470	107.363	-8.749	-8191	255	
1004.058	1	1	0	0	0.067887	0.069169	0.094974	0.063155	0.23215	0.18224	0.30674	0.14891	0.21593	0.15237	0.20749	0.056026	0.10558	0.13789	0.11714	0.1632	0.20625	0.22292	0.46042	-0.425	0.42083	-0.05625	-0.49167	0.33958	-0.21875	0.020833	0.35417	-0.54583	0.39583	0.16042	-0.0625	0.46667	59.034	73.998	219.734	283.266	193.499	238.808	250.040	267.378	151.568	57.044	301.060	221.935	106.348	76.716	235.612	1.585	7.9032e-05	0.0012168	0.00020513	1073.8	8.7344e-06	7.277e-06	776.03	293.71	3.9799e-06	1.4145e-05	230.47	72.173	92.607	32.004	3.316e-06	26.39	0.0053304	0.0094555	0.0026944	1112.6	0.00010031	0.00010857	796.94	301.06	9.7348e-05	0.00010801	246.23	78.184	99.519	34.101	0.00010113	29.086	97.583	299.401	11.573	-20.725	77.548	95.532	-21.745	-15.237	97.842	65.770	-18.031	-13.898	-10.551	-5.129	-22.739	-9.051	-8191	255	
1004.155	1	1	0	0	0.093686	0.042062	0.25247	0.17627	0.094275	0.2034	0.16999	0.28187	0.2418	0.099871	0.18167	0.13756	0.20244	0.13096	0.05459	0.15215	0.225	0.08125	0.5375	-0.2375	0.45208	0.175	-0.41875	0.34792	-0.21875	0.15208	0.70833	-0.37708	0.016667	0.085417	-0.47917	0.45208	233.657	18.286	203.380	283.375	149.257	170.079	262.514	246.903	189.411	105.831	96.752	170.956	13.988	307.726	261.659	204.738	9.9471e-05	0.00042429	0.00016798	1021	3.0549e-06	5.3942e-06	712.19	260.65	1.7201e-06	6.0768e-06	203.67	64.378	83.372	30.642	1.0633e-05	24.955	0.0055048	0.0095806	0.0026775	1063.7	9.7992e-05	0.00010623	732.51	267.49	9.1457e-05	0.00010157	217.68	70.354	90.004	32.247	8.947e-05	27.273	181.132	176.991	116.244	-20.304	237.581	33.085	-21.674	-14.996	125.945	-7.030	-17.884	-13.416	-10.066	-4.710	67.351	-8.834	-8191	255	
1004.275	1	1	0	0	0.067758	0.16774	0.16085	0.17957	0.16849	0.2485	0.21025	0.13056	0.19208	0.24652	0.36136	0.20617	0.32835	0.28468	0.2302	0.20145	0.14375	-0.27083	0.55833	-0.30417	0.26875	0.475	-0.38542	0.52917	-0.10833	-0.34792	0.47292	-0.10833	0.18958	0.24167	-0.26667	0.46875	8.925	14.176	39.740	144.330	173.117	231.421	301.316	290.535	202.189	67.287	-22.333	165.386	63.045	318.248	195.951	278.152	0.00011551	0.00010577	0.00021183	1015.8	7.0818e-06	2.7517e-06	748.4	247.31	3.9217e-06	8.7068e-06	198.72	63.019	84.626	32.229	3.2195e-06	24.991	0.0047028	0.0080868	0.002214	1046.8	8.1641e-05	8.723e-05	756.51	252.43	7.3567e-05	7.9874e-05	209.08	67.471	89.65	33.493	7.1641e-05	26.777	170.720	188.463	43.694	-20.805	216.593	246.007	-21.886	-15.205	254.190	140.588	-18.409	-13.380	-9.922	-4.900	84.619	-9.234	-8191	255	
1004.371	1	1	0	0	0.14926	0.15953	0.39555	0.14326	0.19968	0.06789	0.1695	0.048057	0.32665	0.029215	0.3772	0.1834	0.25519	0.024708	0.24189	0.37844	0.47083	-0.15833	0.42083	-0.38958	0.13542	0.37917	-0.325	0.35417	0.10208	-0.18542	0.47083	-0.21875	-0.1875	0.3125	-0.23958	0.30625	166.394	95.398	61.069	55.484	117.607	317.112	263.329	150.159	32.687	246.053	223.177	231.687	266.654	35.763	-33.051	191.404	6.813e-05	0.00087341	0.00015856	988.12	7.4748e-06	6.4779e-06	690.66	268.3	2.029e-06	7.7509e-06	215.25	70.543	95.313	33.473	3.282e-06	25.695	0.0038765	0.0066928	0.0018511	1009.9	6.9616e-05	7.381e-05	701.96	271.71	6.824e-05	7.625e-05	224.53	75.095	100.63	34.963	8.0265e-05	27.863	148.265	158.825	138.756	-20.601	135.614	210.557	-22.014	-15.175	234.154	199.615	-18.120	-13.482	-10.883	-5.206	176.986	-8.941	-8191	255	
1004.466	1	1	0	0	0.27186	0.24803	0.15282	0.28495	0.15754	0.1352	0.071804	0.24139	0.085938	0.051302	0.11802	0.12508	0.22962	0.11473	0.080531	0.24	0.62708	-0.18125	0.53125	-0.21875	-0.05	0.60208	-0.35208	0.1375	0.24375	-0.24167	0.45417	-0.0375	-0.22292	0.42292	-0.23542	0.20833	308.983	325.898	27.789	-19.047	129.719	228.545	-27.581	-22.079	35.314	303.948	-19.778	302.623	284.135	306.643	201.882	301.116	0.00010754	0.0011871	0.00012352	1014.7	3.9168e-06	6.975e-06	709.37	285.58	4.3572e-06	1.2311e-05	218.15	70.64	95.959	33.057	5.9989e-06	24.968	0.0045541	0.0078828	0.0022301	1039.9	8.4947e-05	9.2457e-05	723.23	290.63	8.3104e-05	9.1895e-05	231.73	76.379	102.39	34.736	8.7702e-05	27.345	112.653	37.578	117.614	-20.845	159.280	229.908	-21.715	-15.279	116.832	93.097	-18.011	-13.338	-10.842	-5.228	147.472	-9.227	-8191	255	
1004.562	1	1	0	0	0.11522	0.38906	0.25831	0.13404	0.26239	0.099377	0.22883	0.18184	0.080088	0.23898	0.12859	0.14942	0.20535	0.30017	0.228	0.11249	0.74583	-0.31042	0.44792	-0.014583	-0.11458	0.48542	-0.32708	-0.035417	0.52083	-0.20833	0.43333	0.016667	-0.22917	0.46875	-0.1625	0.05	275.463	307.892	316.084	158.987	78.663	-18.335	303.772	280.984	96.658	323.533	300.837	-2.175	36.811	15.375	323.365	-4.603	0.00010431	0.00075242	0.00021257	1021.7	3.969e-06	5.5059e-06	719.78	297.32	3.2793e-06	4.9693e-06	218.52	71.285	97.401	33.017	3.773e-06	24.534	0.0047981	0.0084595	0.0023477	1055.6	8.8536e-05	9.3813e-05	736.23	302.31	8.2614e-05	9.139e-05	232.2	76.268	103.02	34.521	8.3553e-05	26.77	182.866	313.370	94.108	-19.939	0.678	120.518	-21.645	-14.963	236.613	52.747	-18.236	-13.722	-10.841	-5.298	17.914	-9.412	-8191	255	
1004.658	1	1	0	0	0.17255	0.10498	0.019666	0.18561	0.22051	0.070888	0.13385	0.14823	0.15467	0.19492	0.31745	0.17051	0.21024	0.18067	0.1071	0.048802	0.8375	-0.3	0.35417	0.29583	-0.20417	0.57708	-0.21458	-0.28958	0.49792	-0.28125	0.27083	0.3	-0.33333	0.44583	-0.060417	-0.18333	172.252	300.735	56.565	228.562	-7.792	48.687	3.142	201.604	322.403	154.398	279.935	244.192	304.342	288.296	-20.630	280.336	7.6165e-05	0.00017449	0.00011121	1024.2	6.7813e-06	6.6049e-06	723.72	299.82	6.5745e-06	1.1774e-05	222.06	70.509	98.324	33.498	7.8213e-06	24.648	0.0044811	0.0075886	0.0021317	1049.3	7.9032e-05	8.3521e-05	736.49	303.72	7.4073e-05	8.0077e-05	232.33	74.945	102.81	34.732	7.3211e-05	26.456	163.372	34.285	33.320	-20.401	113.993	141.012	-21.482	-15.464	126.300	92.245	-18.144	-13.463	-10.287	-5.308	81.028	-9.274	-8191	255	
1004.754	1	1	0	0	0.27354	0.11901	0.034727	0.059847	0.090579	0.28545	0.23098	0.27981	0.17215	0.045802	0.14116	0.26756	0.14704	0.13923	0.26336	0.083817	0.95833	-0.09375	0.097917	0.089583	-0.30833	0.46875	-0.18958	-0.35208	0.49167	-0.34167	0.18333	0.21667	-0.1875	0.425	0.20208	-0.23333	214.607	158.204	7.216	213.016	24.924	172.480	314.721	301.882	113.534	170.002	295.169	256.136	193.895	136.200	30.106	-15.802	0.00011412	0.00065117	0.0002166	1036.1	2.1555e-06	8.0276e-06	746.79	301.35	6.1833e-06	5.7312e-06	225.4	70.022	96.167	33.432	2.1542e-06	24.465	0.0039405	0.0067481	0.0019189	1056.6	7.138e-05	7.7824e-05	753.91	305.03	7.1198e-05	7.8852e-05	235.32	74.415	101.61	34.875	7.6193e-05	26.561	146.324	-16.476	-7.166	-20.098	261.988	280.378	-21.577	-15.071	314.074	161.500	-18.206	-13.344	-10.510	-5.754	89.788	-9.343	-8191	255	
1004.850	1	1	0	0	0.26325	0.20652	0.069066	0.15269	0.32238	0.064683	0.2068	0.21203	0.06505	0.13736	0.13867	0.10375	0.28823	0.44148	0.25857	0.2848	0.69583	-0.22708	-0.00625	0.33958	-0.325	0.275	-0.075	-0.34583	0.48958	-0.17292	-0.1375	0.35833	-0.35417	0.31042	0.12292	-0.28333	-6.883	305.530	251.132	267.478	120.570	35.503	-32.084	285.149	111.351	231.803	83.688	279.507	-24.268	1.068	66.008	198.417	0.00013218	7.4003e-05	0.00016941	1049.6	7.6342e-06	3.9352e-06	756.52	298.38	3.9542e-06	4.0662e-06	221.52	68.696	94.152	32.855	3.9873e-06	23.825	0.0041165	0.0072261	0.0020253	1075.4	7.6511e-05	8.212e-05	765.76	301.96	7.5157e-05	8.4618e-05	233.76	73.264	99.668	34.315	8.3067e-05	26.134	115.420	88.789	10.320	-20.130	184.140	195.925	-22.097	-15.008	40.925	105.034	-18.063	-13.481	-10.496	-5.488	179.238	-9.455	-8191	255	
1004.947	1	1	0	0	0.090824	0.1186	0.061011	0.033301	0.22808	0.056122	0.082931	0.22659	0.014008	0.30296	0.12575	0.14348	0.19731	0.072398	0.1526	0.064368	1	-0.04375	-0.0625	0.57292	-0.14583	0.37708	0.13333	-0.44167	0.45	-0.20625	-0.25833	0.36458	-0.46042	0.095833	0.33958	-0.47083	134.715	195.571	177.969	242.367	255.764	312.967	59.438	302.022	280.077	5.731	56.202	180.279	70.656	270.514	93.249	-32.424	9.9659e-05	0.00038995	0.00014489	1035.3	5.8808e-06	7.5075e-06	735.82	278.17	1.8217e-06	2.7988e-06	208.48	63.727	89.144	31.255	5.1271e-06	23.101	0.0045669	0.0079592	0.0022399	1069.8	8.2077e-05	8.8249e-05	748.61	283.18	7.8085e-05	8.6559e-05	219.98	69.193	94.389	32.727	8.4667e-05	25.176	131.515	78.827	224.440	-20.608	123.277	163.209	-22.046	-15.454	43.008	58.093	-18.758	-13.120	-10.676	-5.426	100.933	-9.702	-8191	255	
1005.067	1	1	0	0	0.074855	0.24557	0.21839	0.21301	0.16955	0.098029	0.14488	0.22431	0.13819	0.25955	0.26125	0.36262	0.12159	0.10183	0.15763	0.099978	0.9125	-0.10625	-0.13333	0.49167	-0.34792	-0.027083	0.23958	-0.5125	0.37917	0.12917	-0.19375	0.60417	-0.083333	0.06875	0.41875	-0.35625	213.606	-4.241	276.889	291.278	11.611	176.525	237.111	297.868	156.872	226.548	-29.083	266.699	176.220	-19.290	211.776	277.208	0.00010655	0.00089668	0.00020499	983.77	5.1509e-06	1.1925e-05	681.89	252.57	4.9784e-06	4.848e-06	191.45	60.551	82.053	29.261	4.4449e-06	22.073	0.0046427	0.0082216	0.0022915	1021.5	8.6617e-05	9.4222e-05	699.32	259.07	8.3894e-05	9.4439e-05	205.03	66.228	88.539	30.928	9.1731e-05	24.564	133.831	80.601	123.761	-20.628	34.866	61.896	-22.186	-15.118	18.783	214.102	-18.339	-13.634	-10.332	-5.427	112.166	-9.349	-8191	255	
1005.163	1	1	0	0	0.1587	0.15778	0.031432	0.1088	0.25269	0.20161	0.064841	0.040097	0.14998	0.29524	0.032188	0.14442	0.085758	0.24687	0.27773	0.088959	0.7125	0.33125	-0.2375	0.39583	-0.18958	-0.1125	0.43958	-0.45833	0.32083	0.072917	-0.225	0.58125	-0.11667	-0.22917	0.55625	-0.475	314.623	151.487	122.523	128.544	288.959	223.827	241.930	254.228	282.546	259.655	76.420	-30.388	-11.557	88.514	200.547	249.139	6.0223e-05	0.00067818	0.00021641	941.7	6.4267e-06	8.9143e-06	643.74	233.38	6.8284e-06	5.2856e-06	176.37	57.448	76.779	27.493	6.7341e-06	21.543	0.0050731	0.0089892	0.0024739	982.97	9.3157e-05	0.00010187	662.14	241.64	9.2248e-05	0.00010353	193.01	63.842	84.251	29.613	0.00010167	24.473	185.941	96.727	34.301	-20.913	136.358	290.957	-21.994	-15.178	280.111	199.072	-18.126	-13.126	-10.955	-5.628	164.457	-9.476	-8191	255	
1005.235	1	1	0	0	0.29758	0.10828	0.014639	0.17508	0.094286	0.19168	0.12875	0.20886	0.12928	0.14187	0.19927	0.09268	0.17653	0.077332	0.15788	0.094665	0.61458	0.32083	-0.16458	0.52083	0.125	-0.225	0.66667	-0.23125	0.17917	0.3625	-0.30625	0.4375	0.041667	-0.079167	0.51875	-0.15833	49.566	16.714	205.173	169.000	148.458	45.807	253.265	317.229	297.872	0.100	164.779	286.696	123.914	140.162	256.454	-31.722	3.9603e-05	0.001493	0.0002905	888.55	8.394e-06	8.9666e-06	595.45	221.15	6.4155e-06	4.8694e-06	170.27	57.347	74.935	26.654	6.273e-06	21.042	0.0057084	0.010147	0.002829	943.16	0.00010796	0.00011771	622.66	230.75	0.00010683	0.00012114	189.68	64.98	84.593	29.192	0.00012992	25.015	179.464	99.423	310.440	-21.448	22.308	8.713	-22.191	-15.593	216.990	164.493	-18.882	-14.018	-11.167	-6.004	159.282	-9.430	-8191	255	
1005.356	1	1	0	0	0.33492	0.15542	0.24868	0.15546	0.24847	0.030783	0.10707	0.10599	0.17479	0.2217	0.092573	0.096236	0.10785	0.18973	0.27565	0.13969	0.54792	0.49167	-0.35625	0.35625	0.20208	-0.25417	0.27292	-0.16042	0.17917	0.375	-0.22917	0.34375	0.23125	-0.39375	0.3875	-0.19167	56.358	146.344	106.552	254.186	280.845	128.834	233.159	45.524	122.879	283.132	93.279	76.242	260.451	172.119	19.146	34.881	8.1227e-05	0.00063148	0.00023907	869.28	2.4525e-06	3.5926e-06	567.54	218.92	3.4363e-06	1.1513e-05	166.11	57.178	75.36	26.348	1.96e-06	21.596	0.0073914	0.013193	0.0037368	946.66	0.00014835	0.0001626	617.41	234.37	0.00015252	0.0001731	197.62	68.677	88.376	30.039	0.00017198	26.511	-8.069	112.214	10.054	-21.490	301.748	236.934	-22.235	-15.888	68.645	109.951	-17.999	-14.619	-11.510	-5.841	122.787	-9.245	-8191	255	
1005.450	1	1	0	0	0.32766	0.14484	0.12551	0.20147	0.30081	0.0788	0.068231	0.23321	0.072355	0.15564	0.076331	0.099952	0.31498	0.16086	0.18725	0.088977	0.36458	0.48958	-0.15625	0.25833	0.13542	-0.25	0.31667	-0.33333	-0.36042	0.43333	-0.39375	0.15417	0.36042	-0.10417	0.58958	0.089583	118.795	227.118	112.725	317.743	67.371	142.960	222.800	308.463	94.027	106.976	134.111	166.679	246.077	87.515	159.042	87.179	5.7506e-05	0.0012348	0.00023458	854.51	9.1513e-06	7.1388e-06	558.78	216.47	6.0937e-06	7.0059e-06	163	57.281	74.257	26.272	6.4482e-06	21.605	0.0094401	0.016787	0.0047315	966.01	0.00018339	0.00019964	622.31	236.7	0.00018552	0.00021006	201.75	71.255	90.488	30.772	0.0002125	28.185	112.441	42.483	195.394	-21.275	27.149	322.637	-21.938	-15.826	154.668	-3.457	-18.517	-14.298	-11.416	-6.458	245.017	-10.343	-8191	255	
1005.546	1	1	0	0	0.11864	0.049533	0.082054	0.2402	0.12991	0.20188	0.26916	0.15163	0.072323	0.14349	0.16189	0.24148	0.19473	0.26822	0.058967	0.20323	0.43542	0.51875	-0.32292	0.3125	0.39167	-0.58125	0.46667	-0.091667	-0.22292	0.47917	-0.35208	0.060417	0.43333	-0.44792	0.38958	0.03125	-1.305	159.557	320.152	247.890	85.791	60.677	-10.624	215.614	12.057	-23.563	277.153	221.801	34.048	300.855	44.768	295.763	0.00016483	0.00016496	0.00025846	842.31	4.153e-06	4.4593e-06	553.11	209.49	7.6506e-06	1.6561e-05	156.74	56.326	72.592	26.079	1.7936e-05	21.976	0.011747	0.020592	0.0058143	979.98	0.00021812	0.00023395	625.56	234.14	0.00020767	0.00023202	201.77	72.016	90.515	31.281	0.00023276	29.084	75.388	-20.894	214.182	-20.935	55.917	185.377	-22.307	-15.828	251.986	75.807	-17.793	-14.669	-11.722	-6.502	267.436	-10.239	-8191	255	
1005.644	1	1	0	0	0.30951	0.237	0.044026	0.24175	0.11825	0.25505	0.14914	0.2646	0.0097874	0.28781	0.29238	0.090121	0.1136	0.49815	0.21652	0.11999	0.072917	0.57292	-0.16042	-0.05	0.39375	-0.37292	0.19583	0.12083	-0.37917	0.47083	-0.35208	-0.17292	0.40833	-0.45833	0.2	0.33542	65.887	80.120	192.350	-13.485	-3.462	276.158	279.879	265.610	108.697	30.270	266.201	185.174	285.034	250.520	40.709	40.314	0.00015612	0.0022768	0.00017626	825.76	5.7797e-06	9.0758e-06	538.45	203.3	6.2525e-06	1.4783e-05	154.32	56.147	72.282	26.476	1.3706e-05	22.416	0.012685	0.022082	0.0062449	974.83	0.00023104	0.00024848	618.49	230.53	0.0002206	0.00024641	202	72.761	90.966	31.676	0.00024135	29.788	115.928	48.534	90.512	-21.012	67.749	51.216	-22.120	-15.901	205.478	169.105	-18.789	-14.388	-11.805	-6.504	82.640	-10.067	-8191	255	
1005.763	1	1	0	0	0.22238	0.2299	0.22439	0.3449	0.12411	0.32056	0.12616	0.038421	0.25081	0.20348	0.12529	0.28282	0.080152	0.051306	0.16236	0.11661	0.060417	0.73333	0.16667	-0.30833	0.56458	-0.51875	0.13125	0.23125	-0.33958	0.48542	-0.0125	-0.13958	0.60208	-0.3375	0.060417	0.33125	167.907	3.071	3.821	132.022	101.314	128.712	246.052	105.450	-21.734	204.074	230.846	258.576	231.125	25.849	232.034	122.103	3.9417e-05	0.00059914	0.0004213	800.91	7.6791e-06	1.0662e-05	520.95	199.56	7.2683e-06	8.2985e-06	153.18	56.258	71.984	26.857	1.5056e-05	23.119	0.012963	0.02297	0.0065146	962.9	0.00023914	0.00026106	608.43	228.14	0.00023133	0.00025971	202.08	73.896	91.672	32.372	0.00025054	30.552	244.378	219.250	204.287	-21.400	199.557	265.068	-22.150	-15.867	217.114	138.849	-18.987	-15.249	-11.890	-6.601	154.207	-9.888	-8191	255	
1005.859	1	1	0	0	0.15864	0.224	0.16795	0.18607	0.17882	0.34395	0.13202	0.28931	0.079741	0.073471	0.091189	0.11338	0.34798	0.14877	0.013259	0.031558	0.16458	0.41875	-0.0125	-0.17708	0.51042	-0.3875	0.016667	0.29375	-0.31875	0.40208	0.2375	-0.28125	0.5125	-0.21875	0.022917	0.34167	157.674	139.390	305.797	151.395	24.291	233.692	245.790	-17.896	115.550	124.046	215.619	205.633	4.027	239.589	-8.393	157.938	6.8072e-05	0.0010273	0.00030099	805.36	5.8877e-06	6.9063e-06	530.02	203.27	3.7737e-06	9.7845e-06	155.98	57.42	74.029	27.502	8.8112e-06	23.271	0.013408	0.023719	0.0066194	971.62	0.00024587	0.00026793	616.55	231.3	0.00023572	0.00026615	205.77	75.171	93.94	33.24	0.00025764	30.983	-11.594	322.087	71.999	-21.271	138.979	225.280	-22.244	-15.161	122.314	91.594	-17.883	-14.517	-11.585	-6.634	136.599	-10.104	-8191	255	
1005.955	1	1	0	0	0.10873	0.20709	0.21612	0.13422	0.1647	0.21258	0.10557	0.27555	0.18717	0.1417	0.23378	0.13923	0.081938	0.28426	0.18	0.12522	0.020833	0.34167	0.16667	-0.375	0.525	-0.095833	-0.12292	0.65	-0.18333	0.22917	0.31042	-0.29167	0.47917	-0.020833	-0.11042	0.53333	242.332	75.141	-16.742	296.627	216.269	215.586	90.770	264.077	155.402	17.602	303.459	-30.933	132.897	-13.943	177.148	263.251	0.00014462	0.00064796	0.00036731	812.51	5.966e-06	1.8824e-05	527.67	205.19	4.2919e-06	1.4573e-05	155.89	58.093	75.219	28.04	9.7848e-06	23.253	0.01382	0.024371	0.006844	977.08	0.0002535	0.0002746	620.7	234.66	0.00025309	0.00029003	213.74	78.692	99.466	35.013	0.00032087	33.32	129.184	296.982	115.650	-21.107	67.627	150.808	-22.360	-15.599	70.550	307.133	-18.573	-14.354	-11.882	-6.783	165.292	-10.320	-8191	255	
1006.051	1	1	0	0	0.05905	0.088496	0.19455	0.046042	0.22411	0.020298	0.30218	0.12946	0.23043	0.16659	0.14334	0.18078	0.31511	0.14844	0.21496	0.10402	0.070833	0.11875	0.5	-0.50208	0.39167	-0.054167	-0.36667	0.50833	-0.30208	0.31875	0.35	-0.56667	0.33542	0.09375	-0.42292	0.475	252.455	-24.236	283.397	270.290	300.114	199.426	243.327	288.895	-20.325	186.255	140.022	64.907	324.285	288.863	277.174	284.784	8.9239e-05	9.2346e-05	0.00038155	799.07	3.6368e-06	1.0214e-05	523.38	205.87	1.025e-05	6.4918e-06	153.87	58.239	76.185	27.926	6.0758e-06	23.045	0.018299	0.033028	0.0093701	1043.5	0.00035347	0.00038151	656.06	248.22	0.00034135	0.00038572	231.49	84.573	106.47	36.531	0.00038011	34.895	215.258	-15.902	93.861	-20.586	232.851	227.996	-22.048	-15.563	21.898	215.007	-18.659	-14.125	-11.486	-6.637	7.521	-9.888	-8191	255	
1006.148	1	1	0	0	0.12759	0.11633	0.15371	0.26757	0.16146	0.11742	0.20031	0.1165	0.13752	0.11451	0.10335	0.15457	0.042147	0.23505	0.16946	0.29017	0.0083333	0.047917	0.45208	-0.33125	0.29167	0.13958	-0.37292	0.46875	-0.20417	-0.2375	0.44375	-0.37708	0.31667	-0.010417	-0.36458	0.56042	144.484	83.988	80.306	309.382	210.064	307.076	185.102	-0.259	180.296	68.896	297.339	4.427	153.900	281.919	269.134	4.058	0.00013315	0.00094038	0.00047186	794.68	7.6745e-06	9.8634e-06	520.01	204.08	1.3952e-05	4.2895e-06	154.24	58.683	75.275	28.367	1.3976e-05	22.938	0.020632	0.036199	0.010052	1052	0.00037436	0.000401	656.34	248.38	0.00035106	0.00038989	231.05	84.262	105.09	36.393	0.00036092	34.208	181.992	-31.028	138.436	-20.473	188.278	55.024	-22.380	-15.329	284.555	95.669	-18.584	-14.655	-11.645	-7.420	142.958	-9.935	-8191	255	
1006.244	1	1	0	0	0.27079	0.18948	0.26937	0.31631	0.19919	0.19971	0.069551	0.026426	0.11074	0.15007	0.33508	0.12926	0.25349	0.24707	0.21079	0.22032	0.27917	-0.13542	0.3875	-0.30208	0.17292	0.2125	-0.36042	0.33542	-0.060417	-0.19167	0.50833	-0.12917	0.28333	0.36458	-0.31042	0.50208	142.308	229.416	207.035	37.749	292.921	228.028	258.723	31.291	300.453	209.667	-27.308	11.776	126.011	268.581	249.365	-14.467	0.00012198	0.0016463	0.00054625	795.21	9.737e-06	7.7371e-06	519.28	202.8	6.882e-06	1.5437e-05	155.52	57.866	75.199	27.665	4.6187e-06	22.369	0.019481	0.034217	0.0095127	1044	0.00035435	0.00037587	650.89	245.63	0.00033035	0.00036405	225.98	81.913	102.64	35.383	0.00033291	32.697	187.766	55.392	14.823	-20.516	306.396	22.791	-22.104	-15.664	304.998	267.587	-18.048	-14.563	-11.939	-6.839	178.260	-9.780	-8191	255	
1006.364	1	1	0	0	0.067311	0.23633	0.15021	0.043413	0.067336	0.11459	0.25812	0.23428	0.083184	0.037086	0.15683	0.20376	0.31835	0.33984	0.092605	0.26708	0.55417	-0.15833	0.58542	-0.26667	-0.0125	0.45833	-0.6125	0.35833	0.1125	-0.38542	0.40833	-0.22292	0.060417	0.425	-0.51458	0.25625	175.646	280.526	316.116	34.845	-7.407	-16.524	239.672	233.573	122.146	-11.547	89.421	106.751	43.991	-11.978	300.904	296.253	0.00018112	0.0015215	0.00017834	817.92	4.2838e-06	8.6689e-06	532.09	209.23	1.7221e-06	8.5304e-06	157.7	57.114	75.578	27.223	9.4696e-06	21.591	0.017664	0.030642	0.0084073	1027.6	0.0003038	0.00032141	639.86	242.32	0.00026885	0.00029123	212.73	76.148	96.606	32.972	0.00025437	29.401	174.124	179.859	27.965	-20.859	66.665	90.321	-21.810	-15.601	110.196	310.581	-18.597	-14.647	-11.164	-6.386	218.178	-9.982	-8191	255	
1006.459	1	1	0	0	0.068271	0.17332	0.10922	0.42693	0.10144	0.10484	0.12226	0.085504	0.025329	0.16592	0.27241	0.1577	0.23573	0.16777	0.059511	0.18928	0.58125	-0.016667	0.47083	-0.1375	0.08125	0.39375	-0.30625	0.2	0.21875	-0.30833	0.37708	-0.17292	-0.17708	0.45208	-0.33333	0.029167	45.629	239.318	98.783	281.444	105.835	-19.029	171.541	326.277	133.151	239.269	30.550	76.496	79.810	10.298	51.831	326.192	5.2442e-05	0.00031422	0.00020458	838.46	5.4594e-06	3.1436e-06	535.15	215.48	2.7796e-06	1.1012e-05	159.83	56.231	76.094	27.053	1.0266e-05	20.717	0.013263	0.022846	0.0063283	989.6	0.00022762	0.00024142	616.45	241.39	0.00021153	0.00023404	204.31	71.645	94.013	31.795	0.00022059	27.436	202.808	111.274	230.145	-20.713	88.185	88.552	-22.033	-15.667	67.048	226.052	-18.622	-13.727	-11.914	-6.147	152.738	-10.042	-8191	255	
1006.532	1	1	0	0	0.19281	0.13377	0.26025	0.014324	0.3207	0.14629	0.24893	0.023154	0.24921	0.10835	0.12566	0.081012	0.050752	0.13979	0.14601	0.1152	0.71667	-0.2375	0.52292	-0.016667	-0.097917	0.55833	-0.45417	-0.027083	0.29375	-0.325	0.31667	0.066667	-0.31875	0.45	-0.0875	0.13542	-7.976	322.978	75.551	294.280	50.331	-13.431	198.102	259.038	268.912	62.014	193.728	277.582	258.208	-18.239	105.923	233.255	5.6956e-05	0.00088313	1.9458e-05	840.91	6.5426e-06	8.9376e-06	538.37	223.8	4.9214e-06	5.6421e-06	163.3	56.645	78.755	27.45	1.0125e-05	20.676	0.011616	0.020094	0.0055511	972.81	0.00019922	0.00021096	606.57	245	0.00017939	0.00019808	199.6	69.425	93.011	31.566	0.0001867	26.46	13.564	307.128	216.424	-20.468	81.815	315.223	-22.250	-15.815	87.170	185.918	-18.338	-13.992	-11.441	-5.838	121.627	-9.669	-8191	255	
1006.627	1	1	0	0	0.18318	0.13553	0.02372	0.32403	0.21024	0.1199	0.15908	0.19785	0.13256	0.13325	0.070875	0.34038	0.26422	0.041656	0.040776	0.14688	0.78958	-0.38125	0.36667	0.075	-0.05625	0.61042	-0.18125	-0.30208	0.53958	-0.29792	0.32083	0.21458	-0.32083	0.52083	-0.26875	-0.20625	122.334	56.140	13.295	263.324	287.474	-0.529	273.533	254.210	208.588	229.253	105.350	231.757	266.620	-18.195	106.734	297.636	3.0848e-05	0.0015759	0.00059516	845.24	8.4125e-06	8.1535e-06	540.83	227.69	8.8228e-06	5.2728e-06	164.26	58.228	79.971	28.207	8.8247e-06	20.794	0.010197	0.017999	0.0051089	966.16	0.00019473	0.00021218	612.08	249.75	0.00019037	0.0002125	205.35	72.141	96.21	32.584	0.00020482	27.27	167.579	1.229	108.166	-20.687	38.807	175.262	-21.840	-15.576	161.953	87.101	-18.572	-13.931	-11.526	-6.294	-6.247	-9.159	-8191	255	
1006.747	1	1	0	0	0.10301	0.13873	0.19592	0.075943	0.29133	0.21357	0.11116	0.29207	0.054003	0.11835	0.24844	0.023531	0.18961	0.093577	0.19121	0.25778	0.92917	-0.2	0.38542	0.225	-0.19792	0.47292	-0.14375	-0.15833	0.47292	-0.24583	0.22083	0.42083	-0.40833	0.22708	-0.025	-0.21667	60.074	274.793	26.178	121.544	290.967	49.483	301.462	236.814	-22.696	-16.389	6.862	209.752	281.197	260.347	300.094	267.479	0.00018004	0.0008617	0.00010758	840.98	7.6056e-06	8.7285e-07	547.6	228.62	6.2086e-06	5.1767e-06	166.08	58.345	79.11	27.882	6.5257e-06	21.219	0.011136	0.01968	0.0055114	980.99	0.00020852	0.00023077	623.82	253.28	0.0002105	0.00023705	212.43	74.401	98.061	33.213	0.00023641	28.581	173.503	281.593	12.917	-21.038	113.634	234.431	-22.002	-15.777	244.890	229.593	-18.288	-13.757	-11.205	-5.834	272.242	-9.193	-8191	255	
1006.843	1	1	0	0	0.15492	0.11208	0.20846	0.16209	0.096432	0.21096	0.14763	0.11988	0.19056	0.087279	0.18293	0.17088	0.13712	0.27687	0.2572	0.15628	0.88333	-0.05	0.0020833	0.31667	-0.36875	0.39375	-0.08125	-0.31042	0.33125	-0.15625	0.089583	0.3	-0.30833	0.26042	0.052083	-0.42917	64.631	-1.497	283.074	1.518	124.670	164.638	260.669	152.298	205.602	25.237	165.195	287.578	301.554	312.879	165.514	270.617	8.3591e-05	0.00020549	0.00024926	840.94	6.4168e-06	8.3195e-06	548.16	226.84	5.601e-06	8.9174e-06	166.99	58.072	77.445	27.115	3.9884e-06	20.994	0.0127	0.022692	0.0063133	1003.4	0.00023367	0.00025229	633.07	253.49	0.00021905	0.0002448	213.12	74.483	97.066	32.623	0.00024559	28.8	263.406	245.800	282.233	-20.423	69.277	236.382	-21.781	-15.565	97.637	295.112	-18.625	-13.990	-10.796	-5.888	226.290	-9.804	-8191	255	
1006.939	1	1	0	0	0.1942	0.087943	0.090485	0.070313	0.12216	0.12365	0.31263	0.057769	0.18354	0.19552	0.11809	0.12325	0.11341	0.13034	0.12332	0.059189	0.88333	0.029167	-0.083333	0.53125	-0.34167	0.33542	0.25833	-0.45833	0.44792	0.00625	-0.13542	0.50625	-0.30208	0.22708	0.27708	-0.3	164.342	112.322	217.511	304.876	51.161	94.015	214.604	286.140	24.404	-5.150	300.457	271.089	150.561	11.391	69.024	117.250	8.7626e-05	0.00088792	0.000199	817.42	1.0665e-05	8.8763e-06	526.81	214.35	7.8394e-07	1.5012e-06	163.24	56.116	75.129	26.482	5.1427e-06	20.743	0.013702	0.024266	0.0068302	996.48	0.00026103	0.00028496	629.4	248.36	0.00026827	0.00030663	222.11	78.164	101.08	33.861	0.0003269	31.301	324.519	44.066	98.894	-20.505	95.022	63.756	-21.916	-15.308	0.749	21.969	-18.526	-14.248	-10.812	-6.189	275.509	-9.799	-8191	255	
1007.036	1	1	0	0	0.14914	0.15671	0.20831	0.22229	0.10255	0.068232	0.15141	0.12059	0.090099	0.14735	0.17802	0.25754	0.11194	0.14882	0.17065	0.30873	0.58125	0.16875	0.06875	0.51042	-0.0083333	0.22083	0.23542	-0.29583	0.29167	0.022917	-0.17917	0.64583	-0.1125	0.0625	0.37708	-0.38958	310.040	177.902	223.338	218.175	59.389	326.015	12.231	187.791	148.482	5.791	224.075	325.959	301.787	298.012	93.938	244.365	0.00022089	0.00099289	0.00048383	780.9	1.0619e-05	2.495e-05	512.65	204.02	7.952e-06	1.2755e-05	156.85	56.734	72.957	26.172	6.4496e-06	22.029	0.017746	0.031265	0.0086775	1014.8	0.00032979	0.00035479	639.33	245.26	0.00031619	0.0003512	225.88	80.419	100.25	34.026	0.00032931	32.418	108.272	241.049	-23.236	-20.465	240.541	41.497	-22.315	-15.390	-12.727	94.735	-19.325	-13.937	-11.540	-5.779	15.888	-9.879	-8191	255	
1007.132	1	1	0	0	0.22097	0.23843	0.1363	0.22428	0.07441	0.15817	0.18235	0.33084	0.18064	0.23702	0.080529	0.29804	0.21505	0.19831	0.2815	0.17135	0.65208	0.15	-0.12083	0.38958	-0.19167	0.19375	0.44583	-0.20625	0.29167	0.17708	-0.51875	0.375	-0.31667	-0.05	0.58125	-0.275	131.362	293.277	-13.918	293.923	284.861	73.840	315.878	311.638	16.168	97.367	316.622	287.852	275.728	305.305	164.133	185.780	8.6001e-05	0.0023094	0.00023186	782.95	1.0929e-05	2.1288e-05	518.15	203.57	1.3026e-05	8.247e-06	157.9	58.93	74.549	27.335	1.3394e-05	23.395	0.017692	0.031078	0.0086277	1009.2	0.00032167	0.00034225	638.16	242.02	0.00030397	0.00033621	224.56	81.157	100.49	34.417	0.00030755	32.774	10.143	273.527	46.617	-21.151	-11.018	110.718	-21.772	-14.809	103.108	270.523	-18.031	-14.249	-11.257	-6.318	252.261	-9.364	-8191	255	
1007.228	1	1	0	0	0.38879	0.1271	0.41306	0.13411	0.31128	0.071022	0.25445	0.2827	0.23809	0.11695	0.06403	0.21608	0.2708	0.19517	0.132	0.27408	0.40625	0.20833	-0.47917	0.4125	0.091667	-0.070833	0.47083	-0.37917	0.33125	0.35625	-0.3125	0.45625	0.016667	-0.1875	0.52917	-0.43958	228.859	2.452	221.699	241.761	217.597	203.647	216.495	237.450	-6.101	135.558	34.751	282.845	59.009	30.044	300.704	212.548	0.0001611	0.0006374	0.00039715	810.26	6.5629e-06	2.258e-06	545.77	212.2	3.1285e-06	1.8348e-05	165.85	59.889	77.117	27.538	7.0952e-06	23.362	0.016202	0.028332	0.0078691	1013.3	0.00029054	0.00030854	650.44	245.76	0.00026668	0.00029476	223.18	79.867	99.53	33.918	0.00027288	31.783	131.868	245.260	100.589	-21.262	-29.941	118.878	-21.615	-15.367	96.248	80.020	-18.183	-13.680	-11.122	-6.531	8.753	-9.273	-8191	255	
1007.324	1	1	0	0	0.13649	0.12355	0.16831	0.25173	0.21873	0.09346	0.13312	0.071061	0.10603	0.28053	0.10822	0.14972	0.1876	0.15176	0.14674	0.24355	0.47708	0.23333	-0.0020833	0.40625	0.24583	-0.30833	0.43542	-0.14792	0.04375	0.61042	-0.22083	0.39167	0.10625	-0.29792	0.65208	-0.085417	11.030	312.475	3.927	256.725	241.093	298.074	-32.321	219.040	59.109	177.723	0.151	3.141	322.467	311.521	51.295	287.156	0.00011782	0.0011978	0.00017176	830.72	5.1044e-06	1.1942e-05	561.03	217.76	1.1147e-05	6.3033e-06	170.24	58.885	78.437	28.784	6.3677e-06	23.01	0.014429	0.025134	0.0069307	1008.2	0.00024854	0.0002622	646.11	244.3	0.0002089	0.00022036	210.08	72.646	92.793	32.529	0.00016569	27.94	120.659	8.734	105.896	-21.108	238.528	-16.517	-22.120	-15.680	17.162	103.478	-18.309	-13.731	-11.005	-5.681	66.805	-9.356	-8191	255	
1007.445	1	1	0	0	0.1525	0.18699	0.15739	0.10376	0.34432	0.20542	0.27037	0.15561	0.090307	0.22789	0.057695	0.16454	0.14434	0.25857	0.17267	0.2092	0.49167	0.39792	-0.23125	0.28958	0.30833	-0.18333	0.16458	-0.23958	-0.18125	0.53542	-0.36667	0.125	0.33958	-0.34583	0.30833	-0.016667	65.097	302.382	78.978	192.291	180.509	285.349	-27.674	270.181	286.046	305.453	226.219	213.084	174.241	313.494	-33.245	-24.394	0.00012267	0.00022793	0.00025384	919.51	1.2274e-05	1.8989e-05	625.03	242.49	2.6942e-06	1.5996e-05	184.41	60.113	82.658	31.645	5.1935e-06	23.779	0.008213	0.013713	0.0036974	994.09	0.00012398	0.00012762	656.74	251.02	9.7088e-05	0.00010474	201.07	66.519	89.868	33.482	9.0696e-05	26.325	179.904	303.317	61.000	-21.216	162.133	134.156	-22.249	-15.467	285.127	114.342	-18.806	-13.573	-10.269	-5.636	238.920	-9.293	-8191	255	
1007.539	1	1	0	0	0.1296	0.21126	0.19281	0.0066249	0.16691	0.27187	0.048525	0.22988	0.11306	0.17174	0.16792	0.12339	0.13579	0.12514	0.12844	0.084695	0.31875	0.57083	-0.29583	0.058333	0.46875	-0.37083	0.42708	-0.029167	-0.095833	0.7625	-0.32292	0.15	0.41875	-0.23958	0.45833	0.1125	194.336	-18.448	244.557	-22.988	44.160	151.463	233.097	297.199	74.809	287.524	97.421	212.287	158.363	104.708	-21.664	159.156	0.0001212	0.00051284	0.00020718	918.79	2.1428e-06	1.1128e-05	631.56	256.53	4.2683e-06	4.961e-06	195.53	61.937	87.098	33.192	1.0083e-05	24.194	0.0047483	0.0082281	0.0022341	959.95	7.8707e-05	8.1849e-05	645.73	260.45	6.5584e-05	7.2941e-05	204.05	66.116	91.293	34.28	6.0312e-05	25.684	111.778	154.450	62.396	-20.967	-11.184	190.286	-21.753	-15.549	-30.826	81.140	-18.399	-14.368	-11.041	-5.454	145.904	-10.008	-8191	255	
1007.635	1	1	0	0	0.18587	0.11774	0.26697	0.14149	0.14725	0.23733	0.28942	0.35091	0.1581	0.11219	0.20234	0.14519	0.13122	0.13561	0.29332	0.18685	0.20417	0.60833	-0.26875	-0.06875	0.63333	-0.425	0.26875	0.0083333	-0.20625	0.47708	-0.17292	-0.022917	0.41042	-0.45625	0.21667	0.34583	61.743	-31.529	275.658	290.840	61.534	153.448	228.170	258.707	83.480	162.090	50.158	289.110	-13.657	293.653	69.737	22.531	0.00013136	0.00054573	0.00015617	999.61	5.0569e-06	2.7793e-06	710.48	291.36	2.1049e-06	5.2697e-06	223.14	64.085	92	34.882	3.6991e-06	24.672	0.0031449	0.0053688	0.0014943	1014.6	5.4945e-05	5.8182e-05	714.56	293.61	5.153e-05	5.8219e-05	229.63	67.307	95.513	35.864	5.3722e-05	26.134	154.649	51.746	-11.857	-20.719	196.799	268.722	-22.268	-16.056	36.562	138.250	-19.246	-14.421	-11.494	-5.809	106.974	-9.806	-8191	255	
1007.756	1	1	0	0	0.2253	0.31046	0.22133	0.17144	0.29299	0.090253	0.039784	0.091026	0.2626	0.39686	0.025289	0.13847	0.055158	0.057794	0.15916	0.28155	0.097917	0.425	-0.16875	-0.16042	0.5	-0.26042	0.025	0.32292	-0.32917	0.2625	0.041667	-0.21042	0.62917	-0.21667	0.08125	0.44375	96.701	145.854	109.495	312.632	86.724	-1.751	43.869	296.922	223.588	170.710	277.742	-5.768	309.775	319.430	256.318	170.937	0.00010905	0.00050526	0.00023176	1139	6.4647e-06	1.0096e-06	830.87	358.68	2.5359e-06	6.0125e-06	270.45	73.397	105.88	36.711	6.3598e-06	25.975	0.0029027	0.0050571	0.0014045	1154.2	5.1699e-05	5.5151e-05	831.31	359.93	4.8838e-05	5.5393e-05	274.96	76.539	109.37	37.57	5.2744e-05	27.276	115.678	80.781	105.146	-21.224	202.127	-20.434	-22.502	-16.579	297.750	114.079	-20.028	-15.650	-12.317	-6.197	151.301	-9.519	-8191	255	
1007.828	1	1	0	0	0.066176	0.17095	0.19445	0.093448	0.14135	0.11735	0.16349	0.076007	0.16474	0.041725	0.086621	0.11949	0.043944	0.3024	0.19154	0.12619	0.11042	0.40833	0.20417	-0.27917	0.68333	-0.12708	-0.24792	0.3	-0.20208	0.48333	0.0875	-0.2875	0.57708	-0.10625	0.14167	0.35417	305.771	148.748	306.753	254.487	172.084	209.532	250.867	19.121	179.029	-24.075	308.043	260.045	8.503	322.965	310.164	151.010	0.00010955	0.00042174	0.00017498	1206.7	4.594e-06	6.0311e-06	860.06	368.32	4.3777e-06	3.5129e-06	269.63	73.183	103.83	35.755	3.5666e-06	26.113	0.002874	0.0051315	0.0014131	1209.6	5.3852e-05	5.7601e-05	864.36	368.13	5.2112e-05	5.9445e-05	275.5	76.483	108.33	36.882	5.9289e-05	27.491	139.126	65.792	83.819	-20.767	100.044	107.515	-22.509	-16.797	105.746	89.177	-20.326	-15.898	-12.720	-6.078	9.031	-10.383	-8191	255	
1007.924	1	1	0	0	0.12861	0.057093	0.21443	0.32127	0.21815	0.026773	0.20991	0.44952	0.11304	0.19329	0.16137	0.25873	0.12339	0.086827	0.11123	0.081905	0.20625	0.5	0.34167	-0.44167	0.55833	-0.01875	-0.083333	0.30417	-0.27292	0.29583	-0.045833	-0.43333	0.44583	-0.052083	-0.04375	0.48542	224.416	117.813	293.708	274.456	287.902	-16.572	289.654	324.493	309.860	86.378	215.269	260.450	230.687	22.965	76.272	39.879	0.00014772	0.00099574	0.0001268	1197.4	6.4865e-06	8.6824e-06	850.64	351.99	1.9471e-06	6.9726e-06	260.72	72.322	100.82	34.534	7.654e-06	26.086	0.0033481	0.0059619	0.0016636	1208.3	6.4462e-05	7.0048e-05	859.64	355.48	6.8897e-05	7.7706e-05	270.79	77.066	106.94	36.124	9.2828e-05	28.825	86.178	36.202	146.106	-20.937	142.519	274.418	-22.828	-17.021	134.816	-8.200	-20.637	-15.791	-13.148	-6.216	263.951	-10.026	-8191	255	
1008.044	1	1	0	0	0.081163	0.29576	0.15287	0.27107	0.15008	0.25772	0.27044	0.10923	0.27451	0.33278	0.11406	0.088508	0.26443	0.23442	0.11231	0.32711	0.19375	0.25417	0.38125	-0.40833	0.41042	-0.0625	-0.19167	0.35208	-0.325	0.10417	0.31667	-0.33333	0.28542	0.18333	-0.17083	0.38333	249.025	42.681	200.201	322.650	-5.644	103.083	246.673	161.009	289.760	-32.812	252.479	122.832	298.692	317.383	81.859	213.316	6.0342e-05	0.00060774	7.6634e-05	1141.3	1.3934e-06	2.9526e-06	823.98	328.83	6.526e-06	3.92e-06	253.91	71.756	95.969	32.808	1.1656e-05	26.798	0.0055041	0.0098043	0.0028921	1194	0.00011398	0.00012604	851.67	338.97	0.00012223	0.00014037	276.64	81.83	108.15	36.431	0.00017585	32.413	96.717	43.833	315.111	-21.389	320.661	154.562	-22.634	-17.354	91.349	42.833	-20.515	-16.623	-13.694	-6.916	125.612	-10.314	-8191	255	
1008.140	1	1	0	0	0.20438	0.088957	0.1945	0.023411	0.16297	0.23388	0.11967	0.13489	0.2786	0.0053111	0.034684	0.099591	0.1645	0.35622	0.24856	0.31448	0.14583	0.1875	0.64167	-0.55208	0.2125	0.072917	-0.28125	0.45625	-0.14375	0.039583	0.39167	-0.46042	0.2125	0.27708	-0.21458	0.35833	-28.991	111.357	160.346	73.041	83.402	258.813	296.170	107.918	167.748	290.475	296.483	313.162	54.254	292.313	223.011	191.418	0.00017629	0.00078902	0.00027604	1060.6	6.9988e-06	5.4901e-06	777.63	307.05	3.7213e-06	2.5916e-05	253.27	76.389	96.842	32.463	9.3586e-06	27.736	0.01054	0.019071	0.0055132	1196.9	0.00021797	0.0002406	852.99	333.31	0.00023846	0.00027356	302.8	95.073	118.82	38.752	0.00029034	36.79	172.050	312.114	16.787	-21.467	305.725	210.742	-22.817	-18.182	17.066	98.273	-21.121	-17.681	-15.122	-7.431	160.258	-11.300	-8191	255	
1008.237	1	1	0	0	0.17169	0.14069	0.013632	0.12766	0.13005	0.25633	0.11642	0.078515	0.21475	0.11133	0.12579	0.12623	0.3164	0.28701	0.13582	0.15577	0.22292	-0.058333	0.47708	-0.31042	0.3375	0.3375	-0.53125	0.29792	0.072917	-0.23333	0.22708	-0.39792	-0.20208	0.32292	-0.49167	0.23958	275.216	16.704	42.971	322.513	276.617	-12.463	174.278	244.559	109.907	5.908	287.364	45.731	73.473	253.533	118.169	5.919	0.00013563	0.00051914	0.00023374	1040.1	5.3802e-06	1.1923e-05	775.95	314.53	6.6655e-06	2.4669e-05	259.82	83.797	101.2	33.974	1.7656e-05	29.542	0.016708	0.030551	0.0088509	1272.4	0.00035043	0.0003822	909.46	356.99	0.00036381	0.00041742	344.35	114.14	137.73	44.403	0.00047532	44.875	142.608	70.456	-8.790	-21.842	140.420	104.361	-23.226	-18.600	122.189	75.782	-21.848	-18.755	-16.060	-8.970	12.662	-12.762	-8191	255	
1008.333	1	1	0	0	0.21819	0.13434	0.12147	0.28697	0.14117	0.059006	0.073303	0.23973	0.096941	0.14274	0.25068	0.17188	0.29078	0.18261	0.36729	0.16317	0.34792	-0.17917	0.60625	-0.11875	0.13542	0.425	-0.57708	0.24792	0.21458	-0.44167	0.425	-0.45208	-0.17917	0.22917	-0.15833	0.22083	-21.878	86.775	195.241	60.595	148.251	-22.335	249.426	260.864	-21.439	229.624	273.964	-8.841	294.893	309.452	214.582	308.012	8.7165e-05	0.00073877	0.00035527	1012	7.0488e-06	7.9234e-06	770.42	302.36	7.2244e-06	1.1109e-05	249.11	86.243	102.55	36.035	8.6808e-06	32.125	0.026467	0.047412	0.013471	1377	0.00051442	0.00056934	976.81	370.72	0.00054587	0.00062541	376.05	130.4	153.82	50.9	0.00065159	52.98	207.551	187.893	7.643	-21.869	176.068	306.876	-23.199	-19.045	65.538	181.273	-22.098	-18.924	-16.430	-10.367	242.060	-14.008	-8191	255	
1008.429	1	1	0	0	0.17379	0.30534	0.098099	0.18543	0.03852	0.044478	0.28777	0.25667	0.25505	0.44774	0.1974	0.2018	0.20118	0.057702	0.20826	0.31346	0.5625	-0.24583	0.46458	-0.10833	-0.13125	0.39375	-0.29375	0.19792	0.16042	-0.19375	0.51458	-0.40208	-0.089583	0.40417	-0.40833	0.16042	176.511	78.001	272.702	237.223	267.412	-34.958	247.230	263.876	278.010	163.077	224.388	83.181	97.965	287.246	-22.785	221.090	0.00025023	0.0014056	9.7119e-05	947.17	1.3067e-05	2.0156e-05	708.71	258.59	1.0724e-05	1.3242e-05	205.91	76.765	90.405	37.325	2.5497e-05	33.407	0.036055	0.065016	0.018704	1462.8	0.00072942	0.00080765	1005.7	355.2	0.00074801	0.00084651	377.52	135.5	158.77	56.925	0.00085851	61.089	153.454	275.067	50.595	-22.065	130.003	-6.267	-23.542	-18.668	256.298	250.446	-21.293	-17.963	-16.039	-12.001	132.064	-14.758	-8191	255	
1008.523	1	1	0	0	0.055318	0.13258	0.17549	0.08895	0.27271	0.11856	0.21991	0.2246	0.12197	0.22022	0.013502	0.38562	0.24882	0.095619	0.02915	0.074279	0.44792	-0.33542	0.42292	-0.0020833	-0.15833	0.65208	-0.45417	-0.0041667	0.34792	-0.57917	0.23125	-0.11667	-0.50625	0.39792	-0.175	0.091667	-6.922	288.374	182.625	220.298	236.823	186.894	-16.681	281.313	16.526	183.713	291.397	216.938	-24.607	282.967	15.799	-12.977	0.00035827	0.0012661	0.0004383	871.27	7.4368e-06	1.6949e-05	637.05	227.5	1.7695e-05	2.1154e-05	179.57	73.692	86.688	38.429	2.058e-05	34.23	0.04754	0.086103	0.024503	1548.2	0.00093382	0.0010227	1019.9	349.78	0.00092571	0.0010466	393.13	145.9	169.91	62.169	0.0010244	67.06	151.219	15.034	16.909	-23.069	259.609	-12.066	-23.536	-18.454	168.051	74.224	-20.609	-17.617	-15.721	-12.908	130.962	-14.708	-8191	255	
1008.619	1	1	0	0	0.17548	0.044787	0.069933	0.2816	0.20499	0.19747	0.17581	0.060725	0.1123	0.096985	0.067855	0.23085	0.10261	0.11175	0.062205	0.043176	0.71458	-0.42083	0.46042	0.15417	-0.43542	0.46667	-0.40625	-0.15417	0.24792	-0.28958	0.33333	0.25625	-0.48333	0.53125	-0.029167	-0.25	43.855	256.462	60.433	279.846	91.499	232.361	228.416	223.158	164.149	23.257	98.547	-29.342	-17.690	142.472	57.723	95.339	0.0001638	0.0040696	0.00023688	802.27	2.9306e-05	1.7959e-05	571.26	210.63	1.5292e-05	4.7419e-06	168.42	71.027	83.272	36.789	4.8573e-06	32.962	0.056123	0.10014	0.027997	1574.2	0.0010467	0.001129	990.56	340.9	0.00097562	0.0010846	384.05	143.33	166.42	59.807	0.00099389	64.279	110.459	89.530	67.608	-22.622	220.296	51.253	-23.350	-17.817	181.659	309.845	-20.767	-17.390	-15.010	-12.456	264.143	-14.671	-8191	255	
1008.717	1	1	0	0	0.25253	0.20665	0.075183	0.059914	0.20504	0.20465	0.15563	0.24863	0.25325	0.17778	0.10374	0.11032	0.29792	0.087123	0.11545	0.11648	0.83333	-0.39375	0.32708	0.35625	-0.41667	0.4375	-0.31458	-0.25	0.48333	-0.4125	0.010417	0.40625	-0.43542	0.41875	0.058333	-0.20833	150.799	174.775	297.065	250.096	174.668	163.382	185.859	214.530	77.450	238.892	153.343	27.105	311.154	-33.460	132.729	78.495	0.00031009	0.0024093	0.00046022	781.48	1.043e-05	2.1744e-05	547.93	201.18	1.1875e-05	3.2318e-05	160.68	68.922	81.132	35.887	6.869e-06	32.139	0.053682	0.094965	0.026451	1508.1	0.00098093	0.0010539	938.87	322.28	0.00090283	0.0010054	361.19	136.21	159.54	57.575	0.00093389	61.731	34.282	170.667	237.108	-22.096	149.438	133.440	-23.295	-18.267	56.621	105.241	-19.498	-17.062	-14.505	-12.071	275.394	-14.584	-8191	255	
1008.836	1	1	0	0	0.21742	0.07951	0.10063	0.015563	0.16488	0.10608	0.14063	0.31688	0.24554	0.1669	0.26255	0.11908	0.088897	0.18168	0.049553	0.26303	0.95833	-0.21458	0.0875	0.51458	-0.26042	0.41667	0.25625	-0.34583	0.49375	-0.13542	-0.05625	0.4	-0.40625	0.16458	-0.0375	-0.32917	252.078	-35.455	120.291	30.845	-20.744	198.563	226.981	221.194	231.249	113.637	278.537	253.777	129.408	187.183	218.483	227.578	0.00054786	0.002122	0.00070327	771.03	7.4136e-06	4.5266e-05	545.82	195.38	8.0084e-06	1.8945e-05	155.31	66.406	79.247	34.858	2.9739e-05	30.226	0.050626	0.08996	0.025213	1474	0.00094604	0.0010214	922.3	313.35	0.00089196	0.00099845	354.73	133.91	157.19	56.515	0.00093144	59.745	123.465	67.041	-23.504	-21.479	130.844	110.057	-23.340	-18.375	77.950	115.157	-20.676	-17.632	-15.192	-11.767	78.624	-13.895	-8191	255	
1008.932	1	1	0	0	0.068249	0.087336	0.22274	0.079548	0.11641	0.26954	0.20395	0.238	0.27554	0.48616	0.14291	0.34635	0.12339	0.3403	0.14839	0.18205	0.78542	-0.05	0.13333	0.4875	-0.39792	0.26458	0.091667	-0.37917	0.39792	-0.016667	-0.14167	0.45	-0.23958	0.0375	0.33542	-0.46667	236.697	45.461	250.809	257.160	-28.607	245.204	179.301	285.948	-20.052	277.475	83.598	-27.394	-30.398	298.452	62.215	70.922	0.00024932	0.00040996	0.00029088	753.56	1.9171e-05	2.9257e-05	517.74	182.39	5.948e-06	9.5765e-06	145.46	60.449	74.019	31.729	1.3354e-05	27.79	0.049932	0.087551	0.024242	1418.7	0.00089927	0.00096186	870.89	293.88	0.00084445	0.00094155	334.77	125.26	147.59	52.55	0.0008961	56.285	96.074	103.466	24.641	-21.510	209.651	108.511	-23.445	-17.207	259.662	113.785	-19.560	-16.360	-13.740	-11.179	263.791	-14.024	-8191	255	
1009.029	1	1	0	0	0.11846	0.10079	0.18339	0.30208	0.028302	0.27802	0.13289	0.3742	0.18671	0.076072	0.068851	0.15495	0.032645	0.25807	0.29462	0.20069	0.7375	0.027083	-0.025	0.39583	-0.37917	0.12083	0.40417	-0.47917	0.44167	0.24167	-0.37708	0.42708	-0.28958	-0.033333	0.33958	-0.43958	226.901	87.816	115.595	253.403	259.830	166.841	144.590	-29.235	320.477	171.008	141.970	174.399	-21.800	221.845	-23.382	256.604	3.2246e-05	0.0020348	0.00050836	735.02	1.8538e-05	8.2725e-06	504.99	176.4	1.1524e-05	5.5996e-06	139.85	58.016	70.522	31.127	9.7942e-06	27.432	0.04847	0.085039	0.023613	1389.3	0.0008872	0.00094989	855.43	287.77	0.00084067	0.00093763	329.66	122.96	145.33	51.949	0.00089716	55.567	-28.010	17.292	231.720	-21.377	-31.011	218.858	-22.813	-17.373	-35.270	233.675	-21.033	-16.737	-14.226	-11.291	45.243	-13.329	-8191	255	
1009.125	1	1	0	0	0.20409	0.1186	0.025321	0.16942	0.17039	0.087436	0.17269	0.16995	0.080341	0.31914	0.12079	0.053935	0.10937	0.28389	0.24318	0.069983	0.62917	0.16042	-0.38958	0.58958	-0.37708	-0.0083333	0.37292	-0.375	0.27917	0.23125	-0.1875	0.59375	-0.23333	-0.19792	0.36042	-0.50417	262.203	2.916	81.919	144.319	190.831	223.314	-12.469	227.926	291.149	-7.972	51.327	-27.190	64.894	258.321	106.045	211.007	0.00022873	0.00051995	0.0010598	724.23	1.5245e-05	8.5069e-06	493.6	170.88	9.9732e-06	3.3661e-05	135.96	57.253	68.28	30.122	5.1981e-06	26.256	0.047311	0.08242	0.022783	1341.2	0.00082884	0.00087915	815.07	272.41	0.00076527	0.00084866	307.14	114.42	134.14	48.256	0.00077945	50.672	122.667	14.712	177.180	-22.056	206.816	94.195	-23.523	-17.132	244.134	140.025	-20.212	-16.635	-13.907	-10.970	81.911	-13.119	-8191	255	
1009.221	1	1	0	0	0.074601	0.093267	0.14862	0.077938	0.41364	0.1648	0.026484	0.13763	0.15366	0.12153	0.17568	0.14182	0.034244	0.039437	0.03988	0.19014	0.74375	0.18125	-0.32708	0.40625	-0.19792	-0.20833	0.16667	-0.26042	0.22708	0.15625	-0.44375	0.5625	-0.12917	-0.37292	0.61042	-0.58333	58.823	237.755	116.633	248.970	292.376	273.914	-12.720	40.677	190.258	154.328	73.278	260.253	39.460	316.405	267.098	282.728	0.00011865	0.0026558	0.00012988	707.02	9.4773e-06	2.924e-05	481.27	167.95	9.265e-06	1.0434e-05	132.96	56.679	68.248	30.35	1.4739e-05	26.769	0.041112	0.072178	0.020256	1259.2	0.0007494	0.00080574	778.06	262.42	0.0007229	0.00081393	300.31	112.46	134.18	48.701	0.0008053	52	149.793	36.521	27.122	-21.790	-7.343	233.658	-22.805	-16.858	298.344	243.103	-20.459	-17.084	-14.513	-10.927	286.806	-14.468	-8191	255	
1009.317	1	1	0	0	0.13229	0.12877	0.16161	0.13276	0.17646	0.05298	0.36477	0.26256	0.19824	0.20641	0.21127	0.26418	0.24782	0.043633	0.087742	0.23181	0.35417	0.54375	-0.3125	0.40208	0.20417	-0.25	0.47708	-0.37708	-0.0020833	0.31875	-0.33542	0.21667	0.014583	-0.37708	0.5375	-0.37083	25.257	225.216	259.056	317.607	89.694	237.169	242.723	0.901	282.090	193.047	212.573	265.833	68.317	27.039	38.803	320.599	0.00035671	0.00043687	0.00057436	710.96	3.9861e-06	1.7568e-05	486.22	171.38	1.1614e-05	1.8344e-05	138.62	57.923	71.788	31.255	1.844e-05	27.471	0.043126	0.075975	0.02124	1287	0.00077463	0.00083171	792.51	267.43	0.00071836	0.00080072	298.44	111.91	133.13	48.651	0.00075349	51.137	44.293	131.061	297.678	-22.737	18.959	105.521	-23.174	-17.237	68.876	174.303	-19.813	-17.110	-14.726	-10.951	102.546	-13.446	-8191	255	
1009.438	1	1	0	0	0.21765	0.20567	0.088548	0.16115	0.20727	0.04915	0.3133	0.37551	0.1324	0.19874	0.23517	0.12521	0.23407	0.1813	0.14835	0.11117	0.22083	0.63958	-0.25417	0.21042	0.1	-0.55	0.37292	-0.24167	0.11875	0.37292	-0.45208	0.10417	0.25833	-0.43125	0.48542	-0.12708	105.162	44.944	49.528	23.338	204.539	186.356	-18.522	242.331	72.828	270.264	41.374	45.915	320.254	245.937	118.205	-33.401	0.00013648	0.00053642	0.00024863	744.96	2.2563e-05	6.2311e-06	496.45	178.47	5.9174e-06	2.1279e-05	138.48	58.335	72.536	31.533	8.4236e-06	26.816	0.040047	0.070802	0.019603	1265.5	0.00072512	0.00077612	778.33	265.88	0.00066443	0.00074349	288.35	107.66	128.86	47.298	0.00069076	48.614	222.999	173.546	316.720	-21.934	248.402	278.125	-23.402	-16.934	286.927	203.391	-20.228	-16.838	-13.667	-10.832	-11.777	-12.499	-8191	255	
1009.534	1	1	0	0	0.35524	0.23817	0.061797	0.3117	0.14615	0.060766	0.085838	0.29947	0.11491	0.29569	0.28148	0.080131	0.072326	0.25763	0.29966	0.20611	0.22708	0.5375	-0.28333	-0.027083	0.3375	-0.33125	0.24583	-0.35208	-0.37917	0.41875	-0.48333	0.10417	0.41042	-0.33333	0.24167	0.0041667	196.743	181.965	303.385	316.656	203.413	261.727	256.084	288.030	-12.958	214.598	6.679	70.512	314.598	-22.792	239.443	-15.522	5.2738e-05	0.001127	0.00028498	745.81	2.6089e-05	3.7281e-05	495.91	182.41	1.8394e-05	1.6672e-05	141.21	57.811	72.431	30.582	7.9598e-06	26.396	0.036462	0.064128	0.017833	1220.6	0.00065054	0.00070287	753.22	262.34	0.00061135	0.00068027	276.43	102.48	123.63	44.811	0.00060662	44.832	180.294	118.095	42.547	-21.816	71.930	212.567	-23.091	-17.158	302.670	88.841	-19.022	-15.833	-13.289	-10.021	164.653	-12.096	-8191	255	
1009.628	1	1	0	0	0.16887	0.15946	0.089573	0.22066	0.15211	0.099155	0.098948	0.33924	0.26699	0.11396	0.068243	0.14922	0.095615	0.12302	0.082153	0.10821	0.27708	0.53958	-0.0625	-0.016667	0.38125	-0.44375	0.34792	0.12083	-0.48125	0.33333	-0.12083	-0.11042	0.21458	-0.40208	0.12708	0.24167	-17.527	212.198	155.589	263.888	271.470	272.309	204.669	-21.728	231.761	275.883	134.543	53.835	179.776	31.197	184.812	30.378	0.0001717	0.0014123	0.00050981	747.6	2.3833e-05	7.4831e-06	483.48	187.09	1.3061e-05	2.4609e-05	142.69	57.419	74.663	30.894	1.5887e-05	26.217	0.031605	0.055315	0.015095	1147.9	0.00054904	0.00059179	695.95	254.41	0.00052583	0.00059517	262.93	98.39	121.96	44.259	0.00059595	45.002	145.045	157.304	1.097	-21.738	205.570	52.285	-22.468	-17.176	223.982	55.537	-18.383	-15.588	-13.487	-8.961	237.710	-12.493	-8191	255	
1009.700	1	1	0	0	0.37461	0.20978	0.10219	0.18564	0.11008	0.01952	0.34645	0.37324	0.10954	0.19451	0.089845	0.21268	0.067499	0.26649	0.26532	0.28489	-0.05	0.32917	-0.010417	-0.12917	0.54167	-0.28542	0.03125	0.089583	-0.30208	0.13542	-0.20208	-0.31875	0.40208	-0.43125	-0.060417	0.38542	-4.481	237.158	286.295	-14.352	16.723	248.602	200.444	293.508	235.727	322.361	256.201	0.921	5.027	210.924	241.322	164.157	9.1963e-05	0.0024576	0.00076126	766.02	1.8138e-05	2.1807e-05	487.39	192.18	1.7064e-06	1.7822e-05	145.22	57.713	74.676	30.641	1.1817e-05	25.299	0.032965	0.058921	0.016565	1210	0.00062459	0.00067504	734.96	270.67	0.00060736	0.00068128	282.05	103.8	128.05	45.57	0.00063781	45.516	-12.761	13.172	80.292	-21.481	194.910	56.175	-22.737	-16.360	14.382	195.456	-18.738	-15.598	-13.318	-8.953	55.193	-11.495	-8191	255	
1009.820	1	1	0	0	0.28287	0.1565	0.17667	0.10328	0.19648	0.31977	0.1307	0.036661	0.16548	0.22206	0.10345	0.20196	0.18436	0.23445	0.086888	0.070247	0.029167	0.26042	0.066667	-0.225	0.5375	-0.25625	0.06875	0.23333	-0.3625	0.22708	0.17708	-0.24375	0.49375	-0.26042	-0.022917	0.45625	-19.647	282.278	323.908	243.411	230.921	23.247	180.385	33.375	98.557	227.795	8.705	1.682	119.771	252.260	-24.843	176.201	5.4406e-05	0.001296	0.00068249	770.4	2.9101e-05	1.5325e-05	491.24	199.3	2.0295e-05	7.6966e-06	149.22	59.846	78.278	32.213	2.8775e-05	26.543	0.034188	0.059779	0.016483	1203.5	0.00060702	0.00064378	719.27	271.01	0.00056144	0.00062042	272.96	102.18	126.82	45.609	0.00058964	44.992	142.984	261.829	136.804	-21.304	209.568	89.436	-22.174	-16.416	82.172	25.970	-19.176	-15.799	-12.977	-8.873	183.994	-11.758	-8191	255	
1009.917	1	1	0	0	0.12856	0.23153	0.43154	0.083754	0.11838	0.16486	0.24178	0.19677	0.076284	0.083438	0.2733	0.029884	0.098604	0.15586	0.22253	0.16626	0.05625	0.19583	0.17708	-0.50833	0.4	-0.16042	-0.125	0.37708	-0.59375	0.15833	0.25833	-0.47917	0.4875	-0.13542	0.01875	0.38958	295.579	106.827	247.987	85.406	150.853	106.090	211.151	263.455	-9.452	158.726	325.744	311.375	-26.477	55.689	-5.623	92.345	0.00017453	0.0025091	0.00038227	779.24	2.6803e-05	1.2311e-05	495.25	204.39	6.8187e-06	1.0531e-05	156.74	63.136	81.21	32.946	2.6502e-05	27.437	0.031694	0.055162	0.015174	1180.8	0.00056111	0.00059921	710.69	273.52	0.00053392	0.00059545	274.49	103.28	128.34	46.113	0.00057821	45.485	313.340	72.202	-3.517	-20.773	65.014	95.032	-21.392	-16.253	134.741	58.680	-18.830	-15.668	-12.856	-8.612	207.762	-11.588	-8191	255	
1010.013	1	1	0	0	0.2187	0.1385	0.098706	0.10196	0.18522	0.025661	0.33407	0.38929	0.21272	0.21834	0.026046	0.32159	0.19612	0.053451	0.1055	0.1662	0.2125	0.066667	0.20833	-0.51458	0.45	-0.125	-0.18542	0.35	-0.27917	0.12083	0.46875	-0.49167	0.45	0.0125	-0.23542	0.32917	147.861	206.125	235.390	299.110	280.964	269.913	326.144	294.021	186.081	254.047	156.649	48.605	-31.728	6.483	223.082	259.595	9.6242e-05	0.00057956	5.8257e-05	782.22	1.7019e-05	1.4692e-05	504.77	210.36	1.1942e-05	1.8188e-05	155.8	62.541	81.064	32.672	1.1128e-05	26.562	0.031016	0.054251	0.015016	1186.7	0.00055137	0.00058768	714.97	275.27	0.0005101	0.00056441	268.25	100.09	123.97	44.456	0.00051475	42.726	282.078	245.845	106.827	-20.754	24.230	227.243	-21.778	-15.857	193.741	133.821	-18.797	-14.846	-12.603	-8.556	193.100	-11.612	-8191	255	
1010.109	1	1	0	0	0.10948	0.25661	0.17811	0.21391	0.082688	0.096582	0.16665	0.14413	0.23767	0.18009	0.20078	0.22297	0.11414	0.11076	0.098236	0.037159	0.2375	0.20417	0.41875	-0.3	0.40833	0.17917	-0.45625	0.47708	-0.15417	-0.09375	0.26458	-0.39792	0.2875	0.22292	-0.39375	0.49375	205.931	-11.711	284.464	233.888	297.613	4.472	181.512	183.873	277.214	71.462	-3.184	99.110	295.415	35.480	265.681	-9.715	0.00017401	0.0017536	0.0005273	797.81	1.8079e-05	7.775e-06	509.91	210.69	1.5973e-05	1.5376e-05	154.32	59.857	78.12	30.91	1.4118e-05	25.353	0.027433	0.047747	0.013325	1149.4	0.00048683	0.00051536	691.94	265.67	0.00043786	0.00047816	246.29	90.686	112.99	40.234	0.00040885	37.678	244.850	84.328	56.639	-20.598	281.778	304.531	-22.346	-16.106	13.750	171.199	-19.074	-15.097	-12.579	-8.003	200.155	-10.506	-8191	255	
1010.230	1	1	0	0	0.033555	0.18167	0.14147	0.29917	0.1497	0.21551	0.13308	0.14325	0.25535	0.18091	0.17655	0.060545	0.10722	0.27368	0.12296	0.094912	0.225	-0.18333	0.56667	-0.31667	0.15208	0.29167	-0.63958	0.26667	-0.0125	-0.085417	0.53542	-0.26875	-0.075	0.3625	-0.48125	0.17292	72.086	167.817	86.784	298.837	204.588	143.367	294.092	307.686	50.209	78.679	219.433	97.317	124.737	287.514	60.441	252.288	0.00027812	0.00056476	0.00078039	829.22	4.8147e-06	2.4589e-05	532.46	206.24	1.2088e-05	1.3689e-05	150.98	58.54	76.319	30.454	3.2506e-06	25.852	0.020975	0.036565	0.010032	1074.5	0.00035981	0.00038495	662.38	246.48	0.00033136	0.00036829	222.03	82.476	103.59	38.127	0.00034576	36.329	159.078	257.067	12.347	-20.387	199.199	74.553	-21.876	-16.115	298.254	157.651	-18.703	-14.746	-12.071	-7.889	288.875	-11.165	-8191	255	
1010.301	1	1	0	0	0.15509	0.20827	0.30269	0.32045	0.074792	0.1935	0.27355	0.13227	0.13364	0.037429	0.24127	0.15995	0.10022	0.22783	0.16015	0.11157	0.4125	-0.075	0.61458	-0.22083	-0.12917	0.46042	-0.55625	0.1375	-0.20417	-0.30833	0.50417	-0.24583	-0.04375	0.275	-0.27292	0.175	-1.421	102.540	93.139	265.729	298.910	-31.240	317.443	317.125	-27.967	115.302	310.156	8.720	274.863	7.191	80.674	128.811	0.00020485	0.0013218	0.00032099	836.61	4.8322e-06	1.0528e-05	569.34	205.54	4.6183e-06	1.3103e-05	157.35	59.423	75.349	31.451	1.3779e-05	26.884	0.018636	0.033068	0.0092712	1069.8	0.00034065	0.00036881	694.56	245.96	0.00032347	0.00036281	227.01	83.273	102.81	39.027	0.00033572	36.983	212.484	235.025	79.041	-20.686	86.169	274.967	-21.932	-15.847	325.474	197.810	-19.359	-15.164	-12.422	-8.059	90.984	-11.528	-8191	255	
1010.397	1	1	0	0	0.25918	0.12618	0.18903	0.23319	0.19543	0.23943	0.2784	0.23958	0.19581	0.067701	0.14769	0.46007	0.067664	0.1401	0.16381	0.2462	0.43542	-0.34167	0.35833	-0.31667	-0.15833	0.32292	-0.48542	0.18125	0.22708	-0.49792	0.19583	0.010417	-0.14167	0.49583	-0.38958	0.070833	60.434	231.329	96.442	12.712	299.865	195.975	311.291	2.409	209.319	38.874	122.506	-8.050	274.025	-32.698	288.179	48.985	9.0636e-05	0.00035396	0.00028163	888.47	1.0005e-05	1.0748e-05	644.17	222.27	1.4161e-05	6.9318e-06	175.84	64.553	80.64	32.444	2.3908e-05	27.232	0.018057	0.032254	0.0090223	1112.8	0.00033947	0.00036974	765.47	263.36	0.00033246	0.00037339	248.48	89.374	108.93	40.164	0.00034546	37.781	145.634	114.848	189.116	-21.541	48.420	57.619	-22.606	-17.269	126.088	-29.973	-20.140	-16.685	-13.885	-8.933	204.123	-12.339	-8191	255	
1010.518	1	1	0	0	0.18527	0.11045	0.090604	0.14199	0.024506	0.22455	0.052692	0.30786	0.16785	0.3006	0.26969	0.04151	0.31027	0.10742	0.039608	0.059639	0.725	-0.2625	0.55625	0.035417	-0.24792	0.28125	-0.33542	0.12083	0.325	-0.30208	0.38333	-0.020833	-0.47292	0.48542	-0.375	-0.016667	102.497	-28.061	319.620	316.856	117.162	41.272	289.084	296.095	235.761	320.012	226.320	12.457	214.886	165.955	235.699	-23.350	0.00029564	0.0010028	0.00021325	917.55	2.2846e-05	4.1471e-06	668.71	234.51	1.2853e-05	4.5718e-06	185.18	65.09	81.643	31.102	4.6764e-06	26.558	0.018084	0.031753	0.0087211	1134.9	0.00031812	0.00034368	782.28	269.97	0.00030011	0.00033689	249.29	86.879	107.34	38.328	0.00032866	36.366	158.912	143.182	170.722	-22.092	127.697	162.242	-22.856	-18.149	94.591	31.584	-20.297	-16.352	-14.688	-8.338	200.403	-11.895	-8191	255	
1010.612	1	1	0	0	0.10246	0.20471	0.16784	0.11268	0.15795	0.10539	0.181	0.10959	0.21789	0.11115	0.16868	0.17976	0.26943	0.15253	0.35367	0.18553	0.75417	-0.48542	0.35417	0.125	-0.4125	0.54167	-0.27083	-0.014583	0.61458	-0.32292	0.32083	0.3625	-0.35208	0.425	-0.077083	0.0125	-32.721	87.774	40.703	-13.476	258.621	144.716	240.835	236.162	144.958	44.633	174.833	309.243	209.390	10.139	214.271	-33.857	0.0001839	0.00044311	2.916e-05	947.42	1.0465e-05	2.4036e-05	677.77	240.43	8.4971e-06	1.2278e-05	180.44	60.672	76.44	29.865	6.6878e-06	25.418	0.017587	0.030896	0.0085	1150.5	0.00030943	0.00032675	783.23	272.32	0.00027344	0.00029889	234.82	79.876	97.19	35.36	0.00024717	32.677	244.038	50.441	61.664	-21.733	98.431	116.943	-23.494	-17.812	52.144	126.623	-20.069	-16.316	-14.197	-7.576	124.246	-11.309	-8191	255	
1010.709	1	1	0	0	0.16836	0.10157	0.036823	0.18676	0.11975	0.17705	0.26262	0.036259	0.17515	0.30788	0.26936	0.12887	0.20061	0.18591	0.18247	0.31886	0.90208	-0.175	0.23125	0.22292	-0.38542	0.33333	-0.175	-0.32083	0.56875	-0.21875	0.1875	0.23958	-0.095833	0.23333	-0.1125	-0.18333	265.093	121.041	170.471	314.307	96.881	107.446	311.554	94.533	312.900	166.952	194.587	261.663	2.712	251.449	295.398	-0.339	0.00012273	0.0011376	7.7199e-05	880.21	1.2364e-05	6.9496e-06	595.51	203.79	6.646e-06	1.0616e-05	148.49	55.67	71.419	30.384	5.0451e-06	26.042	0.012865	0.02239	0.0061731	1023.1	0.00023375	0.00025476	676.56	230.19	0.00023763	0.00027249	202.03	74.653	93.965	36.858	0.0002952	35.326	48.136	80.974	247.167	-21.686	44.704	-12.283	-23.032	-17.019	175.886	109.188	-19.843	-15.216	-13.125	-8.125	68.877	-10.795	-8191	255	
1010.805	1	1	0	0	0.11556	0.13724	0.16859	0.17948	0.18043	0.14907	0.39579	0.19275	0.22733	0.05879	0.086633	0.080479	0.11152	0.25891	0.11704	0.14863	0.75417	-0.2625	0.20625	0.46667	-0.25417	0.31667	-0.125	-0.13958	0.7	-0.10208	0.0125	0.45417	-0.35625	0.025	0.060417	-0.12292	93.873	124.518	321.344	164.008	108.704	-28.686	284.144	295.675	238.816	323.005	162.083	196.573	0.451	286.685	103.089	41.649	7.752e-05	0.00095921	0.00053495	811.22	2.303e-06	1.0455e-05	537.6	200.47	4.7899e-06	1.8119e-05	147.92	58.5	75.204	30.865	2.1785e-05	26.188	0.016713	0.030082	0.008458	1028.7	0.00032244	0.00034849	655.61	238.5	0.00031562	0.00034988	216.07	81.668	101.91	38.224	0.00032527	36.029	203.782	-11.279	66.986	-20.807	104.263	-21.669	-22.120	-16.135	47.093	1.863	-19.436	-15.204	-12.151	-8.283	74.140	-11.725	-8191	255	
1010.925	1	1	0	0	0.30425	0.038053	0.11103	0.13705	0.11701	0.076738	0.17867	0.047338	0.071668	0.11676	0.03773	0.2547	0.19606	0.38222	0.25988	0.21324	0.83542	-0.29375	-0.10417	0.43958	-0.33542	0.33333	0.2125	-0.40625	0.47292	-0.022917	-0.077083	0.43958	-0.3125	0.11875	0.070833	-0.51667	114.643	285.017	256.634	289.646	324.254	99.448	294.816	40.210	147.018	306.243	138.270	317.434	305.499	300.370	114.079	251.851	0.00015938	0.0013187	0.00035281	812.02	7.5627e-06	6.4762e-06	535.67	206.21	6.3411e-06	1.1996e-05	152.37	60.044	78.267	31.629	1.0441e-05	26.596	0.017461	0.030305	0.0084655	1023.2	0.00031822	0.00033876	650.36	241.88	0.00030501	0.00034162	217.58	82.989	104.16	38.744	0.00033101	36.688	164.183	212.270	-4.347	-21.527	40.039	187.996	-22.254	-16.320	222.720	98.341	-19.630	-15.241	-12.919	-8.987	110.578	-11.561	-8191	255	
1010.997	1	1	0	0	0.15331	0.2493	0.06003	0.15453	0.21579	0.24357	0.078093	0.15388	0.094115	0.24169	0.23633	0.06014	0.070146	0.13313	0.14335	0.2347	0.66458	0.058333	-0.064583	0.43333	-0.29583	0.24375	0.45	-0.35208	0.47708	-0.027083	-0.041667	0.47083	-0.22083	0.0625	0.42083	-0.46042	201.434	-29.493	97.176	292.594	282.518	233.261	294.766	196.793	308.522	316.470	272.523	158.133	284.311	-31.255	163.427	-21.979	0.0002222	0.0011678	0.00035923	821.6	1.0008e-05	1.0239e-05	545	209.75	6.5952e-06	8.3444e-06	156.08	60.317	78.877	31.517	8.3462e-06	26.721	0.017713	0.030745	0.0085652	1037.8	0.00031553	0.00033708	657.66	244.79	0.0002947	0.00032784	217.95	82.354	103.74	38.364	0.00030976	35.984	239.351	231.369	135.358	-21.113	61.662	241.033	-21.996	-16.160	272.220	321.641	-18.901	-15.018	-12.535	-8.023	101.477	-10.960	-8191	255	
1011.118	1	1	0	0	0.31289	0.14288	0.17823	0.22309	0.099811	0.097749	0.3582	0.17677	0.20161	0.16157	0.18751	0.048814	0.16414	0.17243	0.16949	0.15664	0.69167	0.01875	-0.37708	0.2375	-0.31042	0.2125	0.39375	-0.62292	0.38958	0.014583	-0.55	0.35625	-0.33333	-0.2	0.44375	-0.28542	-24.855	47.057	-25.397	283.430	262.391	190.801	129.983	26.032	251.077	295.036	204.382	141.212	-31.215	266.847	242.070	133.277	0.00017721	0.0010464	0.0003519	843.6	1.2753e-05	1.8745e-05	561.91	214.47	6.5204e-06	7.6879e-06	159.43	61.125	79.316	31.663	1.1637e-05	27.191	0.016336	0.028734	0.0079986	1046.8	0.00029264	0.00031333	666	247.36	0.00027386	0.00030915	218.51	81.648	102.68	38.468	0.00030163	36.249	98.473	46.416	93.823	-20.650	123.752	162.948	-22.205	-16.122	46.918	154.591	-18.600	-15.118	-12.325	-8.042	80.770	-10.798	-8191	255	
1011.214	1	1	0	0	0.16167	0.11321	0.15124	0.17925	0.19403	0.15824	0.21776	0.11848	0.081751	0.3044	0.2319	0.14135	0.23441	0.059474	0.14441	0.099828	0.57917	0.19583	-0.36875	0.18125	0.0083333	-0.26667	0.39167	-0.59583	0.14167	0.15833	-0.29583	0.29167	-0.041667	-0.325	0.48542	-0.23333	221.026	9.559	16.801	80.857	105.235	215.416	325.243	294.306	-8.178	28.042	128.030	15.030	0.061	286.445	-20.524	289.954	0.0001542	0.00052948	0.00054969	851.99	7.2624e-06	1.0397e-05	567.91	214.06	4.7302e-06	7.1669e-06	158.87	62.467	80.153	32.291	1.2823e-05	27.236	0.016223	0.028601	0.0080669	1053.9	0.00029787	0.00032034	674.59	248.38	0.00027867	0.00031171	218.92	82.397	103.27	38.668	0.00029478	36.306	148.272	132.023	260.748	-21.130	191.501	2.016	-22.282	-15.793	251.281	195.989	-18.976	-15.082	-12.411	-8.023	108.443	-10.702	-8191	255	
1011.310	1	1	0	0	0.13865	0.013782	0.16365	0.35735	0.2262	0.32393	0.10379	0.2865	0.10144	0.056915	0.11242	0.18544	0.19802	0.20829	0.11736	0.20359	0.44792	0.41667	-0.35833	0.14583	0.089583	-0.28333	0.4625	-0.31667	0.17917	0.28333	-0.34583	0.4125	0.08125	-0.43542	0.42292	-0.25208	27.183	324.926	266.085	156.011	254.125	304.352	-20.269	254.923	59.833	148.349	250.474	176.598	20.744	299.099	204.486	300.826	0.00016336	0.00023267	0.00050093	861.32	4.5545e-06	3.0618e-06	567.23	217	3.0165e-06	6.8629e-06	164.32	64.762	82.556	33.702	1.459e-05	28.457	0.015809	0.028103	0.0078744	1050	0.00029346	0.0003181	670.25	250.45	0.00028602	0.00032081	224.27	86.234	107.69	40.502	0.00030776	38.044	226.370	97.206	33.704	-20.901	4.607	307.137	-22.499	-16.412	252.081	305.652	-18.926	-15.528	-12.507	-8.365	99.302	-11.455	-8191	255	
1011.406	1	1	0	0	0.18696	0.25069	0.15054	0.11955	0.23008	0.2602	0.33547	0.26298	0.33133	0.24185	0.09883	0.15261	0.33224	0.29738	0.069878	0.055775	0.21667	0.45833	-0.18542	0.2625	0.21042	-0.35417	0.27083	-0.37292	-0.11875	0.47917	-0.51042	0.05625	0.20417	-0.45625	0.525	-0.15417	208.815	-21.510	198.649	-11.577	137.180	89.488	237.251	279.329	140.813	77.706	136.434	292.417	279.628	280.062	103.669	268.541	0.00014953	0.0013279	0.00045011	865.24	2.7534e-06	1.026e-05	569.28	223.74	2.5677e-06	1.9239e-05	170.3	69.268	89.009	35.925	2.1768e-06	30.8	0.016647	0.029842	0.0083558	1071	0.00031536	0.00034402	685.5	261.27	0.00031538	0.00035997	240.46	93.851	117.81	44.127	0.00037558	42.66	160.330	311.091	-5.163	-21.070	226.214	124.622	-22.390	-15.821	-29.906	99.274	-19.440	-15.287	-12.945	-8.787	148.588	-11.859	-8191	255	
1011.525	1	1	0	0	0.10481	0.18542	0.1831	0.11084	0.16754	0.19742	0.30146	0.092531	0.056314	0.066586	0.25345	0.14406	0.16902	0.13421	0.1061	0.35783	0.22708	0.43125	-0.32292	0.077083	0.41042	-0.33958	0.4	-0.12917	-0.22708	0.67292	-0.17917	-0.16458	0.4125	-0.50625	0.26458	0.041667	252.423	152.605	29.545	41.471	254.731	324.276	208.329	79.824	18.948	110.236	273.158	33.304	263.245	217.075	251.742	182.110	9.0017e-05	0.0012196	0.00055179	844.84	6.8169e-06	6.5432e-06	548.08	227.94	7.3591e-06	4.396e-06	177.53	78.486	97.944	40.767	2.8171e-06	37.764	0.021136	0.038499	0.011016	1139.7	0.00044107	0.00049155	726.46	288	0.00048922	0.000576	295.94	119.5	148.55	55.75	0.00068104	59.876	160.377	104.557	9.394	-21.117	-25.454	94.120	-22.036	-16.400	204.418	99.822	-19.659	-15.888	-13.700	-10.026	142.460	-12.880	-8191	255	
1011.597	1	1	0	0	0.18939	0.13009	0.12913	0.29244	0.068424	0.15704	0.10327	0.35156	0.081001	0.32354	0.16808	0.29334	0.22445	0.21869	0.14705	0.2891	0.039583	0.55417	-0.15	0.10417	0.3625	-0.37708	0.12917	0.03125	-0.21875	0.29375	-0.40833	-0.18125	0.55	-0.48333	0.18958	0.30208	290.774	159.760	130.705	263.890	198.601	191.617	325.602	-5.388	-33.325	62.948	18.625	313.496	152.367	290.130	5.005	266.533	0.00022826	0.0016702	0.00029413	784.93	1.9583e-05	2.2917e-05	527.51	240.53	2.9026e-05	1.2007e-05	199.33	91.122	111.29	46.862	7.265e-06	43.004	0.040153	0.073676	0.021254	1381.9	0.0008474	0.00093672	883.28	355.52	0.00087532	0.00097805	393.21	156.88	185.6	67.393	0.00087963	70.301	189.671	59.589	212.318	-20.952	277.489	80.182	-21.691	-16.018	149.409	185.545	-19.367	-16.047	-13.941	-10.728	275.976	-13.490	-8191	255	
1011.693	1	1	0	0	0.070232	0.12946	0.17394	0.077539	0.25058	0.17244	0.14198	0.25255	0.12852	0.24841	0.26761	0.065517	0.34276	0.19816	0.19324	0.18112	0.016667	0.625	-0.13958	-0.020833	0.45833	-0.18333	0.19167	0.31667	-0.12708	0.35208	-0.12292	-0.21667	0.46458	-0.29167	0.054167	0.37708	297.116	273.612	-20.952	243.306	177.290	308.838	256.079	297.955	116.271	42.130	-18.183	221.545	268.099	308.418	273.145	24.236	0.00024495	0.00018231	0.00021964	810.92	3.0352e-05	1.5967e-05	550.58	251.36	2.892e-05	1.5912e-05	201.49	90.182	111.31	45.349	1.7002e-05	40.805	0.046243	0.080529	0.022135	1402.6	0.00080133	0.00085175	858.68	346.6	0.00071644	0.00078768	354.63	141.23	168.89	61.362	0.00069424	62.742	145.982	113.467	179.966	-20.544	174.517	80.744	-21.824	-16.476	117.483	178.071	-19.269	-16.680	-14.037	-9.799	204.907	-12.587	-8191	255	
1011.789	1	1	0	0	0.052608	0.096743	0.10175	0.31649	0.17684	0.22543	0.12779	0.24311	0.073029	0.11042	0.25976	0.30568	0.058771	0.071841	0.14166	0.15606	-0.020833	0.53542	0.0083333	-0.18333	0.59375	-0.33542	-0.077083	0.24583	-0.25208	0.40417	0.11667	-0.47708	0.38333	-0.35208	0.041667	0.37083	74.185	41.080	315.148	319.938	178.396	241.543	201.284	221.712	-3.556	165.905	12.518	256.451	179.745	303.261	166.945	139.441	0.00018915	0.00079721	0.00030827	831.23	2.2514e-05	1.1963e-05	562.37	255.28	1.1057e-05	9.3828e-06	205.17	89.764	111.05	44.575	1.1509e-05	40.787	0.037586	0.066149	0.018611	1334.5	0.00069635	0.00074454	830.43	337.06	0.0006331	0.00068938	338.6	135.5	162.42	59.167	0.00063161	60.652	112.357	81.179	51.130	-20.986	107.131	22.938	-22.077	-16.973	307.428	114.009	-19.097	-16.171	-13.595	-10.054	-21.820	-12.599	-8191	255	
1011.910	1	1	0	0	0.22641	0.22288	0.17289	0.10297	0.28228	0.1856	0.099507	0.060142	0.22235	0.078058	0.076296	0.41036	0.095598	0.24979	0.1567	0.24984	-0.066667	0.23333	0.175	-0.30625	0.27708	-0.24792	-0.072917	0.56042	-0.27917	0.17083	0.34167	-0.325	0.25	0.0041667	-0.20833	0.44792	164.748	42.408	115.506	285.123	172.937	260.907	288.123	206.306	74.559	245.185	275.168	243.822	86.149	298.341	251.652	218.382	0.000426	0.0025755	0.00091031	833.96	2.0458e-05	3.5391e-05	575.73	257.35	1.4888e-05	2.6691e-05	209.76	92.857	113.83	46.379	1.6868e-05	42.822	0.034357	0.060456	0.017017	1296.5	0.0006357	0.00068217	821.35	337.04	0.00061151	0.00067656	343.91	139.27	166.74	61.5	0.00067079	63.897	193.419	101.917	-20.345	-20.747	-18.027	111.168	-22.162	-16.701	275.559	111.905	-19.503	-16.373	-13.579	-9.947	96.609	-13.054	-8191	255	
1012.006	1	1	0	0	0.061836	0.36816	0.22975	0.34308	0.41361	0.079065	0.048462	0.2458	0.088147	0.26158	0.15582	0.20054	0.05135	0.14746	0.05752	0.17683	-0.10417	0.085417	0.55208	-0.24167	0.4	0.05625	-0.2125	0.43958	-0.26667	0.035417	0.29167	-0.40417	0.26875	-0.06875	-0.38333	0.35	209.094	56.916	270.640	197.966	-19.535	210.097	239.118	-33.636	261.540	94.306	92.090	-22.310	-8.996	289.860	28.071	31.201	0.00017533	0.0017695	0.000191	830.61	8.6736e-06	1.9661e-05	571.48	259.11	6.4683e-06	1.653e-05	210.38	92.594	112.13	46.506	1.8229e-05	42.19	0.036281	0.063904	0.017853	1307.1	0.0006539	0.00069247	820.17	335.36	0.00057747	0.00062694	331.92	133.3	156.87	58.698	0.00052613	57.936	71.898	79.003	36.085	-20.794	-13.861	-26.838	-22.020	-16.722	144.153	75.308	-19.253	-16.183	-13.655	-9.634	115.069	-12.828	-8191	255	
1012.102	1	1	0	0	0.12127	0.1866	0.12994	0.15171	0.087215	0.20172	0.19593	0.044952	0.22396	0.20079	0.17739	0.11188	0.16671	0.35017	0.050927	0.17039	0.095833	0.10625	0.43958	-0.28542	0.31042	0.17083	-0.42292	0.39375	-0.30417	0	0.63542	-0.41875	0.14583	0.15208	-0.27917	0.45833	91.258	73.873	216.200	101.907	36.283	208.643	299.621	268.637	-28.760	301.306	153.133	230.722	313.965	284.042	86.986	49.587	4.6663e-05	0.00083978	0.00072521	823.4	1.7763e-05	3.1095e-05	565.17	253.1	1.4432e-05	1.0464e-05	206.21	89.323	108.53	45.435	4.8013e-06	40.989	0.02649	0.045599	0.01256	1146.1	0.00045277	0.00048098	735.96	305.54	0.00040904	0.00044843	290.05	116.93	139.58	53.803	0.00038114	52.234	11.799	15.651	134.252	-20.999	293.301	21.527	-22.124	-16.653	316.909	126.140	-18.646	-15.816	-13.512	-9.338	147.485	-12.655	-8191	255	
1012.198	1	1	0	0	0.18976	0.084034	0.10294	0.25525	0.18621	0.15764	0.29423	0.25148	0.20864	0.41566	0.16529	0.35957	0.18289	0.1295	0.19004	0.016487	0.37708	-0.010417	0.68333	-0.3	0.08125	0.25208	-0.45417	0.20625	0.060417	-0.047917	0.43958	-0.225	0.13542	0.33125	-0.40833	0.47708	243.813	316.316	288.813	192.033	129.023	32.906	59.974	-18.262	206.098	296.364	241.697	223.715	272.693	277.629	252.777	116.620	0.0001939	0.00058118	0.00018541	844.68	9.6511e-06	1.3065e-05	580.74	258.64	5.5978e-06	2.0422e-05	209.7	90.379	109.49	45.996	9.684e-06	42.275	0.019827	0.034674	0.0095923	1078.9	0.0003469	0.00037238	708.69	297.22	0.00032048	0.00035767	276.84	112.91	135.64	53.31	0.00032775	51.665	71.297	292.165	188.217	-20.525	126.717	5.814	-21.964	-16.322	58.577	98.418	-19.144	-16.130	-13.102	-9.211	39.202	-12.281	-8191	255	
1012.294	1	1	0	0	0.15745	0.20505	0.11879	0.22463	0.24979	0.32093	0.088624	0.25993	0.082766	0.21618	0.27878	0.25279	0.37022	0.1941	0.26589	0.21984	0.35	-0.20208	0.65417	0.014583	0.10208	0.36458	-0.48958	0.3625	0.23958	-0.33333	0.39792	-0.34792	-0.175	0.39792	-0.3875	0.175	66.058	10.737	56.491	243.202	166.080	74.494	122.987	200.793	143.172	264.027	3.089	-33.981	307.693	278.167	272.951	213.916	0.00010228	0.0014768	0.00076874	849.43	5.465e-06	6.65e-06	598.67	261.1	1.4171e-05	1.2112e-05	215.94	93.682	113.96	48.892	1.6671e-05	44.544	0.01771	0.031463	0.0088373	1075.6	0.00033048	0.00035931	718.86	299.83	0.00032395	0.00036553	285.85	117.6	141.45	56.641	0.00036109	55.271	2.889	29.594	40.469	-20.601	78.222	299.170	-21.976	-16.437	302.294	127.359	-19.234	-16.172	-13.094	-9.172	164.238	-12.959	-8191	255	
1012.390	1	1	0	0	0.33265	0.33951	0.27757	0.053549	0.10065	0.071179	0.21415	0.081962	0.049062	0.16409	0.20744	0.21319	0.074206	0.23685	0.023725	0.20022	0.57083	-0.35833	0.42083	-0.17083	0.054167	0.27708	-0.21667	0.022917	-0.027083	-0.24375	0.49375	-0.28542	-0.11875	0.52083	-0.30208	0.11667	135.918	163.216	299.219	118.410	116.095	115.845	249.008	249.721	260.629	155.671	263.337	219.279	-25.455	222.035	161.318	258.603	5.0511e-05	0.00018113	0.00069097	849.05	8.4046e-06	3.2821e-05	606.63	270.75	1.7257e-06	1.6557e-05	223.97	97.967	119.05	51.041	9.3918e-06	45.64	0.020041	0.035546	0.01007	1105.6	0.00038017	0.00041102	746.72	313.24	0.00035869	0.00040442	300.27	124.32	148.75	59.334	0.00037583	56.757	111.746	178.188	92.762	-20.261	60.572	257.234	-20.996	-16.685	145.192	275.279	-19.430	-15.421	-13.098	-9.625	271.480	-12.511	-8191	255	
#DATA ENDS
