BOXY.EXE: ISS Imagent and Oximeter Data Acquisition Program Version 0.80
Ascii Record File

#ACQ INFORMATION
2  Detector Channels 
16  External MUX Channels 
1  Auxiliary Channels 
5000  Waveform (CCF) Frequency (Hz)
1  Waveforms Skipped 
30  Waveforms Averaged 
1  Cycles Averaged 
16  Acquisitions per Waveform 
10.0806  Updata Rate (Hz) 

#FILE INFORMATION
TRUE -- External MUX Channel results are PARSED.
FALSE -- AC DC and Phase are NOT grouped.
TRUE -- Companion Program Settings File CREATED.
FALSE -- AC data not excluded
FALSE -- DC data not excluded
FALSE -- Phase data not excluded
FALSE -- Auxillary Chn. data not excluded
Tab delimiters

#CALIBRATION STATE
TRUE -- Waveform Calibration Values APPLIED.


#AUX CALIBRATION VALUES
Val Type	aux-1	

Term	1.0000e+00	
Factor	0.0000e+00	


#WF CALIBRATION VALUES
A = Detector Channel
Val Type	A-AC1	A-AC2	A-AC3	A-AC4	A-AC5	A-AC6	A-AC7	A-AC8	A-AC9	A-AC10	A-AC11	A-AC12	A-AC13	A-AC14	A-AC15	A-AC16	A-DC1	A-DC2	A-DC3	A-DC4	A-DC5	A-DC6	A-DC7	A-DC8	A-DC9	A-DC10	A-DC11	A-DC12	A-DC13	A-DC14	A-DC15	A-DC16	A-Ph1	A-Ph2	A-Ph3	A-Ph4	A-Ph5	A-Ph6	A-Ph7	A-Ph8	A-Ph9	A-Ph10	A-Ph11	A-Ph12	A-Ph13	A-Ph14	A-Ph15	A-Ph16	

Term	0.00000e+00	0.00000e+00	0.00000e+00	0.00000e+00	0.00000e+00	0.00000e+00	0.00000e+00	0.00000e+00	0.00000e+00	0.00000e+00	0.00000e+00	0.00000e+00	0.00000e+00	0.00000e+00	0.00000e+00	0.00000e+00	0.00000e+00	0.00000e+00	0.00000e+00	0.00000e+00	0.00000e+00	0.00000e+00	0.00000e+00	0.00000e+00	0.00000e+00	0.00000e+00	0.00000e+00	0.00000e+00	0.00000e+00	0.00000e+00	0.00000e+00	0.00000e+00	0.00000e+00	0.00000e+00	0.00000e+00	0.00000e+00	0.00000e+00	0.00000e+00	0.00000e+00	0.00000e+00	0.00000e+00	0.00000e+00	0.00000e+00	0.00000e+00	0.00000e+00	0.00000e+00	0.00000e+00	0.00000e+00	
Factor	1.00000e+00	1.00000e+00	1.00000e+00	1.00000e+00	1.00000e+00	1.00000e+00	1.00000e+00	1.00000e+00	1.00000e+00	1.00000e+00	1.00000e+00	1.00000e+00	1.00000e+00	1.00000e+00	1.00000e+00	1.00000e+00	1.00000e+00	1.00000e+00	1.00000e+00	1.00000e+00	1.00000e+00	1.00000e+00	1.00000e+00	1.00000e+00	1.00000e+00	1.00000e+00	1.00000e+00	1.00000e+00	1.00000e+00	1.00000e+00	1.00000e+00	1.00000e+00	X	X	X	X	X	X	X	X	X	X	X	X	X	X	X	X	

B = Detector Channel
Val Type	B-AC1	B-AC2	B-AC3	B-AC4	B-AC5	B-AC6	B-AC7	B-AC8	B-AC9	B-AC10	B-AC11	B-AC12	B-AC13	B-AC14	B-AC15	B-AC16	B-DC1	B-DC2	B-DC3	B-DC4	B-DC5	B-DC6	B-DC7	B-DC8	B-DC9	B-DC10	B-DC11	B-DC12	B-DC13	B-DC14	B-DC15	B-DC16	B-Ph1	B-Ph2	B-Ph3	B-Ph4	B-Ph5	B-Ph6	B-Ph7	B-Ph8	B-Ph9	B-Ph10	B-Ph11	B-Ph12	B-Ph13	B-Ph14	B-Ph15	B-Ph16	

Term	0.00000e+00	0.00000e+00	0.00000e+00	0.00000e+00	0.00000e+00	0.00000e+00	0.00000e+00	0.00000e+00	0.00000e+00	0.00000e+00	0.00000e+00	0.00000e+00	0.00000e+00	0.00000e+00	0.00000e+00	0.00000e+00	0.00000e+00	0.00000e+00	0.00000e+00	0.00000e+00	0.00000e+00	0.00000e+00	0.00000e+00	0.00000e+00	0.00000e+00	0.00000e+00	0.00000e+00	0.00000e+00	0.00000e+00	0.00000e+00	0.00000e+00	0.00000e+00	-1.12232e+02	-1.31493e+02	-1.26301e+02	-1.82925e+02	-6.61961e+01	-6.93729e+01	-1.56697e+02	-1.62015e+02	-6.64507e+01	-6.47760e+01	-1.69789e+02	-1.71884e+02	-1.87016e+02	-1.77077e+02	-6.21522e+01	-1.49516e+02	
Factor	1.55884e-05	1.50606e-04	4.28834e-05	2.77585e-01	1.30341e-06	1.75495e-06	1.60847e-01	4.74421e-02	1.05426e-06	1.60286e-06	8.23926e-02	2.73325e-02	3.04750e-02	8.53322e-03	1.33339e-06	1.20591e-02	1.05579e-05	1.86671e-05	5.21731e-06	1.46876e-01	1.94660e-07	2.09585e-07	8.03013e-02	2.53644e-02	1.85624e-07	2.07253e-07	4.25778e-02	1.42240e-02	1.63516e-02	4.59333e-03	1.96714e-07	6.29039e-03	X	X	X	X	X	X	X	X	X	X	X	X	X	X	X	X	



#DISTANCE SETTINGS
A = Detector Channel
A-1	A-2	A-3	A-4	A-5	A-6	A-7	A-8	A-9	A-10	A-11	A-12	A-13	A-14	A-15	A-16	

2.5000e+00	3.0000e+00	2.5000e+00	3.0000e+00	2.0000e+00	3.0000e+00	1.5000e+00	3.0000e+00	3.0000e+00	3.0000e+00	3.0000e+00	3.0000e+00	3.0000e+00	3.0000e+00	1.5000e+00	3.0000e+00	

B = Detector Channel
B-1	B-2	B-3	B-4	B-5	B-6	B-7	B-8	B-9	B-10	B-11	B-12	B-13	B-14	B-15	B-16	

1.0000e+01	1.0000e+01	1.0000e+01	1.4400e+00	1.0000e+01	1.0000e+01	1.5100e+00	1.9400e+00	1.0000e+01	1.0000e+01	1.9900e+00	2.4900e+00	2.4100e+00	2.9000e+00	1.0000e+01	2.9800e+00	




#DATA BEGINS
time	group	step	mark	flag	A-AC1	A-AC2	A-AC3	A-AC4	A-AC5	A-AC6	A-AC7	A-AC8	A-AC9	A-AC10	A-AC11	A-AC12	A-AC13	A-AC14	A-AC15	A-AC16	A-DC1	A-DC2	A-DC3	A-DC4	A-DC5	A-DC6	A-DC7	A-DC8	A-DC9	A-DC10	A-DC11	A-DC12	A-DC13	A-DC14	A-DC15	A-DC16	A-Ph1	A-Ph2	A-Ph3	A-Ph4	A-Ph5	A-Ph6	A-Ph7	A-Ph8	A-Ph9	A-Ph10	A-Ph11	A-Ph12	A-Ph13	A-Ph14	A-Ph15	A-Ph16	B-AC1	B-AC2	B-AC3	B-AC4	B-AC5	B-AC6	B-AC7	B-AC8	B-AC9	B-AC10	B-AC11	B-AC12	B-AC13	B-AC14	B-AC15	B-AC16	B-DC1	B-DC2	B-DC3	B-DC4	B-DC5	B-DC6	B-DC7	B-DC8	B-DC9	B-DC10	B-DC11	B-DC12	B-DC13	B-DC14	B-DC15	B-DC16	B-Ph1	B-Ph2	B-Ph3	B-Ph4	B-Ph5	B-Ph6	B-Ph7	B-Ph8	B-Ph9	B-Ph10	B-Ph11	B-Ph12	B-Ph13	B-Ph14	B-Ph15	B-Ph16	aux-1	digaux	

1018.848	1	1	0	256	0.13887	0.2371	0.036901	0.087529	0.22552	0.15907	0.14393	0.24728	0.31035	0.082461	0.14784	0.23572	0.16214	0.25357	0.17486	0.098439	0.95208	0.075	0.029167	0.4	-0.19375	0.18958	0.3	-0.24583	0.66042	0.16667	-0.1	0.44583	-0.19167	0.27292	0.47083	-0.3375	298.545	63.428	80.956	99.974	321.847	-11.529	65.139	13.872	24.621	166.698	311.061	208.427	61.623	136.090	-9.282	-12.145	7.3456e-05	0.00060907	0.00019732	980.03	3.7448e-06	1.188e-05	715.7	230.89	4.4035e-06	6.7541e-06	182.11	63.812	80.842	32.685	3.9906e-06	25.994	0.0094393	0.016488	0.0045914	1081.3	0.00017129	0.00018212	764.69	248.05	0.00016166	0.00018063	213.34	75.085	94.233	36.076	0.00016775	30.864	49.691	229.286	-30.770	-21.031	193.745	125.333	-22.519	-16.179	62.814	306.536	-18.112	-14.327	-11.449	-6.427	76.575	-9.805	-8191	255	
1018.942	1	1	0	0	0.14295	0.22841	0.10619	0.14525	0.16437	0.070866	0.18135	0.030529	0.21133	0.19245	0.087036	0.46504	0.10321	0.27661	0.20565	0.24235	0.7625	0.058333	-0.0875	0.52708	-0.32708	0.0041667	0.42083	-0.30208	0.58125	0.19792	-0.12917	0.59375	0.033333	0.095833	0.55208	-0.31875	93.916	295.027	188.345	26.653	75.944	-11.770	288.145	313.533	86.500	55.147	300.096	73.738	62.538	248.322	1.141	143.788	2.5571e-05	0.00061828	0.00056034	1000.1	1.2515e-05	4.9542e-06	731.83	230.69	1.3161e-05	1.2258e-05	182.66	61.868	79.142	32.329	1.4719e-06	25.851	0.0091412	0.015958	0.0044261	1093.9	0.0001663	0.00017772	777.97	248.13	0.00015816	0.00017629	212.42	73.272	92.018	35.79	0.00016817	30.613	134.398	21.132	71.308	-20.873	99.796	246.739	-22.297	-15.837	159.390	198.510	-19.156	-13.820	-10.970	-6.325	142.619	-9.644	-8191	255	
1019.040	1	1	0	0	0.10504	0.11953	0.053207	0.096786	0.18913	0.12343	0.26675	0.20077	0.34589	0.27654	0.19205	0.19183	0.069465	0.099096	0.17756	0.18097	0.7125	0.425	-0.066667	0.71458	0.05	0.11667	0.53958	-0.25833	0.57083	0.32917	-0.20417	0.475	0.029167	-0.15417	0.58125	-0.28333	34.075	35.036	74.462	174.534	311.724	102.416	211.154	28.146	93.266	232.221	265.878	304.589	73.351	286.428	288.154	253.537	0.00010699	0.000382	0.00010332	1010.9	3.3146e-06	6.9944e-06	734.91	228.73	4.8663e-06	1.1471e-05	177.92	60.866	77.278	31.664	9.6833e-06	25.88	0.0091232	0.01612	0.0045002	1106.6	0.00017037	0.00018335	785.36	246.3	0.00016437	0.00018653	213.06	73.19	91.325	35.467	0.00018719	31.505	199.290	137.218	45.228	-21.523	130.364	130.094	-22.563	-15.906	-0.205	288.572	-19.036	-14.010	-11.233	-6.154	184.310	-9.464	-8191	255	
1019.159	1	1	0	0	0.19312	0.08553	0.23266	0.2985	0.30652	0.2524	0.14251	0.052731	0.15829	0.13786	0.42447	0.17642	0.091766	0.35228	0.083052	0.22134	0.72708	0.33125	-0.35417	0.6375	0.029167	-0.0020833	0.67292	-0.32292	0.12083	0.4625	-0.24583	0.31458	-0.033333	-0.29167	0.54167	-0.325	276.719	46.888	118.935	287.250	-26.311	40.049	218.064	-33.521	226.176	205.188	172.096	255.110	315.457	-24.567	230.563	195.613	6.6885e-05	0.00038816	0.00015759	979.76	4.5006e-06	5.1098e-06	736.09	221.44	3.1382e-06	4.1369e-06	178.06	62.546	77.081	31.33	7.2649e-06	26.343	0.010362	0.018377	0.0051867	1099	0.00019512	0.00021133	793.62	242.8	0.00018765	0.00021111	216.56	75.918	92.354	35.556	0.0002041	32.537	148.296	5.443	50.782	-20.629	192.680	206.945	-22.256	-15.763	6.369	73.481	-18.880	-13.961	-11.375	-6.268	53.026	-10.305	-8191	255	
1019.231	1	1	0	0	0.1229	0.21553	0.11324	0.29651	0.1951	0.14142	0.45391	0.24135	0.062864	0.15223	0.095226	0.16549	0.23553	0.16068	0.17374	0.12359	0.67917	0.62917	-0.045833	0.46667	0.32708	-0.10208	0.47708	-0.1625	0.20833	0.43125	-0.077083	0.39167	0.2375	-0.17917	0.54792	0.035417	11.797	156.679	141.304	271.067	68.961	163.183	199.889	-27.697	230.993	227.411	271.790	-13.914	290.913	240.845	90.175	238.747	9.1631e-05	0.00026096	0.00012991	986.73	4.1885e-06	4.2291e-06	736.58	222.81	1.4129e-06	1.3597e-05	178.81	65.051	79.9	31.894	1.3124e-05	26.787	0.011186	0.019826	0.0056091	1109.5	0.00020649	0.00022459	799.33	245.83	0.00019794	0.00022286	220.69	79.503	96.786	36.495	0.00021439	33.247	220.885	139.647	144.320	-21.284	169.153	163.380	-22.322	-16.055	243.799	84.969	-18.554	-14.323	-11.517	-6.723	120.110	-9.646	-8191	255	
1019.327	1	1	0	0	0.3497	0.0027511	0.25752	0.13791	0.18616	0.12767	0.17174	0.18703	0.29549	0.16137	0.14825	0.13563	0.32019	0.050831	0.081374	0.15853	0.45208	0.74792	0.01875	0.21667	0.41667	-0.23125	0.57708	-0.11875	0.11458	0.58958	-0.26458	0.33125	0.4125	-0.41875	0.38333	0.20417	233.603	22.045	145.311	79.946	-6.495	109.020	324.753	286.196	138.555	218.916	313.039	209.336	79.884	30.769	19.152	296.738	6.2707e-05	0.00051913	0.00023308	929.56	1.1453e-05	6.3643e-06	670.35	230.2	8.7259e-07	1.0212e-05	183.15	70.927	86.55	31.914	1.0165e-05	27.927	0.011585	0.02052	0.0057246	1063.6	0.00021399	0.00023009	739.68	251.59	0.00020102	0.00022452	223.22	84.747	102.6	36.411	0.00020626	34.034	128.743	156.421	32.659	-21.178	233.919	-20.960	-22.184	-16.101	14.195	32.217	-18.901	-15.046	-12.254	-7.713	82.476	-11.193	-8191	255	
1019.448	1	1	0	0	0.37771	0.11408	0.15977	0.20742	0.15385	0.1351	0.082415	0.20832	0.20326	0.25763	0.2003	0.22941	0.053819	0.10598	0.19361	0.18242	0.47708	0.58542	-0.19792	0.12292	0.42708	-0.39375	0.29167	0.18333	-0.054167	0.64792	-0.33125	0.16875	0.40833	-0.21458	0.49792	0.25208	21.558	283.362	82.040	240.833	-5.419	6.155	210.484	288.168	169.706	-7.441	13.714	264.638	36.528	-26.653	285.692	269.263	7.3804e-05	0.0017406	0.00029173	922.87	1.1309e-05	1.0556e-05	671.76	229.39	4.8182e-06	1.3793e-05	182.1	67.933	83.747	31.43	7.0099e-06	27.46	0.01103	0.019323	0.0054185	1044.7	0.00020015	0.00021737	738.24	250.31	0.00018956	0.00021157	219.9	81.307	98.527	35.617	0.0001951	33.13	127.318	105.985	117.556	-20.984	233.313	-30.536	-22.306	-16.145	300.196	141.409	-18.836	-14.744	-12.067	-7.207	41.236	-10.507	-8191	255	
1019.544	1	1	0	0	0.16087	0.23656	0.30627	0.34074	0.15718	0.31283	0.23977	0.20492	0.11763	0.12181	0.36767	0.14272	0.16157	0.32641	0.18425	0.06949	0.064583	0.63542	0.097917	0.01875	0.47083	-0.20625	0.23333	0.18542	-0.23958	0.56875	-0.029167	-0.21458	0.55	-0.42708	0.33125	0.15625	311.858	122.766	-14.080	-10.388	-1.508	198.870	301.247	250.269	-2.079	84.443	19.337	140.029	197.247	241.505	109.664	25.731	0.00017218	0.00032049	0.00018687	961.89	1.2968e-05	3.0445e-06	718.8	226.82	1.0775e-06	4.7217e-06	182.18	66.06	79.874	31.899	8.4719e-06	27.463	0.010339	0.018193	0.0050447	1071.1	0.00018623	0.0001989	772.57	245.65	0.00017473	0.00019553	216.84	78.284	94.699	35.798	0.0001841	32.899	153.466	50.812	233.917	-21.112	79.868	128.758	-22.362	-16.315	278.981	87.450	-18.803	-13.970	-11.530	-6.529	213.981	-10.038	-8191	255	
1019.640	1	1	0	0	0.11261	0.049472	0.25436	0.13824	0.21321	0.31397	0.23503	0.35535	0.18715	0.20197	0.12113	0.14039	0.060081	0.1532	0.13735	0.37886	0.10417	0.35417	0.04375	-0.010417	0.52292	-0.25417	0.21875	0.39375	-0.085417	0.52917	0.014583	-0.2	0.55833	-0.44583	0.15625	0.35208	248.549	39.398	304.672	246.256	45.005	302.486	258.439	279.972	-34.021	50.177	84.783	169.365	216.955	10.486	233.793	275.922	4.5738e-05	0.00062756	0.00041597	966.88	9.4532e-06	7.0462e-06	713.51	226.47	5.9714e-06	1.1813e-06	180.49	66.217	81.932	31.281	3.5746e-06	26.756	0.010157	0.017878	0.0049637	1072.8	0.00018803	0.00020035	766.89	246.3	0.00017874	0.00020064	216.26	78.728	96.204	35.379	0.00018876	32.131	120.720	170.348	23.565	-20.951	172.606	94.861	-22.441	-16.255	44.932	309.289	-18.913	-14.435	-11.762	-7.166	267.711	-10.219	-8191	255	
1019.761	1	1	0	0	0.15896	0.16334	0.15662	0.14098	0.19501	0.078894	0.054408	0.1491	0.1624	0.1868	0.11763	0.39239	0.14246	0.050821	0.26158	0.26279	0.23958	0.44167	0.15625	-0.3125	0.5	-0.039583	0.10833	0.35833	-0.14167	0.27917	0.26458	-0.089583	0.56667	-0.27083	-0.00625	0.44583	265.196	22.129	302.881	275.472	259.753	-33.461	309.301	98.856	4.364	106.042	251.306	324.798	259.181	151.621	274.765	194.468	9.5851e-05	0.00040657	0.00035788	962.34	1.8289e-05	4.2007e-06	702.48	223.91	6.5659e-06	9.661e-06	176.78	63.767	78.831	31.307	2.1708e-06	26.005	0.010098	0.017731	0.0048986	1069.2	0.00018496	0.00019571	758.75	242.84	0.00017531	0.00019636	211.03	76.095	92.98	35.063	0.00018557	31.618	124.278	311.750	48.687	-21.694	219.796	-21.809	-22.250	-16.415	164.071	224.058	-18.757	-13.978	-11.757	-6.805	63.245	-10.015	-8191	255	
1019.832	1	1	0	0	0.38514	0.20062	0.25971	0.22045	0.046184	0.31063	0.10204	0.29394	0.069703	0.17137	0.29965	0.27808	0.089201	0.11801	0.044577	0.11559	0.1375	0.38125	0.51458	-0.21667	0.45625	0.0020833	-0.08125	0.54583	-0.175	0.37708	0.39375	-0.20417	0.44167	0.08125	-0.11667	0.47917	-13.837	280.724	256.752	251.669	195.017	99.669	177.102	293.135	80.964	113.690	300.394	241.310	-33.037	272.762	22.270	214.956	6.3937e-05	0.00059319	0.00024173	972.64	1.783e-05	2.232e-05	706.3	221.83	4.349e-06	5.1321e-06	171.01	62.124	78.224	30.895	2.7371e-06	25.664	0.010041	0.017591	0.0049207	1080.4	0.0001872	0.00020129	766.7	242.38	0.00018024	0.00019966	208.82	75.006	92.513	34.815	0.00019265	31.526	141.304	259.966	163.422	-20.933	-12.173	232.733	-22.113	-16.177	-17.302	22.020	-19.369	-14.433	-11.665	-6.684	187.270	-10.077	-8191	255	
1019.928	1	1	0	0	0.071665	0.18372	0.076431	0.26787	0.32595	0.045962	0.2065	0.28431	0.093436	0.078526	0.16888	0.17147	0.10652	0.22166	0.20822	0.36517	0.3375	0.20625	0.48542	-0.15208	0.425	0.25208	-0.17083	0.65208	-0.12917	0.39375	0.43958	-0.25208	0.50625	0.27083	-0.15833	0.69792	117.934	233.050	227.047	209.718	167.490	161.126	5.623	141.009	195.213	255.421	271.851	-18.555	243.799	262.129	9.293	195.726	6.4318e-05	0.00050418	0.00030995	932.68	4.37e-06	1.7422e-05	672.36	221.13	1.2653e-05	1.2927e-05	173.55	64.622	80.401	30.568	1.8512e-06	25.934	0.010711	0.018774	0.0053277	1058.1	0.00020232	0.00022015	738.26	243.72	0.00020271	0.00022712	214.67	79.497	97.507	35.365	0.00022445	32.792	300.412	250.959	313.663	-21.161	156.513	80.419	-22.315	-16.233	89.133	55.381	-19.103	-15.040	-12.017	-7.633	125.059	-10.649	-8191	255	
1020.047	1	1	0	0	0.17953	0.20604	0.50032	0.16172	0.078788	0.074713	0.093081	0.11598	0.26029	0.093378	0.30372	0.094494	0.10092	0.32196	0.19745	0.33879	0.32708	0.15833	0.79583	-0.15	0.39583	0.25417	-0.23125	0.52708	0.1	0.23542	0.54167	-0.24375	0.45417	0.30833	-0.2375	0.54375	314.186	273.058	146.466	242.346	124.901	-15.386	11.690	193.757	227.983	199.804	209.548	214.330	31.433	316.467	151.390	162.566	0.0001629	0.0011163	0.00039724	908.09	1.3899e-05	1.5602e-05	657.96	219.37	1.0474e-05	2.6577e-06	168.93	62.943	78.178	29.1	2.3868e-06	25.018	0.01222	0.021482	0.0060691	1052.3	0.0002274	0.0002475	733.55	245.11	0.0002214	0.00024754	216.38	79.398	96.496	34.496	0.00024124	32.168	143.617	75.756	64.590	-20.961	178.700	190.177	-22.364	-16.331	183.764	247.682	-19.132	-14.816	-12.304	-7.650	61.691	-10.791	-8191	255	
1020.144	1	1	0	0	0.2124	0.033701	0.33001	0.15034	0.17941	0.28244	0.24486	0.3355	0.21058	0.099858	0.24169	0.26251	0.058936	0.1675	0.42622	0.21362	0.21875	0.0125	0.50833	-0.17083	0.0625	0.475	-0.275	0.51042	-0.054167	-0.14792	0.65625	-0.029167	0.016667	0.35625	-0.36042	0.46875	-4.710	-29.952	-24.522	-22.383	230.686	-27.834	246.090	217.554	288.757	311.104	222.710	193.140	87.607	325.275	310.555	315.050	4.3517e-05	0.0010087	0.00010351	913.34	7.5923e-06	1.7619e-05	657.91	215.77	1.1488e-05	1.4359e-05	164.24	60.07	74.595	28.487	1.2921e-05	23.868	0.012924	0.022832	0.0063881	1064.2	0.0002341	0.00025261	734.28	240.68	0.00021807	0.00024498	209.83	75.805	92.735	33.578	0.00023452	30.9	-21.824	-12.774	160.428	-21.307	43.447	-6.667	-22.535	-16.580	218.268	122.880	-19.324	-14.984	-12.619	-7.342	110.807	-10.336	-8191	255	
1020.240	1	1	0	0	0.1273	0.32583	0.071956	0.061455	0.17226	0.18691	0.075012	0.25756	0.1587	0.34586	0.17404	0.18891	0.12854	0.43468	0.10079	0.26256	0.60625	-0.13542	0.5	-0.23542	0.17083	0.49792	-0.28542	0.34167	0.26667	-0.1875	0.60417	-0.20208	0.00625	0.54167	-0.19375	0.41875	147.012	65.597	295.169	-22.358	202.687	310.645	202.965	248.918	305.015	259.075	-7.832	238.966	110.006	315.423	138.746	156.638	0.00014809	0.0006739	0.00052561	897.9	1.3074e-05	1.6052e-05	640.73	209.21	3.9105e-06	1.9535e-05	161.21	58.349	72.511	27.735	7.4091e-06	23.113	0.012749	0.022618	0.0063918	1047.9	0.00024023	0.00026073	723.21	236.88	0.00023008	0.00025808	209.07	74.992	91.422	33.034	0.00023958	30.34	90.455	91.474	80.927	-21.197	286.522	279.786	-22.365	-16.856	276.965	124.105	-19.095	-15.261	-12.832	-7.056	49.296	-10.874	-8191	255	
1020.336	1	1	0	0	0.043012	0.037181	0.12141	0.2315	0.20707	0.020446	0.15903	0.25906	0.1589	0.054797	0.17858	0.12632	0.21464	0.31989	0.34865	0.10563	0.83333	0.010417	0.62083	0.035417	-0.1125	0.6	-0.17917	0.40208	0.25625	-0.11667	0.60208	-0.022917	-0.04375	0.44375	-0.20417	0.17083	138.523	255.483	4.185	265.870	136.088	241.793	204.580	320.495	240.920	129.821	282.706	270.889	309.527	-22.756	19.598	-29.738	4.3447e-05	0.0012858	0.00023429	913.72	9.6609e-06	1.9087e-05	656.13	209.4	5.6265e-06	1.6197e-05	159.27	55.681	69.764	27.117	1.0048e-05	22.757	0.012775	0.022599	0.0062698	1060.2	0.00023226	0.00025124	733.27	234.23	0.00021812	0.00024622	204.6	71.653	88.034	32.181	0.00022747	29.454	28.352	290.998	104.903	-21.054	156.331	150.769	-22.069	-16.566	298.732	78.155	-19.635	-14.727	-12.206	-6.714	239.864	-9.536	-8191	255	
1020.456	1	1	0	0	0.11089	0.3395	0.23275	0.025378	0.23715	0.080063	0.095936	0.21039	0.18267	0.21743	0.1985	0.35515	0.16403	0.17965	0.26465	0.17218	0.92292	-0.16667	0.75417	-0.06875	-0.0125	0.66042	-0.34792	-0.047917	0.49583	-0.15	0.54167	0.175	-0.0041667	0.54375	-0.275	0.039583	119.497	71.367	113.068	199.029	73.570	303.784	180.558	234.875	24.431	187.996	244.429	302.985	-33.067	315.287	116.592	320.337	0.00011004	0.00078258	0.00026955	919.93	1.6152e-05	1.4331e-05	650.41	204.3	5.1376e-06	8.2077e-06	155.11	54.859	68.163	26.954	1.2545e-06	22.226	0.012099	0.021367	0.00598	1055.7	0.00022225	0.00024074	723.17	228.68	0.00021432	0.00023912	200.03	70.09	86.84	31.892	0.0002345	29.239	84.471	-20.285	267.253	-20.646	125.404	146.178	-22.188	-16.480	223.063	243.832	-19.528	-14.406	-12.607	-6.902	104.804	-9.920	-8191	255	
1020.528	1	1	0	0	0.056521	0.092299	0.24217	0.12469	0.088576	0.20324	0.29191	0.037844	0.23404	0.18525	0.18814	0.27056	0.14559	0.047654	0.13992	0.18726	0.7	-0.23958	0.48958	0.089583	-0.24583	0.6	-0.24583	0.12708	0.50833	-0.30417	0.33125	0.28542	-0.28125	0.4875	-0.13333	-0.025	189.005	137.805	162.572	310.125	93.923	22.069	235.570	229.303	81.890	227.648	264.075	324.434	171.279	-3.027	296.028	222.284	0.00015709	0.00084727	0.0004743	898.33	4.5287e-06	3.2665e-06	633.5	201.23	9.2803e-06	8.4157e-06	150.51	53.403	68.311	26.371	1.412e-06	21.577	0.012904	0.022698	0.0063347	1045.4	0.0002378	0.00025605	709.78	226.82	0.00022697	0.00025633	198.34	70.391	87.663	31.912	0.00025138	29.282	146.339	1.765	102.783	-20.993	83.295	13.506	-21.774	-16.400	109.760	28.218	-19.108	-14.615	-12.850	-7.010	228.879	-10.028	-8191	255	
1020.624	1	1	0	0	0.24243	0.21109	0.042358	0.10635	0.017846	0.24942	0.12104	0.2963	0.12892	0.22677	0.13257	0.14031	0.20628	0.15939	0.06847	0.17634	1.1562	-0.15	0.34167	0.29167	-0.32083	0.5375	-0.18958	-0.22083	0.54375	-0.19167	0.29167	0.24375	-0.21458	0.4	0.05625	-0.11667	-15.133	208.221	130.021	228.381	15.321	277.575	134.834	306.361	184.380	-16.103	193.160	99.338	-23.677	259.571	184.322	224.135	0.00015341	0.0013626	0.00029821	875.77	6.9903e-06	1.0686e-05	622.84	196.22	6.5054e-06	1.0406e-05	144.87	51.769	66.095	25.843	8.6458e-06	21.24	0.013659	0.024024	0.006644	1036.8	0.00024851	0.00026593	704.47	223.9	0.00023799	0.00026648	195.36	69.58	86.141	31.457	0.00025715	29.115	165.366	11.638	176.502	-20.767	311.924	-20.179	-22.049	-16.209	182.430	158.000	-19.924	-14.842	-12.946	-6.857	135.905	-10.755	-8191	255	
1020.720	1	1	0	0	0.14979	0.17948	0.12303	0.16465	0.098205	0.055546	0.17901	0.11236	0.081587	0.048299	0.24318	0.24001	0.22462	0.29163	0.11016	0.31294	1.0417	-0.095833	0.20208	0.49583	-0.2	0.35	-0.0020833	-0.29792	0.57292	-0.10625	0.033333	0.70625	-0.3375	0.33958	0.31458	-0.26875	31.455	157.174	47.196	307.647	189.570	116.877	241.100	266.577	177.979	283.746	83.548	324.443	225.637	3.994	250.547	177.984	0.00012066	0.0019642	0.00028125	848.53	1.0965e-05	1.998e-05	590.62	189.39	8.0967e-06	1.4918e-05	138.18	51.046	66.165	25.981	7.4422e-06	21.096	0.014136	0.025045	0.0070265	1024.2	0.00026818	0.00028879	682.64	219.67	0.00026115	0.00029123	194.13	70.622	87.953	32.173	0.0002809	29.751	-11.204	11.376	45.461	-20.752	48.983	145.442	-22.226	-16.597	90.805	287.668	-19.727	-14.956	-12.961	-8.478	295.192	-11.188	-8191	255	
1020.839	1	1	0	0	0.19206	0.32407	0.21208	0.34982	0.10084	0.18631	0.26012	0.024325	0.08322	0.10408	0.17683	0.086772	0.31437	0.29289	0.20561	0.34237	0.82292	0.027083	0.25625	0.48542	-0.15	0.4	0.37708	-0.41458	0.45625	-0.10208	-0.15	0.4625	-0.22708	0.15417	0.36042	-0.34583	55.728	272.100	108.590	10.444	264.561	9.722	-28.316	247.625	96.808	182.553	246.132	308.505	232.419	-29.621	4.818	34.264	2.5887e-05	0.00046985	0.00017432	783.42	6.3213e-06	9.8941e-06	526.22	174.7	7.2939e-06	8.7597e-06	126.4	48.174	63.243	25.433	6.5064e-06	19.618	0.015448	0.027047	0.0075371	973.52	0.00028142	0.00029915	625.6	206.92	0.00026173	0.0002887	183.04	67.168	84.5	31.301	0.00026607	27.766	79.116	29.451	110.676	-20.656	84.355	151.541	-21.716	-16.722	203.289	226.219	-19.495	-15.241	-12.448	-8.372	2.827	-10.959	-8191	255	
1020.935	1	1	0	0	0.029237	0.17995	0.31203	0.41882	0.15834	0.17518	0.10906	0.19388	0.21159	0.12388	0.29218	0.16281	0.30086	0.058809	0.13911	0.054092	0.78125	0.058333	-0.05625	0.70417	-0.15833	0.020833	0.2625	-0.21458	0.39792	0.17292	-0.28333	0.5	-0.22292	0.077083	0.57292	-0.44167	74.212	176.332	5.909	92.944	29.108	94.831	223.405	273.784	118.210	149.039	71.300	256.898	231.339	240.052	46.764	-19.179	0.00021045	0.0025688	0.00033656	760.48	5.9042e-06	1.3252e-05	512.43	169.13	3.9852e-06	2.6848e-06	124.53	46.352	61.578	24.941	1.069e-05	18.861	0.014383	0.02548	0.0071779	942.82	0.00027441	0.000297	613.63	203.18	0.00026959	0.00029683	181.37	65.795	83.152	30.798	0.00026486	26.767	239.744	103.012	188.496	-20.918	-9.719	49.648	-22.493	-16.749	273.550	226.232	-19.154	-15.266	-12.370	-8.049	57.174	-10.891	-8191	255	
1021.032	1	1	0	0	0.24108	0.25613	0.22827	0.23819	0.14726	0.13166	0.020343	0.074815	0.14617	0.15233	0.15319	0.050352	0.21723	0.29203	0.2482	0.3604	0.56042	0.17708	-0.14792	0.45208	-0.19792	-0.022917	0.325	-0.26042	0.48958	0.23958	-0.35833	0.60208	0.12917	-0.1375	0.54792	-0.22917	221.705	9.907	180.829	-8.635	166.245	214.663	251.297	168.317	278.392	227.636	307.735	273.128	-27.805	-21.969	12.850	161.156	9.2916e-05	0.00041227	0.00014412	770.43	3.2382e-06	1.4365e-05	504.07	179.3	7.725e-06	1.2566e-05	134.65	49.763	68.495	27.655	8.0029e-06	20.582	0.014	0.024732	0.0069528	945.42	0.00026967	0.00029699	607.73	213.1	0.00029126	0.00033589	201.82	73.502	96.578	35.903	0.00039422	34	158.806	213.142	85.691	-21.269	232.634	112.318	-22.270	-16.496	212.707	22.348	-18.907	-15.642	-13.429	-8.726	-2.891	-12.647	-8191	255	
1021.129	1	1	0	0	0.30896	0.41187	0.2015	0.16256	0.020754	0.21184	0.22523	0.19956	0.21218	0.1455	0.067496	0.21229	0.072249	0.14547	0.086661	0.15774	0.67708	0.66042	-0.15208	0.52708	-0.0083333	-0.15	0.425	-0.48958	0.22083	0.22917	-0.15208	0.5625	0.1125	-0.0375	0.55625	-0.23333	275.371	132.813	35.342	-26.875	73.100	157.766	268.695	321.651	32.119	186.792	315.461	56.668	-29.890	47.092	-33.075	-5.339	5.516e-05	0.0014517	0.00040771	765.11	1.1765e-05	2.2276e-05	526.38	216.08	3.201e-06	1.7843e-05	162.73	64.668	85.512	34.065	1.054e-05	25.017	0.024632	0.047661	0.014545	1189.6	0.00062855	0.00070853	792.5	301.97	0.00068011	0.00077405	320.67	116.96	145.37	50.837	0.00071461	46.863	198.442	309.586	177.422	-21.358	99.815	239.189	-22.865	-16.783	-1.380	75.101	-20.579	-17.193	-13.377	-10.701	220.696	-13.626	-8191	255	
1021.224	1	1	0	0	0.10258	0.07621	0.21042	0.083034	0.29743	0.15177	0.27229	0.045642	0.23544	0.20856	0.20369	0.10368	0.32178	0.20886	0.1692	0.10448	0.4875	0.54583	-0.24792	0.38125	0.14583	-0.25	0.45208	-0.375	0.09375	0.5125	-0.31042	0.3375	-0.0041667	-0.34792	0.5625	-0.1875	303.975	325.092	238.222	176.025	270.629	84.623	171.884	252.655	181.515	26.796	46.805	-17.436	-13.311	296.230	120.867	-3.483	4.3259e-05	0.001086	0.00038738	746.44	9.2831e-06	1.7608e-05	495.04	209.06	1.8259e-05	1.2053e-05	154.31	60.632	82.03	32.691	2.2918e-05	23.629	0.036661	0.063894	0.017582	1215.9	0.00064184	0.00069852	751.01	288.66	0.00060929	0.00067846	287	104.83	132.82	46.626	0.00060743	42.33	104.135	300.013	185.113	-20.884	46.957	-21.168	-22.263	-16.737	165.879	228.355	-20.085	-16.834	-13.429	-10.451	118.574	-13.239	-8191	255	
1021.320	1	1	0	0	0.06834	0.34559	0.26151	0.22976	0.37291	0.19569	0.10854	0.38381	0.24389	0.054245	0.033219	0.091846	0.069728	0.066527	0.15544	0.30051	0.23125	0.67083	-0.26667	0.095833	0.33125	-0.275	0.46042	-0.175	-0.072917	0.6	-0.10208	0.27083	0.475	-0.36042	0.55625	-0.041667	254.421	46.544	64.666	268.340	40.909	208.377	43.576	239.372	98.524	232.315	306.196	222.415	-2.596	-31.493	174.385	187.474	0.00013629	0.00053105	0.00018396	750.1	3.8298e-05	3.3469e-05	499.68	213.74	7.0275e-06	2.0268e-05	160.39	61.702	84.952	32.785	1.1001e-05	23.33	0.031825	0.056503	0.015678	1163.8	0.00056721	0.0006035	710.93	279.86	0.00050925	0.00056098	267.65	98.013	125.5	43.809	0.0004712	37.439	81.008	234.133	-12.390	-21.251	123.529	246.287	-22.627	-16.360	96.253	209.454	-19.402	-16.458	-13.868	-10.187	243.579	-13.831	-8191	255	
1021.441	1	1	0	0	0.038516	0.20699	0.18215	0.13834	0.13005	0.046403	0.16158	0.097232	0.19992	0.092409	0.11694	0.28751	0.14092	0.1055	0.081695	0.10028	0.18125	0.59375	-0.26042	0.13333	0.53542	-0.20833	0.33542	-0.06875	-0.039583	0.49167	-0.29167	0.13333	0.25	-0.3375	0.4375	0.16042	168.318	124.030	49.370	162.288	107.684	323.905	59.418	246.502	203.273	270.367	236.880	179.882	167.549	251.817	153.847	285.731	0.00014163	0.0014397	0.00042299	798.58	1.1167e-05	3.2405e-05	541.7	232.01	4.7441e-06	2.3691e-05	171	64.545	88.952	32.862	5.9561e-06	23.512	0.023414	0.039876	0.010973	1078.5	0.00040804	0.00043868	691.05	279.2	0.00037252	0.00040782	248.11	89.331	116.67	40.418	0.00033494	33.485	256.141	57.774	38.115	-20.923	171.756	28.744	-22.536	-16.612	76.490	297.189	-19.424	-16.684	-13.237	-9.828	313.185	-13.192	-8191	255	
1021.537	1	1	0	0	0.0754	0.064986	0.12523	0.24906	0.096394	0.18109	0.2394	0.19304	0.0756	0.10271	0.44487	0.19126	0.23897	0.30386	0.039738	0.16192	0.18333	0.36875	-0.18958	0.083333	0.55	-0.27292	0.15208	0.01875	-0.21667	0.34792	-0.075	-0.025	0.56875	-0.275	0.34792	0.37708	124.471	-19.196	192.047	314.199	157.745	53.507	120.923	294.867	21.290	205.726	29.035	-29.920	253.869	35.014	104.989	-31.118	0.00018993	0.0012291	0.00026328	885.19	8.4059e-06	2.0373e-05	599.64	251.07	1.1303e-06	1.2856e-05	183.78	67.193	93.834	34.414	7.1191e-06	24.331	0.017503	0.029901	0.0080704	1077.1	0.00028253	0.00029286	692.11	278.35	0.00023647	0.00025728	230.04	82.226	111.46	38.966	0.00021731	30.74	202.634	321.995	175.258	-21.103	6.949	181.927	-22.359	-16.236	324.499	-28.031	-18.941	-16.209	-13.087	-8.085	86.008	-12.175	-8191	255	
1021.633	1	1	0	0	0.060315	0.25819	0.12706	0.10697	0.12241	0.20185	0.20699	0.24875	0.094145	0.053574	0.17556	0.23342	0.29328	0.21119	0.14662	0.11773	0.016667	0.60833	0.2125	-0.125	0.39167	-0.29375	0.2625	0.3125	-0.3125	0.275	-0.1625	-0.16875	0.44583	-0.27708	0.27083	0.39583	-27.736	110.592	117.060	-6.008	314.175	-30.259	303.463	245.933	299.597	61.152	277.706	10.669	-32.706	285.662	128.968	-14.339	0.00021322	0.00022145	0.00016256	988.52	8.4882e-06	1.3733e-05	687.38	290.15	1.1358e-05	8.0148e-06	214.18	75.024	106.74	37.275	3.5106e-06	26.605	0.011595	0.020254	0.0054825	1112.2	0.00019583	0.00020496	743.77	307.79	0.00017689	0.00019481	248.48	86.925	119.72	40.771	0.00017189	31.36	93.260	166.286	65.940	-21.017	110.576	62.139	-22.294	-16.101	173.340	89.149	-19.821	-16.303	-12.700	-8.437	-17.868	-11.458	-8191	255	
1021.729	1	1	0	0	0.14694	0.28713	0.10511	0.078972	0.053789	0.16094	0.16832	0.37768	0.052911	0.17755	0.16637	0.21578	0.17892	0.15921	0.17126	0.35442	0.25208	0.45	0.21667	-0.24792	0.3875	0.00625	-0.09375	0.30417	-0.38333	0.46042	0.13542	-0.35625	0.43542	-0.13542	0.0375	0.55625	202.958	262.322	298.524	292.934	184.328	97.801	279.898	225.100	-33.681	306.732	195.599	320.826	29.748	269.453	229.806	-33.375	0.00012314	0.00063621	0.00018855	1097.8	2.6557e-06	8.2861e-06	792.88	355.35	8.923e-06	2.9638e-06	268.75	90.689	128.26	41.726	3.4551e-06	29.274	0.0088762	0.015101	0.0041107	1174.7	0.00014454	0.00014956	824.88	364.87	0.00012391	0.00013308	288.78	97.866	136.28	43.809	0.00011265	31.944	181.420	103.779	35.833	-20.876	228.095	182.473	-22.342	-16.218	218.350	310.634	-19.607	-16.687	-13.101	-8.544	54.555	-12.032	-8191	255	
1021.825	1	1	0	0	0.15639	0.21937	0.11636	0.1448	0.16863	0.076465	0.27437	0.18557	0.20286	0.10468	0.30959	0.34348	0.15811	0.21734	0.059247	0.32017	0.025	0.30625	0.34375	-0.17083	0.54583	0.016667	-0.23958	0.44375	-0.15	0.22708	0.3875	-0.19375	0.56458	-0.047917	0.05625	0.51875	234.862	81.827	112.378	4.278	226.746	123.339	209.395	274.048	218.175	-17.970	238.068	-3.313	252.845	300.936	219.724	197.424	8.1607e-05	0.00018841	0.00028646	1224.7	5.5323e-06	6.7768e-06	913.3	405.51	3.1014e-06	8.439e-06	302.81	94.945	135	42.544	7.4216e-06	29.844	0.0058016	0.0099107	0.0026916	1255.5	9.7126e-05	0.00010219	922.14	408.14	8.7796e-05	9.7663e-05	313.64	100.44	140.5	43.883	8.8717e-05	31.7	197.233	91.059	115.046	-20.554	283.222	85.743	-22.063	-16.163	72.276	133.657	-19.148	-15.683	-12.647	-7.840	134.655	-11.365	-8191	255	
1021.921	1	1	0	0	0.10191	0.16662	0.058995	0.20059	0.1897	0.22315	0.21516	0.25214	0.083617	0.12017	0.14755	0.11811	0.20672	0.19285	0.21373	0.11351	0.2875	0.37917	0.45833	-0.12708	0.48958	0.18542	-0.36042	0.43125	-0.039583	0.21667	0.44792	-0.19583	0.24792	0.36458	-0.14167	0.66875	111.882	249.254	72.743	278.244	80.773	-11.195	282.066	7.674	83.149	298.608	316.044	286.334	269.030	256.846	145.312	260.574	0.00019235	0.0006179	8.2722e-05	1307.3	1.0657e-06	3.2205e-06	989.95	422.74	5.3469e-06	3.3257e-06	322.39	96.446	137.38	43.014	2.6314e-06	30.225	0.0045947	0.0077378	0.0021267	1325	7.5879e-05	7.9371e-05	989.42	422.72	6.7117e-05	7.4834e-05	328.51	100.11	141.54	43.932	6.9501e-05	31.755	116.251	123.467	32.877	-20.820	215.364	278.514	-22.016	-16.182	180.148	118.435	-18.842	-15.665	-12.181	-7.181	282.669	-10.886	-8191	255	
1022.018	1	1	0	0	0.19016	0.1589	0.15178	0.18775	0.19533	0.090817	0.10934	0.29175	0.23297	0.24602	0.27734	0.16574	0.20437	0.24436	0.16496	0.065605	0.14167	0.09375	0.58333	-0.22917	0.425	0.31458	-0.30208	0.57083	-0.0625	-0.04375	0.4375	-0.44792	0.2375	0.15417	-0.26875	0.44792	62.791	103.220	257.890	-7.128	124.575	156.631	7.963	283.114	302.107	105.478	-11.386	323.138	254.791	324.989	74.693	208.941	0.00021323	0.00065942	0.00019565	1358.6	2.0238e-06	7.9496e-06	1043.4	452.38	2.9688e-06	1.1443e-05	339.1	98.315	140.04	43.199	4.0647e-06	29.873	0.0037137	0.0063182	0.0017699	1364.5	6.3712e-05	6.7697e-05	1034.6	448.96	5.8258e-05	6.3706e-05	340.31	100.75	142.73	43.838	6.0692e-05	31.042	188.974	96.404	38.997	-20.797	183.626	111.036	-22.064	-15.972	89.300	69.162	-19.068	-15.452	-12.200	-7.316	128.578	-10.617	-8191	255	
1022.136	1	1	0	0	0.05212	0.12764	0.26975	0.085812	0.1529	0.2241	0.20579	0.070242	0.071826	0.1555	0.30517	0.23419	0.19246	0.21851	0.19873	0.07629	0.21875	0.039583	0.48125	-0.36875	0.42292	0.39375	-0.33958	0.22083	0.17917	-0.14792	0.39375	-0.3375	0.070833	0.25	-0.32917	0.46875	260.299	107.680	269.206	275.323	-4.319	200.594	266.171	269.942	115.763	285.387	271.878	-5.835	52.204	288.742	-15.719	264.924	0.00013896	0.00034691	0.00031779	1360.3	4.6267e-06	7.0014e-06	1029.9	451.2	7.5897e-06	7.8562e-06	333.33	97.896	139.34	42.505	6.3946e-06	29.229	0.0032886	0.0057293	0.0016011	1360.1	5.9547e-05	6.3976e-05	1025	448.49	5.648e-05	6.2122e-05	337.48	100.35	142.24	43.243	6.0415e-05	30.546	192.838	120.053	48.376	-20.779	104.386	126.330	-22.121	-16.080	160.216	122.725	-19.184	-15.604	-12.224	-7.024	148.245	-11.139	-8191	255	
1022.233	1	1	0	0	0.32149	0.28929	0.17434	0.18079	0.22982	0.07753	0.23495	0.27838	0.011457	0.34648	0.25341	0.029424	0.10228	0.1133	0.13232	0.33037	0.53958	-0.20417	0.725	-0.27708	0.19375	0.66042	-0.41875	0.30833	0.32292	-0.23333	0.5625	-0.20625	-0.025	0.44167	-0.097917	0.29375	257.408	300.544	282.413	174.263	304.617	123.700	265.527	324.744	109.640	69.463	276.681	-18.783	208.751	-30.250	119.140	263.840	9.689e-05	0.00029362	0.00019563	1367.9	5.0098e-06	1.4809e-06	1047.4	454.09	1.2192e-06	2.8092e-06	337.57	96.685	138.25	42.199	7.5121e-06	29.277	0.0033587	0.0057846	0.0015911	1368.3	5.8307e-05	6.2346e-05	1039.2	450.56	5.1866e-05	5.6514e-05	339.59	98.355	139.82	42.696	5.0178e-05	30.216	139.142	26.237	229.411	-20.173	108.840	212.037	-21.927	-16.017	155.554	95.814	-19.000	-15.213	-12.279	-6.832	169.959	-10.716	-8191	255	
1022.329	1	1	0	0	0.24574	0.036128	0.27754	0.057033	0.084538	0.24227	0.22998	0.29294	0.11525	0.12742	0.23769	0.26607	0.19048	0.41588	0.15745	0.28698	0.625	-0.16458	0.64792	-0.11458	-0.0083333	0.37292	-0.24583	0	0.39583	-0.28958	0.35833	0	-0.15208	0.46042	-0.2875	0.095833	52.975	21.151	325.815	184.128	41.855	123.915	-19.607	302.006	26.615	79.533	269.086	8.027	4.241	300.613	82.816	246.727	0.00013194	0.00040274	0.0001172	1386.8	2.7074e-06	2.7766e-06	1074.7	462.31	2.2102e-06	8.7694e-06	348.99	97.419	138.49	42.709	6.0646e-06	29.878	0.0027429	0.0046635	0.0012652	1386.1	4.64e-05	4.9249e-05	1067.3	457.91	4.071e-05	4.3366e-05	346.2	98.252	139.2	42.918	3.7165e-05	30.489	142.319	14.083	81.954	-20.113	91.829	110.873	-21.805	-15.853	268.585	110.174	-18.551	-14.965	-12.010	-6.676	135.483	-10.515	-8191	255	
1022.400	1	1	0	0	0.04861	0.29513	0.11918	0.075859	0.019354	0.22906	0.42267	0.13936	0.046212	0.059654	0.28354	0.20417	0.13582	0.037221	0.16561	0.061994	0.69167	-0.15625	0.4125	-0.15625	0.014583	0.59792	-0.3	0.01875	0.44167	-0.34167	0.28958	0.06875	-0.34583	0.36667	-0.10625	-0.016667	276.722	195.819	126.430	260.814	163.848	230.017	284.576	210.044	167.255	99.459	287.690	207.076	59.466	141.721	76.480	162.883	5.8312e-05	0.0011256	0.00016756	1416.3	5.417e-06	5.5039e-06	1085.6	464.41	1.969e-06	5.5577e-06	346.48	95.101	135.78	42.739	5.4507e-06	29.523	0.0020913	0.0035878	0.00097327	1398.5	3.6369e-05	3.903e-05	1066	457.81	3.3396e-05	3.5828e-05	343.67	95.815	136.19	42.566	3.4212e-05	30.062	159.615	97.567	37.578	-20.450	86.813	120.863	-21.910	-15.995	144.829	160.438	-18.656	-14.592	-11.711	-6.892	116.067	-10.524	-8191	255	
1022.521	1	1	0	0	0.30132	0.14008	0.13298	0.095375	0.1053	0.13844	0.20886	0.38239	0.12297	0.2046	0.33752	0.15769	0.27499	0.18386	0.0494	0.16405	0.84167	-0.33542	0.25625	0.26458	-0.15417	0.29375	-0.29375	-0.04375	0.57083	-0.50417	0.14792	0.2875	-0.47292	0.57708	-0.029167	-0.16458	16.173	117.342	112.406	310.483	195.573	320.317	306.782	301.199	9.990	188.461	294.651	280.624	284.012	156.603	286.268	226.262	8.6261e-05	0.00033079	0.00016907	1373.9	4.5951e-06	5.2449e-06	1033.1	432.92	4.2943e-06	3.6351e-06	324.97	87.094	123.23	38.977	4.7032e-06	28.193	0.0019589	0.0033653	0.00094556	1363.4	3.5673e-05	3.8162e-05	1019.6	427.74	3.5142e-05	3.7551e-05	323.91	88.427	124.2	39.256	4.2269e-05	28.979	141.240	29.589	48.001	-20.826	155.753	159.985	-21.797	-16.182	101.216	147.265	-18.835	-14.393	-11.717	-6.460	129.937	-10.425	-8191	255	
1022.617	1	1	0	0	0.18304	0.19089	0.078538	0.33103	0.066443	0.39729	0.002841	0.064902	0.056194	0.059844	0.070235	0.16879	0.092023	0.20916	0.24373	0.38743	0.84792	-0.14167	0.26458	0.30833	-0.3875	0.57708	-0.1875	-0.44583	0.69792	-0.39375	0.11458	0.32917	-0.36667	0.42083	0	-0.26667	322.745	245.341	41.191	314.599	129.888	194.939	261.054	255.512	277.855	-9.869	92.054	241.210	323.951	275.354	323.106	235.236	6.0517e-05	0.00058113	6.4978e-05	1255.3	3.2335e-06	9.9919e-06	896.65	320.6	2.2976e-06	4.9568e-06	236.03	67.804	90.463	31.635	8.5911e-06	24.997	0.0025823	0.0046733	0.0013619	1258.4	5.6643e-05	6.281e-05	894.71	320.85	6.2011e-05	6.889e-05	243.94	71.584	95.091	32.944	7.9145e-05	27.238	169.193	-0.934	87.021	-21.207	101.290	162.789	-22.147	-16.005	155.029	116.109	-18.763	-14.422	-11.557	-6.042	161.444	-9.364	-8191	255	
1022.713	1	1	0	0	0.17359	0.18166	0.078332	0.20931	0.12812	0.12328	0.27325	0.19554	0.3912	0.30363	0.053587	0.29832	0.3935	0.2445	0.35088	0.1807	0.93542	-0.21667	0.14167	0.42917	-0.27917	0.62083	-0.020833	-0.27083	0.60208	-0.33125	0.00625	0.44375	-0.18542	0.36042	0.39583	-0.32083	-16.080	123.905	190.153	250.201	65.028	252.683	245.212	261.314	129.399	73.473	-20.113	242.037	70.486	304.844	208.036	220.825	0.00010471	0.0013358	0.00022416	1078.8	5.8135e-06	1.0608e-05	786.92	263.63	4.6992e-06	8.047e-06	198.47	60.28	81.074	28.961	5.2705e-06	23.627	0.004718	0.0083955	0.0023564	1114.9	8.6834e-05	8.9685e-05	797.36	267.16	7.1628e-05	7.6806e-05	209.24	64.316	85.815	30.28	7.5029e-05	25.616	151.656	235.756	143.286	-20.939	156.335	45.645	-22.390	-16.072	97.928	98.523	-19.062	-13.863	-11.541	-6.244	229.524	-9.695	-8191	255	
1022.809	1	1	0	0	0.1419	0.025238	0.11962	0.0919	0.16816	0.25679	0.21592	0.22027	0.099154	0.1528	0.033074	0.2036	0.25831	0.11006	0.29588	0.2951	0.89375	0.05	0.21042	0.54583	-0.13333	0.525	0.26042	-0.40208	0.575	0.19375	-0.0125	0.67708	-0.175	0.29792	0.35833	-0.26458	161.847	191.491	172.004	298.895	302.216	19.283	235.274	276.877	275.506	-11.127	81.018	140.328	29.744	69.033	21.064	312.268	6.5e-05	0.0008477	0.00018762	1046.1	3.0492e-06	7.7009e-06	724.88	254.28	2.9837e-06	4.0173e-06	187.51	56.302	78.916	27.936	3.9404e-06	21.966	0.0040861	0.0071087	0.0019598	1065.4	7.0626e-05	7.4026e-05	730.99	257.41	6.3065e-05	6.9567e-05	196.67	60.127	82.838	28.891	5.9362e-05	23.324	159.445	120.031	106.625	-21.317	238.542	93.596	-22.485	-16.054	96.415	2.390	-19.095	-14.334	-11.946	-6.276	103.026	-10.109	-8191	255	
1022.930	1	1	0	0	0.44283	0.026545	0.11356	0.27457	0.13407	0.31739	0.1203	0.2507	0.1599	0.10471	0.15022	0.051283	0.38711	0.1403	0.094852	0.30429	0.87083	0.36042	-0.1375	0.46667	0.0125	0.17083	0.40625	-0.37292	0.30833	0.42708	-0.30417	0.54583	-0.11667	0.15417	0.59375	-0.23125	162.744	248.036	276.293	302.782	40.944	273.513	312.960	-22.326	240.013	251.031	284.090	71.903	-27.101	53.578	158.115	268.608	5.2892e-05	0.00051425	0.00022132	996.67	6.284e-06	9.7551e-06	674.29	230.49	4.7643e-06	5.1087e-06	168.16	52.353	72.482	26.432	1.0707e-05	21.102	0.0030752	0.0052672	0.0014713	1007.5	5.4498e-05	5.9011e-05	677.44	232.31	5.665e-05	6.4421e-05	176.72	56.265	76.276	27.549	6.8899e-05	22.872	117.407	101.551	49.568	-21.739	87.820	86.015	-22.797	-16.094	-1.482	99.852	-19.232	-14.437	-11.611	-6.774	59.815	-10.586	-8191	255	
1023.002	1	1	0	0	0.064096	0.36546	0.076684	0.1732	0.32452	0.047962	0.043945	0.39727	0.15389	0.10453	0.22493	0.24222	0.13692	0.36613	0.055291	0.029342	0.9875	0.36667	-0.17708	0.53333	-0.2875	0.22917	0.58542	-0.14167	0.53125	0.22917	-0.32292	0.49375	0.04375	-0.025	0.55	-0.0875	151.441	290.244	182.431	52.404	8.256	53.361	222.879	309.591	116.905	12.618	-11.439	296.552	235.759	310.975	10.060	152.025	5.1192e-05	0.0010978	0.00012958	915.99	8.5799e-06	1.7002e-05	624.27	205.71	3.5583e-06	4.5774e-06	155.44	50.43	67.847	25.341	8.5019e-06	20.243	0.0039581	0.0071114	0.0020702	948.61	8.3118e-05	9.1457e-05	641.65	212.2	8.2519e-05	9.0381e-05	170.03	55.864	73.684	26.905	8.7862e-05	22.702	174.696	176.953	58.991	-21.430	312.315	50.226	-22.787	-16.228	-27.802	85.970	-19.086	-15.236	-11.380	-7.106	165.763	-10.130	-8191	255	
1023.121	1	1	0	0	0.27213	0.19708	0.20968	0.20603	0.12322	0.1252	0.16803	0.32983	0.079244	0.28031	0.1354	0.40943	0.12286	0.20259	0.22684	0.13798	0.72083	0.50208	-0.16875	0.59792	0.077083	-0.095833	0.59375	-0.19167	0.20208	0.52292	-0.31042	0.73542	0.19167	-0.0625	0.59167	-0.23958	39.678	213.406	261.540	219.476	27.183	170.342	219.040	283.898	25.978	314.310	274.890	235.671	223.651	13.936	-17.818	189.760	0.00020668	0.0009378	0.0001606	862.21	3.7425e-06	1.1799e-05	594.61	194.1	9.3394e-07	4.9951e-06	147.91	49.398	64.242	24.691	3.7829e-06	20.058	0.0048077	0.0086112	0.0024303	902.72	9.2633e-05	0.00010091	613.48	201.77	9.4379e-05	0.00010917	167.56	56.493	72.684	26.933	0.00011526	23.324	162.196	90.776	65.143	-21.527	130.346	30.189	-22.486	-16.158	280.413	138.492	-18.499	-14.758	-11.563	-7.141	180.952	-10.408	-8191	255	
1023.217	1	1	0	0	0.14763	0.24787	0.30832	0.18433	0.14877	0.20582	0.10636	0.15779	0.17051	0.063091	0.12864	0.19521	0.16171	0.014516	0.19991	0.066227	0.7375	0.55625	-0.058333	0.5625	0.31042	-0.20417	0.45	-0.10625	0.075	0.35625	-0.16458	0.50417	0.40833	-0.24583	0.56042	-0.06875	83.005	162.143	201.050	293.469	120.035	300.075	274.711	187.379	168.693	9.415	216.091	304.780	-23.761	23.930	203.006	78.839	5.0287e-05	0.00035554	0.00017649	803.74	8.0869e-06	8.5957e-06	550.06	179.25	5.0154e-06	2.9996e-06	139.06	48.61	62.259	24.346	8.2148e-06	19.428	0.0064349	0.011618	0.0033406	877.79	0.00013117	0.00014676	594.04	193.19	0.00014339	0.00016721	170.55	59.937	75.6	28.012	0.00017454	24.701	320.505	155.477	105.007	-21.912	195.388	-3.609	-22.661	-16.132	-17.595	149.650	-19.011	-15.411	-12.114	-7.881	73.818	-11.231	-8191	255	
1023.313	1	1	0	0	0.17891	0.10289	0.14268	0.16423	0.11537	0.21972	0.2329	0.21499	0.23833	0.050996	0.042366	0.12659	0.33978	0.13138	0.259	0.46163	0.40625	0.52917	-0.077083	0.35833	0.37292	-0.20208	0.50417	-0.1625	0.070833	0.79583	-0.23958	0.32292	0.42083	-0.16875	0.43542	0.14792	89.248	298.728	231.295	305.572	0.289	203.832	270.824	296.743	135.472	198.510	87.255	271.500	266.039	147.433	256.234	188.240	0.00011346	0.00064901	6.5786e-05	748.64	1.188e-05	7.132e-06	511.9	170.16	5.1657e-06	1.4137e-05	134.79	48.484	61.909	24.652	5.2286e-06	20.053	0.0094401	0.016527	0.0046494	859.03	0.00017638	0.00019061	573.11	188.68	0.00016816	0.00018635	167.71	60.102	74.744	27.994	0.00015814	24.548	190.016	242.086	270.933	-21.680	173.440	95.746	-22.406	-16.384	59.021	115.250	-19.686	-15.157	-12.068	-7.295	248.749	-10.887	-8191	255	
1023.409	1	1	0	0	0.090584	0.15671	0.14603	0.20652	0.12846	0.15549	0.10398	0.29182	0.10267	0.24294	0.25615	0.14948	0.16055	0.10985	0.23248	0.30958	0.32708	0.55417	-0.26667	0.10625	0.625	-0.21458	0.48333	0.22708	-0.1375	0.63333	-0.19375	-0.0083333	0.43542	-0.15208	0.4	0.2125	279.557	28.137	45.941	75.024	131.787	49.465	324.954	319.997	272.903	77.685	166.020	307.902	-13.274	241.120	197.357	82.740	0.00019193	0.00074131	0.0001271	745.25	1.2962e-05	4.8321e-06	517.82	168.03	6.384e-06	8.8518e-06	135.05	50.325	63.173	25.376	4.0226e-06	21.119	0.0081312	0.014086	0.0038597	828.13	0.00014357	0.00015183	556.58	182.26	0.00013044	0.00014429	160.56	58.834	72.921	27.977	0.00012349	24.503	182.455	123.953	122.335	-21.558	124.309	199.268	-22.440	-16.335	296.136	2.516	-19.093	-15.145	-12.181	-7.204	172.163	-10.785	-8191	255	
1023.530	1	1	0	0	0.18241	0.2516	0.16292	0.061207	0.11827	0.34092	0.14523	0.15464	0.28711	0.1725	0.12859	0.036262	0.12838	0.23949	0.082883	0.083185	0.13333	0.68125	-0.03125	0.091667	0.45	-0.35417	0.19792	0.29583	-0.13125	0.56042	-0.10208	0.097917	0.48958	-0.17708	0.52083	0.26042	13.359	245.799	127.813	-20.856	218.446	12.571	195.701	-14.718	79.130	-20.896	24.562	281.547	10.147	244.580	-24.195	-11.133	7.3483e-05	0.00057381	0.00034099	790.47	5.1726e-06	4.4698e-06	558.99	182.12	3.5741e-06	6.4379e-06	145.76	52.089	67.784	26.202	6.8482e-06	21.538	0.0065311	0.011189	0.0030563	846.91	0.00010891	0.0001143	584.95	191.09	9.3861e-05	0.00010225	162.55	58.171	74.099	27.954	9.2558e-05	23.997	109.545	10.936	226.606	-21.596	214.649	130.425	-22.770	-15.861	90.689	216.682	-19.008	-14.912	-11.695	-7.485	89.488	-10.255	-8191	255	
1023.626	1	1	0	0	0.28463	0.084317	0.19916	0.17558	0.19818	0.13326	0.23083	0.25598	0.27751	0.10627	0.12568	0.14186	0.15826	0.21092	0.17417	0.17597	0.29375	0.50417	0.12917	0	0.73333	0.039583	0.2625	0.49375	-0.16458	0.51667	0.20417	0.095833	0.58542	-0.1375	0.0625	0.5375	59.564	294.680	317.627	31.069	58.832	280.676	255.474	275.966	24.657	305.891	252.685	217.392	178.059	42.254	182.327	288.276	0.00010113	0.00080064	7.0401e-05	847.09	3.5198e-06	5.7653e-06	592.74	194.71	8.2553e-06	8.8731e-06	153.53	53.064	69.517	27.019	6.9084e-06	21.547	0.0049347	0.0084845	0.0023341	885.26	8.5781e-05	9.1342e-05	611.08	200.66	7.8356e-05	8.5243e-05	166.26	58.06	75.189	28.503	8.0092e-05	23.615	174.183	97.373	68.081	-21.571	65.741	96.641	-22.596	-16.308	152.277	98.288	-19.293	-14.403	-11.515	-6.691	75.865	-9.415	-8191	255	
1023.698	1	1	0	0	0.31388	0.10201	0.16158	0.041437	0.095186	0.063744	0.099438	0.1174	0.20037	0.26565	0.32708	0.14015	0.22844	0.18713	0.15297	0.29536	0.17292	0.57292	0.18958	-0.064583	0.71875	-0.22917	0.054167	0.52917	-0.35208	0.47083	0.21667	-0.28958	0.55417	-0.085417	0.31667	0.51458	189.286	68.627	152.417	20.860	247.411	129.102	74.093	197.458	67.469	68.176	242.217	142.458	38.490	265.496	277.261	9.815	3.838e-05	0.0010711	0.00024017	882.64	1.4072e-06	8.8986e-06	621	204.67	2.6211e-06	1.9096e-06	161.54	53.47	72.241	27.552	5.1129e-06	21.625	0.0042408	0.0073165	0.0020613	909.21	7.5347e-05	7.9462e-05	629.7	210.18	6.8962e-05	7.6222e-05	171.67	57.974	77.039	28.791	7.3931e-05	23.433	202.841	88.872	260.902	-21.095	280.851	122.265	-22.353	-16.199	118.864	62.282	-19.331	-14.566	-11.809	-6.883	2.795	-10.314	-8191	255	
1023.794	1	1	0	0	0.23979	0.26983	0.15441	0.0017998	0.25441	0.1466	0.39917	0.08552	0.035987	0.19198	0.16594	0.10119	0.18073	0.29342	0.12978	0.10313	0.11875	0.45	0.45417	-0.26042	0.55208	-0.095833	-0.26667	0.50833	-0.16042	0.25625	0.44375	-0.52708	0.57083	-0.027083	-0.13125	0.5125	112.652	202.043	191.243	180.000	102.048	219.152	316.027	14.020	323.286	88.592	275.550	184.579	157.053	80.157	218.983	247.134	5.8696e-05	0.00059823	0.00010197	914.69	2.013e-06	4.5854e-06	641.31	219.25	1.6396e-06	2.5905e-06	170.14	54.827	75.052	28.372	7.331e-06	21.643	0.004018	0.0070181	0.0020079	944.1	7.487e-05	8.1989e-05	653.19	224.07	7.4449e-05	8.2572e-05	181.54	60.053	81.06	29.889	8.333e-05	24.003	152.874	96.091	41.692	-21.492	190.521	32.086	-22.549	-16.288	95.971	-28.523	-18.681	-14.700	-11.696	-6.498	245.062	-10.089	-8191	255	
1023.913	1	1	0	0	0.28937	0.52119	0.17674	0.02674	0.10725	0.14665	0.13775	0.26074	0.22763	0.16568	0.38919	0.16404	0.0046687	0.2662	0.48286	0.025267	-0.20625	0.06875	0.53958	-0.33333	0.52708	0.27917	-0.25417	0.55208	-0.14792	0.275	0.56875	-0.13958	0.40625	0.085417	-0.11042	0.67708	117.304	206.915	282.122	177.896	188.427	250.821	210.231	232.272	111.428	134.156	273.838	209.890	221.707	192.296	85.657	131.766	0.00012256	0.00094724	0.00016888	934.65	2.9523e-06	8.9728e-06	649.39	223.04	2.7061e-06	8.1732e-06	170.28	56.133	76.27	28.641	7.7653e-06	21.941	0.0045862	0.0082239	0.0023419	969.5	9.0644e-05	9.7722e-05	666.76	230.56	8.8277e-05	9.9364e-05	186.64	62.269	83.459	30.465	9.9665e-05	24.875	104.667	156.447	65.366	-21.226	93.035	20.588	-22.157	-15.771	98.671	204.055	-18.791	-14.197	-11.654	-6.365	176.017	-9.875	-8191	255	
1024.009	1	1	0	0	0.081369	0.24304	0.15327	0.11839	0.22168	0.038815	0.19255	0.061597	0.31347	0.053417	0.069085	0.088171	0.056245	0.17439	0.31928	0.17269	0.36667	0.18125	0.65833	-0.3	0.44167	0.3	-0.15833	0.67917	-0.047917	-0.077083	0.29167	-0.13333	0.30625	0.28542	-0.25208	0.525	117.077	13.276	152.614	58.315	183.045	115.052	174.092	-10.708	108.120	121.289	121.591	11.706	325.744	-33.159	-18.476	226.293	4.7701e-05	0.00015789	0.00010562	920.22	2.5499e-06	1.2243e-05	641.01	223.61	7.7039e-06	5.4904e-06	169.1	56.761	75.927	28.526	2.6554e-06	21.859	0.005485	0.009886	0.0027887	976.01	0.00010803	0.00011927	666.43	233.82	0.00011054	0.00012445	189.99	64.146	84.706	30.798	0.00012184	25.238	132.556	135.012	311.531	-20.951	197.637	84.536	-22.473	-16.072	136.495	299.765	-18.623	-14.320	-11.901	-6.519	154.684	-9.939	-8191	255	
1024.105	1	1	0	0	0.11966	0.31024	0.28722	0.24503	0.24183	0.083847	0.050511	0.087831	0.12181	0.37376	0.12898	0.078929	0.13261	0.1157	0.1724	0.16946	0.45208	-0.014583	0.58333	-0.24792	0.28333	0.56458	-0.39583	0.46875	0.11042	-0.10625	0.4875	-0.43958	0.23542	0.42292	-0.23125	0.43542	174.759	101.465	197.040	9.934	272.509	273.654	273.680	256.055	271.589	66.210	138.499	164.020	169.584	89.425	98.548	170.022	5.4757e-05	0.0010748	0.00033332	917.11	3.9106e-06	1.2501e-05	626.45	219.33	8.6907e-06	5.1372e-06	167.29	56.468	75.106	28.208	3.8912e-06	22.102	0.006504	0.011314	0.0031193	970.9	0.00011351	0.00012208	654.62	228.88	0.00010342	0.00011536	185.19	63.179	82.759	30.179	0.00010625	25.108	128.893	227.166	108.310	-21.125	33.518	155.659	-22.268	-16.110	181.100	58.054	-18.674	-15.015	-11.936	-6.333	265.914	-10.484	-8191	255	
1024.201	1	1	0	0	0.14338	0.15153	0.1024	0.22017	0.26291	0.32729	0.23115	0.18727	0.21143	0.025398	0.22333	0.36707	0.067783	0.3431	0.1015	0.083898	0.58958	-0.23542	0.4375	-0.13958	-0.064583	0.55208	-0.42708	0.42917	0.22292	-0.19375	0.43333	-0.24583	0.025	0.45	-0.0083333	0.34792	131.893	5.467	68.948	288.162	290.984	200.471	198.199	-12.243	217.633	85.539	50.700	259.694	130.997	250.239	253.559	83.449	6.3584e-05	0.00086685	0.00015068	915.01	4.8437e-06	6.9755e-06	633.75	217.37	2.7683e-06	5.5669e-06	168.27	56.631	74.401	28	4.0926e-06	22.602	0.0057988	0.010207	0.0028496	963.36	0.00010683	0.00011556	660.54	227.1	0.00010254	0.00011424	186.09	63.573	82.526	29.993	0.00011168	25.75	118.976	155.775	315.010	-21.172	142.938	119.947	-21.980	-16.067	239.792	151.249	-19.181	-14.140	-11.850	-6.540	128.347	-10.802	-8191	255	
1024.297	1	1	0	0	0.13689	0.17922	0.15342	0.091852	0.30921	0.0983	0.26303	0.075013	0.098468	0.09581	0.22643	0.30661	0.2648	0.31789	0.034885	0.088815	0.64792	-0.20625	0.54792	-0.24375	-0.025	0.525	-0.3	0.3875	0.35833	-0.31667	0.48333	-0.070833	0.00625	0.61667	-0.033333	0.375	263.246	16.071	44.255	200.250	-29.008	252.598	-33.314	36.871	29.517	261.480	192.398	320.823	186.487	313.001	325.777	11.772	6.7726e-05	0.00055219	0.00012093	914.56	4.2076e-06	1.222e-05	647.3	218.9	5.0495e-06	1.4156e-05	170.78	59.262	75.844	28.473	1.857e-06	23.669	0.0061182	0.010879	0.0030733	972.66	0.00011664	0.00012472	676.16	228.57	0.00010948	0.00011928	190.48	66.329	83.785	30.555	0.00010768	26.665	50.763	286.756	211.620	-21.522	64.590	161.076	-22.329	-16.015	257.388	54.978	-19.229	-14.897	-12.131	-6.938	226.069	-10.801	-8191	255	
1024.393	1	1	0	0	0.13762	0.25168	0.089275	0.10691	0.30571	0.14636	0.20384	0.21764	0.086385	0.25677	0.068854	0.19906	0.41959	0.21074	0.10029	0.12881	0.66667	-0.36875	0.5625	-0.022917	-0.039583	0.60625	-0.23333	0.32708	0.6125	-0.39792	0.38125	0.25417	-0.22292	0.48542	-0.31875	0.0375	55.686	66.914	276.840	283.436	-31.715	29.233	43.938	303.772	80.061	217.938	235.627	201.084	6.183	40.299	15.781	-11.635	0.00012419	0.00080342	0.00029427	926.25	7.8232e-06	4.9736e-06	667.14	221.57	4.6611e-06	1.2803e-05	175.44	60.084	76.701	28.78	9.3092e-06	23.945	0.0057994	0.010052	0.0028009	976.75	0.00010429	0.0001125	689.8	230.26	0.00010148	0.00011165	192.12	66.942	84.568	30.902	0.00010733	27.066	105.901	80.768	53.528	-20.934	87.970	92.673	-22.421	-15.926	60.164	76.231	-18.522	-14.702	-11.678	-6.956	141.569	-10.440	-8191	255	
1024.489	1	1	0	0	0.20809	0.23426	0.03276	0.40508	0.19447	0.16962	0.41479	0.14661	0.16891	0.17206	0.11269	0.21093	0.184	0.23651	0.11344	0.43776	0.85	-0.15417	0.3125	0.28333	-0.091667	0.58542	0.095833	-0.054167	0.64167	-0.3625	0.37917	0.21042	-0.17917	0.45625	-0.06875	0.033333	173.829	271.208	308.215	215.942	64.084	320.138	153.905	256.119	242.879	173.493	86.412	242.900	201.311	315.547	271.859	17.709	0.00010088	0.0004768	0.00012985	939.78	4.0698e-06	1.056e-05	674.16	225.03	4.1961e-06	8.1114e-06	176.86	61.147	77.864	29.257	6.1782e-06	24.404	0.0058436	0.010162	0.0028615	988.61	0.00010707	0.00011628	698.95	233.22	0.00010503	0.00011743	195.56	68.173	86.038	31.421	0.00011456	27.506	175.876	113.325	135.914	-21.087	291.001	149.736	-22.233	-16.305	323.734	109.399	-18.628	-14.671	-12.175	-6.877	121.899	-10.139	-8191	255	
1024.610	1	1	0	0	0.06649	0.05845	0.19981	0.14708	0.081378	0.20466	0.23706	0.12497	0.26583	0.060749	0.16649	0.20318	0.29027	0.2531	0.058382	0.12942	0.9375	-0.34167	0.52083	0.52917	-0.27917	0.56875	-0.039583	-0.29375	0.56667	-0.19583	0.19167	0.50625	-0.48125	0.52708	0.21875	-0.11875	258.187	252.717	142.079	52.469	107.288	202.492	311.945	153.093	91.899	184.671	289.049	226.756	280.555	245.820	203.842	315.974	9.8337e-05	0.0006608	0.00033355	947.67	4.0326e-06	4.1436e-06	689.69	227.95	8.2828e-06	9.3871e-06	178.74	61.98	78.694	29.556	4.5396e-06	24.914	0.0061956	0.010826	0.0030943	1009.2	0.00011823	0.00012727	718.39	238.59	0.00011813	0.00013174	202.24	70.466	88.623	32.194	0.00013363	28.526	150.779	0.888	106.618	-21.035	199.227	132.305	-22.473	-16.060	135.110	51.625	-18.856	-14.363	-11.802	-7.172	194.757	-10.186	-8191	255	
1024.706	1	1	0	0	0.037945	0.19501	0.1058	0.40525	0.023813	0.068506	0.11567	0.023587	0.14892	0.15576	0.24619	0.35204	0.22283	0.15117	0.15419	0.39648	0.91875	-0.085417	0.35208	0.50833	-0.31667	0.39375	0.14167	-0.44583	0.53542	-0.03125	-0.058333	0.5125	-0.14375	0.37292	0.36042	-0.29167	3.539	132.866	91.803	263.930	302.602	-27.866	272.531	-9.440	11.006	34.386	64.158	19.921	200.837	-0.296	172.166	95.769	0.00018415	0.00065476	0.00013024	968.15	1.0727e-05	7.8592e-06	706.66	232.13	7.517e-06	4.6714e-06	184.85	63.057	79.459	29.425	1.1223e-05	25.173	0.0072682	0.0128	0.0035974	1039.2	0.00013568	0.00014573	743.14	243.63	0.00013029	0.00014483	209.18	71.836	89.328	32.125	0.0001342	28.746	146.342	112.227	229.784	-20.851	110.796	26.544	-22.195	-15.998	157.384	45.211	-18.831	-14.643	-11.534	-6.548	115.121	-10.037	-8191	255	
1024.802	1	1	0	0	0.36086	0.12487	0.32763	0.31112	0.18637	0.090133	0.012772	0.20645	0.072663	0.19087	0.39982	0.10527	0.22503	0.18303	0.15768	0.33575	0.84167	-0.025	0.03125	0.5125	-0.1625	0.39792	0.27292	-0.29375	0.73958	-0.025	-0.11042	0.675	-0.19583	0.2	0.35625	-0.35208	51.234	321.143	-27.322	225.586	92.831	325.812	271.804	-1.276	-23.248	316.596	306.107	261.059	315.875	195.676	32.126	-18.741	5.8494e-05	0.00052378	0.00011957	997.83	7.0106e-06	1.2303e-05	743.21	239.98	5.0426e-06	7.2209e-06	192.72	64.563	80.351	29.75	4.3711e-06	24.875	0.0071314	0.012474	0.0034601	1062.4	0.00012731	0.00013581	771.52	250.7	0.00011773	0.00013017	213.67	72.037	89.486	32.203	0.0001186	28.184	124.056	9.031	197.215	-21.014	55.888	48.941	-22.125	-15.821	52.139	269.423	-18.840	-14.421	-11.630	-6.204	178.948	-10.278	-8191	255	
1024.923	1	1	0	0	0.089106	0.21443	0.075356	0.2407	0.27694	0.17235	0.25906	0.25517	0.274	0.15788	0.056603	0.27872	0.10683	0.11949	0.10061	0.060551	1.0104	0.064583	-0.20208	0.575	-0.25	0.17083	0.3875	-0.26458	0.50208	0.23542	-0.425	0.38333	-0.21667	0.13333	0.45833	-0.37083	278.816	18.639	226.636	246.904	218.413	190.221	237.683	256.592	255.392	282.065	58.723	-14.418	270.557	-21.636	46.606	-32.947	0.00010702	0.00046762	0.0004912	1024.4	4.8161e-06	3.1186e-06	764.23	244.4	6.787e-06	3.6268e-06	194.02	62.778	79.978	30.289	5.1537e-06	24.445	0.0063666	0.010836	0.0029914	1072.7	0.00010837	0.00011311	783.01	251.95	9.4654e-05	0.00010221	209.09	67.944	86.277	31.705	8.4655e-05	26.59	218.614	3.723	54.404	-20.724	206.536	184.672	-22.499	-15.745	199.299	-22.375	-18.582	-13.875	-11.189	-6.270	87.299	-9.311	-8191	255	
1024.995	1	1	0	0	0.15961	0.23522	0.35838	0.13006	0.29905	0.16005	0.062629	0.1371	0.29277	0.12715	0.10455	0.16755	0.14398	0.20415	0.075084	0.23283	0.75417	0.39167	-0.08125	0.52708	-0.16042	-0.0375	0.50417	-0.42292	0.22917	0.45208	-0.3875	0.575	-0.1625	-0.14375	0.6625	-0.19583	268.981	255.920	110.166	264.924	58.332	260.107	173.169	1.538	236.597	-17.458	181.634	59.582	47.690	248.744	24.103	163.917	5.5496e-05	0.0005911	0.00014273	1004.9	4.5154e-06	4.7326e-06	746.86	240.19	4.6899e-06	3.849e-06	190.59	60.407	79.254	31.084	3.8579e-06	25.313	0.0044011	0.007625	0.0020619	1029.8	7.4018e-05	7.837e-05	753.39	243.88	6.4715e-05	7.1444e-05	198.74	63.924	83.373	32.141	6.3168e-05	26.721	128.873	267.133	15.743	-20.789	174.753	89.754	-22.305	-15.624	224.474	72.886	-18.600	-14.050	-10.515	-5.738	-22.784	-9.479	-8191	255	
1025.089	1	1	0	0	0.068632	0.16759	0.14897	0.1215	0.080146	0.11866	0.25311	0.045215	0.07985	0.12327	0.15276	0.16637	0.072323	0.16909	0.14926	0.25968	0.76042	0.49375	-0.25208	0.39792	0.027083	-0.052083	0.38958	-0.35833	0.18125	0.40833	-0.4	0.32708	0.039583	-0.34583	0.55417	-0.16042	193.364	42.518	217.142	163.115	184.691	258.192	218.290	206.845	187.895	308.480	202.879	162.545	42.673	256.283	97.653	171.491	4.535e-05	0.00054926	0.00024214	1002.5	4.6571e-06	8.8475e-06	756.02	244.22	2.9583e-06	3.2975e-06	194.52	62.471	80.119	32.369	2.6958e-06	27.069	0.0033536	0.0058765	0.0016103	1013.6	5.9539e-05	6.2898e-05	753.66	245.96	5.6843e-05	6.4133e-05	202.22	66.073	84.15	33.316	6.7041e-05	28.463	60.069	261.237	75.903	-20.868	136.235	140.708	-22.146	-15.458	96.424	57.554	-18.294	-13.269	-10.666	-5.299	229.869	-9.649	-8191	255	
1025.210	1	1	0	0	0.26111	0.096189	0.060242	0.29799	0.34573	0.22002	0.18291	0.24637	0.30716	0.34687	0.17525	0.24834	0.13991	0.19905	0.17706	0.21481	0.56667	0.58333	-0.21458	0.42708	0.2	-0.2625	0.425	-0.47292	0.14375	0.58542	-0.29583	0.32708	0.16042	-0.52292	0.46875	-0.13125	172.102	297.215	165.313	-7.074	253.292	293.255	306.197	211.325	38.972	199.426	46.968	292.359	66.238	310.646	316.336	320.284	9.9751e-05	0.0002885	0.00032	1002.5	7.9471e-06	6.257e-06	769.11	246.43	4.7614e-06	1.2008e-06	199.96	64.036	81.645	33.238	3.6374e-06	27.058	0.0037903	0.0066811	0.0018781	1024.1	7.1757e-05	7.6258e-05	773.86	249.88	6.6104e-05	7.3254e-05	208.76	68.401	85.859	34.229	6.6742e-05	28.743	229.837	92.802	97.202	-20.586	143.575	196.733	-21.827	-15.026	196.367	265.763	-17.749	-12.923	-10.116	-5.323	75.443	-8.831	-8191	255	
1025.306	1	1	0	0	0.08623	0.1349	0.20626	0.072667	0.12971	0.049014	0.27067	0.26971	0.15499	0.089041	0.017411	0.11186	0.40909	0.19214	0.22357	0.32762	0.25417	0.52083	-0.14792	0.14792	0.24375	-0.28958	0.49583	-0.10625	0.20417	0.42292	-0.097917	0.25	0.47917	-0.37917	0.60208	0.0875	315.206	252.774	169.736	-16.575	137.861	-30.809	266.521	271.407	187.321	218.821	60.913	175.511	1.024	-24.761	-9.050	253.608	3.5295e-05	0.00028805	0.00024184	994.01	3.8706e-06	8.6397e-07	749.24	241.21	1.0674e-06	1.1486e-06	193.33	62.578	80.804	33.155	3.3232e-06	26.942	0.0036453	0.0063171	0.001748	1011	6.498e-05	6.8791e-05	756.31	244.14	6.038e-05	6.7389e-05	201.42	66.282	84.327	34.138	6.2178e-05	28.32	187.273	278.453	100.215	-20.456	32.448	-24.477	-21.443	-14.963	60.666	174.353	-17.999	-13.187	-9.988	-5.090	223.592	-8.446	-8191	255	
1025.402	1	1	0	0	0.19524	0.06621	0.3894	0.2425	0.046581	0.19341	0.2106	0.12026	0.40836	0.31091	0.25574	0.22563	0.18257	0.13163	0.35164	0.10248	0.28333	0.53958	-0.0625	0.079167	0.48333	-0.21458	0.43542	0.19583	-0.095833	0.45625	-0.16458	-0.070833	0.68125	-0.26875	0.36042	0.22917	235.768	68.710	287.256	229.928	277.395	31.423	247.029	27.547	247.692	-5.709	310.750	-9.791	89.593	56.207	5.437	8.512	0.00010668	0.00044268	0.00019994	995.01	7.966e-06	5.7151e-06	748.25	236.04	6.0402e-06	5.3757e-06	190.15	62.698	80.428	33.576	3.3676e-06	27.203	0.0033897	0.0058727	0.0016123	1007.3	6.006e-05	6.5514e-05	752.39	239.11	5.7736e-05	6.4372e-05	199.12	66.061	83.63	34.449	6.0403e-05	28.64	115.909	27.673	-16.687	-20.251	163.733	143.598	-21.528	-14.980	147.098	128.846	-17.431	-12.820	-9.840	-4.970	316.984	-8.020	-8191	255	
1025.498	1	1	0	0	0.32718	0.14922	0.14967	0.22767	0.14149	0.23511	0.26198	0.2042	0.152	0.18176	0.4561	0.20188	0.21306	0.30733	0.20706	0.2013	0.22917	0.52917	0.0041667	0.11042	0.55625	-0.26875	0.21458	0.21042	-0.09375	0.62917	-0.12292	0.0083333	0.52083	-0.45625	0.28542	0.13125	26.069	265.267	-13.305	304.776	101.892	305.355	213.065	3.083	237.816	-8.858	216.878	15.373	245.278	251.256	260.433	204.376	8.2794e-05	0.00024869	5.8632e-05	974.44	4.6964e-06	1.1729e-05	739.87	231.87	3.3278e-06	5.3944e-06	188.59	62.554	77.823	32.994	7.1064e-06	27.459	0.0032848	0.005738	0.0015947	990.19	6.0244e-05	6.4884e-05	741.86	233.93	5.8714e-05	6.5428e-05	195.3	65.768	81.771	33.828	6.464e-05	28.976	143.322	33.881	160.971	-19.950	170.768	66.878	-21.470	-14.532	201.021	278.021	-16.940	-12.463	-9.850	-4.456	115.018	-8.237	-8191	255	
1025.594	1	1	0	0	0.18111	0.35309	0.094785	0.25817	0.1842	0.27402	0.15892	0.31545	0.084281	0.13969	0.13836	0.11369	0.090659	0.33348	0.13177	0.24033	0.12292	0.60417	0.11042	-0.19167	0.58958	-0.24375	0.047917	0.37708	-0.35417	0.64375	0.21875	-0.425	0.38333	-0.325	0.26458	0.45417	291.468	-20.883	178.747	9.182	105.569	258.828	169.103	-7.275	227.975	157.898	223.920	320.077	-31.102	7.019	209.588	313.317	8.9251e-05	0.0013842	8.9237e-05	941.75	5.2781e-07	5.9606e-06	716.45	222.49	3.6408e-06	6.2498e-06	181.69	61.128	74.901	31.997	4.8186e-06	26.893	0.0035839	0.0062268	0.001736	960.43	6.4689e-05	6.8106e-05	723.87	226.15	6.0421e-05	6.7491e-05	191.52	64.75	79.216	32.884	6.514e-05	28.493	186.165	141.604	215.327	-20.697	81.383	114.078	-21.730	-14.407	212.312	44.425	-18.416	-12.997	-10.301	-5.285	77.984	-8.846	-8191	255	
1025.690	1	1	0	0	0.23404	0.12514	0.083553	0.23892	0.42101	0.19072	0.21428	0.167	0.23009	0.27645	0.30088	0.10445	0.092423	0.41333	0.10026	0.11874	0.014583	0.48333	0.30208	-0.21458	0.41875	-0.26875	-0.21458	0.36042	-0.32917	0.29792	0.33958	-0.19792	0.31042	-0.1375	0.1625	0.34167	153.994	316.004	280.521	20.182	22.441	20.114	295.925	-7.590	196.380	73.682	269.269	198.230	1.188	272.624	29.143	5.208	0.00013583	0.00065956	0.00015561	909.91	4.9764e-06	2.2551e-06	682.48	214.96	7.466e-07	4.7643e-06	175.07	58.614	73.191	30.776	2.0356e-06	26.473	0.0035689	0.0062374	0.0017339	929.23	6.4322e-05	6.8404e-05	686.82	217.97	5.9119e-05	6.6077e-05	182.81	62.121	76.462	31.661	5.9721e-05	27.682	144.354	111.139	95.830	-20.322	65.825	83.847	-21.571	-14.888	310.121	294.193	-17.838	-13.074	-9.660	-4.446	183.898	-8.566	-8191	255	
1025.787	1	1	0	0	0.2188	0.16677	0.17418	0.12474	0.13732	0.15542	0.16973	0.23484	0.051885	0.26847	0.16903	0.25435	0.22389	0.24582	0.047366	0.23444	0.16042	0.30417	0.27708	-0.20417	0.42292	0.01875	-0.15	0.49583	-0.18542	0.325	0.35833	-0.33958	0.575	-0.06875	-0.10625	0.47292	10.859	63.473	200.212	114.826	-5.877	301.432	116.387	146.628	-18.945	218.556	-20.756	-1.937	319.029	26.625	-20.142	186.719	0.00013887	0.0006068	0.00027296	875.98	4.7305e-06	1.6235e-05	656.77	209.53	2.918e-06	8.1814e-06	170.61	57.543	70.559	30.333	2.2229e-06	26.331	0.0032545	0.0054952	0.001524	894.35	5.527e-05	5.8916e-05	658.99	211.65	5.1611e-05	5.7384e-05	176.8	60.536	74.374	31.156	5.6778e-05	27.644	207.710	45.541	65.820	-20.570	219.711	107.454	-21.479	-14.448	245.997	85.467	-17.973	-12.799	-10.171	-5.191	136.843	-8.601	-8191	255	
1025.883	1	1	0	0	0.028046	0.24709	0.024381	0.18882	0.20017	0.14623	0.16862	0.13225	0.189	0.19058	0.021496	0.15641	0.06053	0.18805	0.10906	0.18628	0.22708	0.37083	0.56042	-0.22292	0.62708	0.14167	-0.24583	0.59167	0.041667	-0.08125	0.33958	-0.10833	0.40625	0.13125	-0.24375	0.64583	164.049	27.648	263.756	-23.387	7.605	253.245	253.536	172.765	323.580	101.696	290.508	255.918	237.546	267.658	-4.513	155.870	0.00015587	0.00049086	8.0498e-05	859.25	3.2666e-06	1.5352e-06	642.18	205.92	9.9059e-06	8.1882e-06	169.25	57.444	69.824	29.752	5.2238e-06	26.435	0.0031251	0.0053788	0.0015033	873.9	5.5756e-05	5.9293e-05	642.96	207.55	5.1002e-05	5.7542e-05	175.64	60.413	73.311	30.466	5.5878e-05	27.743	168.229	278.090	262.327	-20.580	48.685	3.149	-21.537	-14.227	100.742	146.133	-17.965	-13.510	-10.223	-5.518	140.905	-9.086	-8191	255	
1026.002	1	1	0	0	0.050084	0.33965	0.09802	0.19925	0.074244	0.16134	0.42981	0.13331	0.13663	0.11815	0.36281	0.26038	0.15432	0.22473	0.065877	0.13288	0.13958	0.12708	0.51042	-0.33958	0.32917	0.42083	-0.37917	0.42083	-0.083333	0.041667	0.59167	-0.29792	0.2	0.35417	-0.15625	0.64375	69.126	-22.775	69.832	64.054	37.100	116.773	254.562	239.639	110.672	297.563	234.038	286.954	256.797	-23.713	13.064	292.780	5.1015e-05	0.00078094	0.00014345	853.01	3.8317e-06	9.2523e-06	623.3	202.7	1.2375e-06	4.6789e-06	166.77	57.045	68.297	28.235	6.9203e-06	25.828	0.0031355	0.0055203	0.0015348	866.25	5.7632e-05	6.1799e-05	629.64	205.52	5.526e-05	6.2226e-05	174.5	60.702	72.203	29.259	6.1775e-05	27.327	62.692	85.843	128.556	-21.127	174.314	119.448	-21.981	-15.359	322.323	105.689	-18.088	-13.295	-10.128	-4.856	103.330	-8.921	-8191	255	
1026.098	1	1	0	0	0.033454	0.17098	0.1096	0.16774	0.33839	0.13876	0.17239	0.29985	0.21351	0.27501	0.075131	0.29408	0.15436	0.16861	0.14387	0.016547	0.25625	-0.029167	0.43125	-0.083333	0.23542	0.49583	-0.44375	0.48125	0.2	-0.13333	0.49792	-0.14167	0.06875	0.38958	-0.25	0.30417	266.320	327.134	239.803	257.943	220.168	127.437	208.520	256.035	258.303	244.038	46.523	53.393	323.172	252.194	129.756	162.197	0.00014486	0.0006104	0.00018552	825.03	3.2841e-06	1.8909e-06	602.87	198.9	4.4787e-07	1.013e-05	161.87	56.652	66.805	27.012	4.6767e-06	25.517	0.0035203	0.0061389	0.0017221	845.16	6.5911e-05	7.025e-05	612.14	201.65	6.3208e-05	6.9548e-05	170.87	60.448	71.563	28.126	7.0364e-05	26.998	208.594	283.115	169.139	-20.278	115.195	310.132	-21.260	-14.516	61.550	130.696	-17.865	-12.737	-10.037	-4.948	155.695	-8.568	-8191	255	
1026.171	1	1	0	0	0.19899	0.061449	0.030243	0.06092	0.23041	0.16035	0.070943	0.31422	0.087383	0.12437	0.16769	0.17556	0.18122	0.20779	0.19606	0.39399	0.48542	-0.24375	0.62292	-0.14583	0.1625	0.48333	-0.39583	0.23125	0.34792	-0.31875	0.49375	-0.27708	-0.12708	0.52917	-0.19792	0.41042	-7.940	-9.166	141.875	150.175	49.868	87.546	60.895	290.248	-32.929	89.686	293.415	35.565	6.504	285.612	91.383	105.380	5.7186e-05	0.00046198	0.00015182	810.27	6.2536e-06	2.6219e-06	587.2	191.74	4.2876e-06	6.9644e-06	156.8	55.858	66.27	26.167	4.0508e-06	24.752	0.003969	0.0070591	0.0020077	837.7	7.5477e-05	8.1556e-05	599.7	197.29	7.2862e-05	8.1659e-05	167.65	60.579	71.382	27.631	7.7925e-05	26.868	207.038	101.428	209.727	-21.036	11.371	211.479	-22.118	-15.500	216.987	39.798	-17.509	-13.138	-10.423	-5.163	152.507	-9.487	-8191	255	
1026.290	1	1	0	0	0.31828	0.088047	0.25558	0.27097	0.10738	0.048672	0.1181	0.06204	0.23678	0.29062	0.14761	0.051818	0.14353	0.057672	0.05603	0.21871	0.48125	-0.21667	0.60208	-0.14375	-0.11875	0.48333	-0.31875	0.25	0.50417	-0.19792	0.58333	0.10833	-0.039583	0.74792	-0.17708	0.16875	83.314	257.485	99.780	319.446	235.039	275.421	31.879	117.899	79.359	119.372	299.259	47.632	160.537	213.923	295.559	82.860	8.6803e-05	0.00022936	0.00013404	795.05	6.5653e-06	1.9344e-06	579.88	187.64	3.3631e-06	1.1765e-06	153.09	55.325	64.298	26.122	3.2476e-07	25.078	0.0043118	0.0074603	0.0020798	826.14	7.7267e-05	8.479e-05	593.85	192.64	7.409e-05	8.1138e-05	165.01	59.958	69.913	27.456	7.4873e-05	27.01	114.991	117.738	179.889	-20.460	264.409	158.190	-21.388	-14.852	2.607	145.614	-17.848	-12.353	-10.382	-4.917	-31.583	-9.162	-8191	255	
1026.386	1	1	0	0	0.14013	0.17812	0.091443	0.21843	0.07082	0.20151	0.18669	0.41313	0.076688	0.14213	0.067939	0.037636	0.26747	0.18247	0.12226	0.1088	0.95833	-0.085417	0.46875	0.13125	-0.11667	0.64583	-0.32292	-0.039583	0.67292	-0.31667	0.29167	0.24375	-0.2375	0.43958	-0.045833	0.13958	263.968	-4.402	265.345	188.794	-23.270	72.110	324.217	287.744	98.344	135.420	127.970	27.615	293.556	22.428	281.559	157.634	2.6644e-05	0.00021676	0.0001719	791.05	2.6586e-06	7.0797e-06	584.8	184.98	2.1855e-06	5.0757e-06	153.29	55.639	64.81	26.748	6.736e-06	25.627	0.0040462	0.0068545	0.0019415	820.59	7.126e-05	7.6708e-05	596.22	190.37	6.7967e-05	7.5248e-05	164.03	59.868	69.87	28.061	7.1207e-05	27.45	66.136	73.440	180.800	-20.478	221.387	8.370	-22.164	-15.705	81.106	306.934	-18.740	-14.164	-11.406	-6.240	75.940	-9.488	-8191	255	
1026.482	1	1	0	0	0.070183	0.087813	0.16419	0.32358	0.27467	0.25281	0.17143	0.24156	0.15233	0.26254	0.15115	0.30427	0.12681	0.1115	0.17757	0.30209	0.925	-0.31042	0.4375	0.23125	-0.30833	0.55833	-0.091667	-0.19792	0.5625	-0.16042	0.36042	0.41042	-0.21042	0.64167	0.13333	-0.18125	188.119	62.579	14.835	295.406	162.363	152.161	277.596	235.425	49.395	104.990	141.912	236.280	223.230	22.362	270.023	-19.813	5.2933e-05	0.00095081	0.00019127	797.83	6.1285e-06	1.1313e-05	591.43	184.57	5.6717e-06	6.3959e-06	152.09	54.617	63.831	26.402	3.2439e-06	25.454	0.0038493	0.0066526	0.0018577	822.66	6.7833e-05	7.234e-05	599.31	189.25	6.2417e-05	6.9891e-05	162.8	58.478	68.232	27.568	6.4193e-05	26.915	311.902	30.384	301.244	-21.273	-3.379	27.036	-22.779	-16.184	178.809	202.032	-18.425	-13.556	-11.896	-6.000	159.692	-9.717	-8191	255	
1026.603	1	1	0	0	0.27747	0.23824	0.1482	0.13006	0.19022	0.32534	0.15852	0.18268	0.2522	0.085962	0.28991	0.13668	0.1501	0.14932	0.10655	0.10987	0.96458	-0.15417	0.42917	0.29375	-0.25417	0.49792	0.09375	-0.3125	0.61458	-0.075	0.16667	0.48125	-0.12708	0.4	0.21042	-0.18542	208.297	46.793	107.056	261.833	277.584	18.639	300.683	305.022	59.660	242.291	100.249	282.196	180.564	4.466	65.717	205.334	0.00011808	8.3891e-05	0.00024913	796.82	8.1574e-06	4.603e-06	594.36	185.79	2.7051e-06	4.942e-06	152.09	54.516	63.157	26.667	3.6523e-06	25.64	0.0034619	0.0060619	0.001696	821.59	6.3463e-05	6.7728e-05	600.66	188.73	5.9059e-05	6.5365e-05	161.77	57.954	67.228	27.615	5.8348e-05	26.957	140.807	148.987	54.401	-21.917	120.722	101.149	-22.432	-16.105	117.645	87.135	-18.928	-13.784	-11.660	-6.701	262.914	-9.695	-8191	255	
1026.699	1	1	0	0	0.13118	0.0858	0.053568	0.28734	0.31452	0.17063	0.061653	0.23859	0.24592	0.054271	0.29846	0.19971	0.28066	0.21667	0.080013	0.11511	1.0521	-0.125	0.18542	0.78333	-0.075	0.47292	0.30625	-0.058333	0.5	0.05625	-0.10625	0.55208	-0.17708	0.275	0.26667	-0.26667	121.128	286.354	97.589	307.746	38.585	97.531	25.555	213.409	295.348	103.944	197.007	299.241	7.731	323.315	253.909	252.337	0.00011448	0.00093002	0.00011092	804.67	4.0945e-06	3.1785e-06	605.93	188.11	2.1941e-06	7.1821e-06	158.23	55.209	64.858	27.776	3.7487e-06	26.861	0.0031162	0.005338	0.0014958	824.56	5.5641e-05	5.9501e-05	609.72	191	5.3929e-05	5.9527e-05	165.54	58.582	68.19	28.653	5.5346e-05	28.06	110.515	117.944	97.033	-21.623	61.438	9.448	-22.801	-16.009	230.820	43.668	-18.907	-14.189	-10.836	-5.981	98.035	-9.877	-8191	255	
1026.795	1	1	0	0	0.0093271	0.17035	0.25477	0.07025	0.22843	0.11174	0.18732	0.1722	0.17837	0.23637	0.28667	0.081886	0.24357	0.098089	0.18268	0.20411	0.97917	0.039583	0.18542	0.33542	-0.27292	0.16042	0.29375	-0.17083	0.675	0.0083333	0.016667	0.63333	-0.23958	0.15625	0.54583	-0.43958	75.062	322.758	321.235	197.016	302.809	-2.372	295.141	234.406	221.445	180.656	48.900	140.990	260.934	-15.101	63.329	35.144	8.3299e-05	0.00030601	0.00016486	823.04	1.8676e-06	3.7954e-06	623.45	192.71	3.5092e-06	4.3905e-06	163.69	57.225	66.359	28.458	2.8111e-06	26.593	0.0029955	0.0051766	0.0014265	835.99	5.2624e-05	5.5943e-05	624.85	195.46	4.9112e-05	5.4479e-05	170.57	59.964	69.488	29.315	5.217e-05	27.937	154.717	118.911	127.713	-21.580	272.430	62.112	-22.846	-15.706	68.263	122.015	-18.750	-13.651	-11.237	-6.076	202.287	-9.163	-8191	255	
1026.891	1	1	0	0	0.09503	0.089605	0.054774	0.19697	0.20926	0.070921	0.13203	0.21566	0.31234	0.13599	0.12039	0.11318	0.10935	0.13613	0.20773	0.11621	0.85417	0.2125	0.12708	0.60833	-0.19375	0.21667	0.50833	-0.17083	0.52708	0.37917	-0.20208	0.45833	-0.32292	-0.08125	0.55208	-0.3875	55.149	268.659	-8.025	287.270	191.792	294.699	296.117	192.648	112.177	215.560	39.411	13.696	142.928	294.674	111.788	24.887	1.2264e-05	0.0003359	0.00012078	829.22	8.1812e-06	1.8195e-06	620.44	195.19	7.0311e-06	6.2602e-06	165.75	56.963	66.54	28.294	2.4549e-06	26.395	0.0029422	0.0049908	0.0014001	839.25	5.2537e-05	5.6335e-05	623.58	197.7	4.9737e-05	5.4218e-05	171.51	59.718	69.717	29.192	5.1073e-05	27.509	156.882	254.299	15.448	-21.321	129.526	84.241	-22.693	-15.993	18.823	193.093	-18.933	-13.598	-11.026	-6.030	95.938	-9.536	-8191	255	
1026.986	1	1	0	0	0.1849	0.16019	0.27594	0.032763	0.097163	0.19583	0.20567	0.12092	0.069275	0.11206	0.15401	0.26571	0.19682	0.32951	0.13615	0.37052	0.65208	0.25417	-0.10625	0.74583	-0.016667	-0.18958	0.575	-0.16875	0.54167	0.4125	-0.15417	0.57708	0.0625	0.13542	0.58125	-0.10833	233.764	165.665	263.258	280.364	220.382	290.179	-30.792	13.663	-1.066	127.370	252.488	83.520	127.384	309.615	252.178	314.204	0.00013987	0.00026287	7.199e-05	830.91	6.8105e-06	1.1448e-05	620.14	196.84	4.1067e-06	4.7803e-06	166.1	56.898	66.489	28.593	2.7831e-06	26.498	0.002753	0.004673	0.0012847	837.46	4.7865e-05	5.1503e-05	621.45	198.13	4.568e-05	4.979e-05	170.85	59.425	69.286	29.241	4.5334e-05	27.325	115.946	76.744	290.696	-21.551	160.432	53.022	-22.388	-16.074	56.928	120.640	-19.058	-13.896	-10.950	-6.426	206.522	-9.328	-8191	255	
1027.082	1	1	0	0	0.0494	0.19664	0.24564	0.089312	0.21692	0.21626	0.26151	0.028236	0.28472	0.23986	0.30136	0.21102	0.2975	0.092516	0.18046	0.20556	0.73542	0.61042	-0.15208	0.65833	0.17292	-0.035417	0.63542	-0.19375	0.14167	0.46667	-0.17917	0.45625	0.28125	-0.0083333	0.58333	-0.05	5.892	266.559	303.861	219.366	5.395	60.481	161.935	57.755	49.878	178.638	323.854	228.177	271.447	-12.447	-12.553	290.669	4.1529e-05	0.0005406	9.6655e-05	817.9	3.539e-06	3.8802e-06	610.18	193.34	2.4127e-06	5.2853e-06	162.97	56.173	65.812	28.391	3.7369e-06	26.141	0.0024704	0.0041807	0.0011433	820.58	4.2296e-05	4.5661e-05	609.02	194.27	4.123e-05	4.5319e-05	167.18	58.283	68.213	28.825	4.3803e-05	26.955	197.047	2.075	250.921	-21.530	246.391	116.349	-22.476	-15.902	75.427	179.948	-18.524	-13.290	-10.724	-6.034	81.578	-9.936	-8191	255	
1027.178	1	1	0	0	0.077448	0.082671	0.059138	0.14836	0.052726	0.17737	0.19385	0.080553	0.039593	0.096883	0.12731	0.17645	0.13175	0.13381	0.28588	0.061061	0.62083	0.625	-0.35208	0.33333	0.22083	-0.039583	0.60833	-0.15208	0.01875	0.43333	-0.3125	0.475	0.21042	-0.18333	0.67708	-0.08125	93.917	120.093	139.273	231.623	82.165	235.332	210.811	126.619	165.962	69.006	300.571	88.896	281.316	41.637	219.448	160.807	0.00012133	0.00061504	0.00025791	801.17	3.8437e-06	8.3386e-06	600.07	189.83	2.4566e-06	6.0402e-06	157.22	54.494	63.954	27.428	1.8302e-06	25.013	0.0023737	0.0040522	0.001124	807.81	4.1938e-05	4.5529e-05	597.73	190.35	4.0891e-05	4.4297e-05	161.6	56.604	66.557	27.996	4.4975e-05	25.949	142.011	-21.178	33.630	-21.622	25.889	198.166	-22.455	-15.621	108.287	84.184	-19.201	-13.590	-10.747	-6.086	162.794	-9.404	-8191	255	
1027.299	1	1	0	0	0.10581	0.18237	0.079596	0.10612	0.092176	0.080512	0.038077	0.055395	0.24405	0.31827	0.14778	0.038432	0.098646	0.53253	0.11778	0.099179	0.57292	0.60625	-0.2	0.097917	0.25833	-0.15625	0.34583	0.0375	0.125	0.55833	-0.066667	0.17083	0.40208	-0.37917	0.54375	0.039583	114.312	307.703	321.836	193.242	255.094	170.818	37.205	72.313	314.358	248.188	258.536	272.988	262.718	294.798	124.209	298.852	9.4626e-05	0.00095993	9.5128e-05	785.21	5.8158e-06	5.7023e-06	573.78	183.25	4.7875e-06	5.6093e-06	150.99	51.57	61.833	26.17	5.2463e-06	23.882	0.0025197	0.004357	0.0012237	796.08	4.6791e-05	5.0537e-05	577.71	185.29	4.4226e-05	5.0514e-05	156.28	54.27	64.853	26.765	4.8475e-05	24.772	190.182	40.628	6.720	-21.747	70.428	85.993	-22.632	-15.780	95.800	121.759	-18.618	-13.982	-11.210	-5.989	121.094	-10.016	-8191	255	
1027.395	1	1	0	0	0.055556	0.32145	0.03009	0.19499	0.17768	0.20405	0.22098	0.25432	0.17586	0.29863	0.09121	0.068218	0.22955	0.35735	0.18958	0.17961	0.30833	0.87917	-0.10417	0.17708	0.44583	-0.075	0.26875	0.28958	-0.1125	0.60625	-0.13125	0.11458	0.45208	-0.2125	0.30625	0.19792	132.839	58.909	142.343	-21.785	5.225	176.071	224.546	262.935	116.095	237.816	-21.396	98.999	322.759	0.741	201.784	238.926	9.1534e-05	0.0010563	6.7792e-05	779.45	5.6418e-06	1.4286e-05	563.96	180.21	3.2043e-07	6.5413e-06	147.78	50.354	60.781	25.143	5.2271e-06	23.107	0.0027345	0.0047715	0.0013571	791.35	5.2086e-05	5.597e-05	568.29	182.79	4.9806e-05	5.7327e-05	154.75	53.721	64.108	25.987	5.4671e-05	24.369	135.314	20.512	301.093	-21.633	108.850	119.727	-23.239	-15.849	185.714	234.847	-19.320	-13.752	-10.656	-6.223	136.349	-9.859	-8191	255	
1027.467	1	1	0	0	0.21071	0.25559	0.027279	0.26832	0.037155	0.054261	0.10861	0.31508	0.096457	0.17324	0.17421	0.18495	0.092279	0.1238	0.24102	0.17785	0.39583	0.67917	-0.016667	0.10625	0.46458	-0.2125	0.34583	0.48333	-0.23125	0.73125	-0.014583	0.097917	0.51458	-0.045833	0.325	0.31458	15.471	19.185	132.651	243.035	132.395	104.234	93.136	193.648	220.896	262.851	282.527	298.218	-28.152	110.302	203.532	280.602	4.0503e-05	0.00088728	0.00017672	776.25	1.2402e-06	3.1926e-06	564.38	178.42	5.2655e-06	4.5815e-06	147.26	50.66	60.214	24.499	6.2787e-06	22.751	0.0029592	0.0051677	0.0014404	787.35	5.5066e-05	5.9787e-05	569.33	182.17	5.4021e-05	6.0991e-05	154.48	54.27	64.287	25.495	5.7891e-05	24.27	132.094	101.419	95.424	-21.678	265.120	49.694	-22.925	-15.935	221.988	-25.119	-18.658	-13.993	-10.919	-6.038	33.982	-10.005	-8191	255	
1027.563	1	1	0	0	0.26131	0.17955	0.0043317	0.18068	0.083229	0.12522	0.17646	0.21198	0.18209	0.24155	0.28206	0.14574	0.069617	0.067895	0.069061	0.049089	0.17917	0.7625	0.225	0.0083333	0.60625	-0.10833	0.020833	0.45208	-0.22917	0.39583	0.16875	-0.05	0.63333	-0.41042	0.20417	0.5625	281.029	303.244	97.438	267.893	135.130	132.666	1.341	281.317	149.833	-20.685	161.209	281.224	173.562	120.953	51.074	293.583	5.9745e-05	0.00082632	9.008e-05	771.79	7.5627e-06	8.7231e-06	560.59	176.8	2.3208e-06	1.522e-06	143.76	49.864	60.402	23.879	6.0116e-06	22.533	0.0031462	0.0054942	0.0015212	792.77	5.6927e-05	6.1322e-05	568.16	180.22	5.4721e-05	6.0644e-05	152.5	53.959	64.038	24.941	5.9387e-05	23.781	129.582	46.043	269.792	-21.707	-8.613	121.962	-23.269	-16.042	69.252	283.709	-18.458	-14.607	-11.387	-5.947	161.426	-9.807	-8191	255	
1027.683	1	1	0	0	0.40214	0.25623	0.35823	0.33031	0.15321	0.11804	0.11134	0.15162	0.15394	0.087416	0.2487	0.10548	0.20738	0.15587	0.12644	0.14438	0.30417	0.43542	0.29583	-0.25208	0.66875	-0.0041667	0.0875	0.49583	0.00625	0.425	0.28542	-0.11458	0.68125	-0.097917	0.19167	0.4875	314.010	232.289	315.870	303.810	-32.345	226.890	221.802	158.332	288.922	35.225	232.036	106.668	264.962	-18.806	177.019	287.372	4.8226e-05	0.00040907	0.00023016	767.37	4.6774e-06	2.6648e-06	547.56	172.96	5.8625e-06	6.2284e-06	139.66	49.749	59.52	23.325	5.4803e-06	21.685	0.0033109	0.0057587	0.0016032	785.14	6.0102e-05	6.5204e-05	559.67	177.05	5.7632e-05	6.4292e-05	149.09	53.515	63.579	24.244	6.1194e-05	23.099	165.722	183.715	290.479	-21.880	147.538	76.819	-22.389	-16.151	200.297	130.249	-19.195	-14.662	-11.590	-6.464	187.538	-10.224	-8191	255	
1027.780	1	1	0	0	0.13154	0.046207	0.15988	0.15989	0.22068	0.11587	0.15372	0.31584	0.074347	0.18473	0.40201	0.07122	0.24435	0.1158	0.16413	0.21625	0.30833	0.35	0.39792	-0.32083	0.59792	-0.0020833	0.020833	0.4875	-0.17917	0.35	0.34375	-0.38333	0.52083	0.18542	-0.18542	0.83125	249.379	104.996	-14.575	257.387	202.096	198.182	279.742	299.443	10.585	285.302	230.797	162.456	285.490	260.290	226.912	235.618	0.00011621	0.00030302	6.9384e-05	751.16	3.9881e-06	7.1971e-06	543.62	170.33	2.3501e-06	1.536e-06	136.64	48.969	58.675	22.83	4.5908e-06	21.288	0.0034032	0.0060096	0.0016887	777.73	6.4242e-05	6.8505e-05	553.97	174.21	6.163e-05	6.8028e-05	146.67	53.062	63.084	23.911	6.1369e-05	22.807	132.987	179.381	309.986	-21.412	159.339	117.367	-23.351	-16.308	28.649	13.071	-18.740	-14.351	-11.760	-6.379	31.103	-9.486	-8191	255	
1027.876	1	1	0	0	0.16001	0.22308	0.15151	0.25934	0.26765	0.046965	0.12328	0.15163	0.19578	0.10506	0.16759	0.19383	0.28077	0.33597	0.082676	0.23761	0.19375	0.25625	0.60417	-0.17708	0.5125	0.27708	-0.17708	0.59375	0.041667	0.1	0.4875	-0.1375	0.63333	0.3125	-0.025	0.69792	175.735	233.434	134.481	303.257	27.338	243.377	-11.703	196.194	148.546	177.644	323.747	263.027	135.792	242.781	206.002	285.297	4.942e-06	0.00044505	0.0001637	750.89	3.6024e-06	5.8661e-06	540.02	166.02	3.9503e-06	4.1077e-06	135.23	48.64	57.805	22.653	3.1762e-06	20.958	0.0032786	0.0055832	0.0015448	771.3	5.7663e-05	6.104e-05	548.14	169.37	5.4683e-05	6.069e-05	143.21	51.98	61.786	23.472	5.8969e-05	22.429	107.246	318.249	80.984	-21.601	211.816	215.656	-22.673	-15.915	151.356	56.776	-18.703	-14.430	-11.836	-6.382	61.981	-10.290	-8191	255	
1027.972	1	1	0	0	0.21255	0.3117	0.15645	0.056341	0.29511	0.089538	0.14348	0.19574	0.10251	0.23322	0.088157	0.3373	0.33231	0.15685	0.23625	0.15476	0.45833	0.022917	0.65	-0.275	0.32917	0.175	-0.39375	0.46458	-0.095833	0.016667	0.79792	-0.375	0.36875	0.55625	-0.083333	0.51042	298.043	304.545	247.062	324.251	230.471	313.821	300.978	281.009	78.424	21.412	122.689	-15.754	207.772	-3.491	292.492	221.094	0.00016562	6.3441e-05	6.9965e-05	748.16	8.6364e-06	5.5351e-06	537.87	160.17	1.4944e-06	1.4989e-06	131.52	47.703	56.116	21.875	6.6205e-06	20.49	0.0032675	0.0056767	0.0016105	769.54	6.0922e-05	6.4556e-05	546.38	164.24	5.4918e-05	5.8293e-05	138.47	50.627	59.278	22.66	4.7198e-05	21.559	155.515	70.340	117.693	-21.677	241.665	162.689	-22.654	-16.538	138.259	148.154	-18.859	-14.005	-11.947	-6.189	197.031	-10.306	-8191	255	
1028.091	1	1	0	0	0.22604	0.21297	0.11699	0.23468	0.20147	0.2076	0.3123	0.11727	0.079185	0.10225	0.032463	0.055268	0.17175	0.088321	0.10859	0.074317	0.28125	0.17708	0.60833	-0.35	0.35208	0.59792	-0.4375	0.48125	0.25208	-0.15	0.58333	-0.21458	0.11875	0.55417	-0.28958	0.39167	163.485	196.214	315.334	-23.097	-25.326	-32.706	-7.345	239.099	214.037	83.930	80.321	119.948	230.820	-26.883	290.362	99.642	5.8715e-05	8.642e-05	7.3584e-05	729.69	2.5774e-06	2.0027e-06	524.45	153.61	4.2096e-06	3.9107e-06	126.08	45.952	54.088	21.519	5.8024e-06	19.765	0.0025479	0.0043861	0.0012118	738.61	4.4983e-05	4.769e-05	523.48	155.04	4.1251e-05	4.5918e-05	131.05	48.239	56.979	21.996	4.4196e-05	20.736	146.141	-30.187	267.976	-21.379	114.913	18.577	-22.946	-16.427	169.563	90.391	-18.804	-14.342	-11.978	-6.923	79.579	-10.190	-8191	255	
1028.164	1	1	0	0	0.24974	0.31983	0.13876	0.23738	0.21033	0.04866	0.29711	0.40026	0.16562	0.13206	0.15113	0.1692	0.13742	0.070772	0.042223	0.10713	0.59583	-0.23333	0.64375	-0.016667	0.15	0.65833	-0.41042	0.38333	0.23125	-0.30625	0.56875	-0.14167	0.0875	0.42083	-0.17083	0.41042	43.056	74.612	122.297	297.636	260.746	279.672	-2.103	260.614	281.167	1.879	-20.950	-0.027	145.967	69.406	151.105	246.809	6.2675e-05	0.00042281	0.00014774	713.83	4.9664e-06	8.7615e-06	513.17	148.6	7.2615e-06	9.9868e-06	123.33	45.409	53.303	20.95	1.6844e-06	19.403	0.0024596	0.0043055	0.0012135	723.15	4.5689e-05	4.9384e-05	514.11	150.52	4.3454e-05	4.7553e-05	128.86	47.758	56.076	21.632	4.3824e-05	20.434	164.389	46.801	-28.096	-21.428	152.460	-17.633	-22.981	-16.338	320.667	157.734	-18.760	-14.323	-12.002	-6.603	127.996	-10.079	-8191	255	
1028.283	1	1	0	0	0.10402	0.13712	0.1914	0.19431	0.13819	0.18771	0.2828	0.26906	0.14498	0.052332	0.052554	0.07681	0.082132	0.41167	0.12598	0.25849	0.83333	-0.19375	0.65	0.04375	0.020833	0.5	-0.21042	0.21667	0.34583	-0.325	0.60208	0.27292	-0.14375	0.48333	-0.20625	0.2125	52.575	208.448	261.608	321.318	-11.728	6.081	294.927	240.910	51.257	197.573	100.097	290.900	134.385	-29.693	35.649	312.574	2.8303e-05	0.00043721	5.6581e-05	702.75	6.2561e-06	2.2258e-06	507.96	144.35	4.3948e-06	5.1163e-07	120.07	44.261	51.53	20.497	2.425e-06	19.321	0.0022009	0.0036937	0.0010249	707.57	3.4443e-05	3.4391e-05	504.39	144.28	2.6205e-05	2.7454e-05	122.05	45.435	52.801	20.731	2.6639e-05	19.751	23.466	67.628	237.892	-21.987	126.714	135.541	-23.224	-16.285	124.021	298.605	-18.510	-14.733	-11.794	-6.855	14.750	-9.771	-8191	255	
1028.379	1	1	0	0	0.20402	0.12914	0.075399	0.30957	0.22192	0.35137	0.10252	0.18867	0.14019	0.021732	0.21469	0.12941	0.01069	0.06272	0.076528	0.07572	0.84792	-0.3	0.525	0.20417	-0.22708	0.53958	-0.08125	0.010417	0.62708	-0.23958	0.35	0.37083	0.0083333	0.49792	-0.04375	0	109.959	132.038	320.619	-4.700	112.659	146.128	195.203	316.578	209.288	74.181	259.342	211.069	123.484	86.647	109.458	36.980	6.2535e-05	6.9045e-05	8.527e-05	690.62	1.7856e-06	5.4442e-06	507.12	139.73	2.0034e-06	3.1501e-06	116.48	42.776	49.48	19.914	4.2141e-06	18.877	0.0014079	0.0022403	0.00059005	686.39	2.1311e-05	2.399e-05	498.42	138.61	2.1672e-05	2.4504e-05	118.05	43.763	51.235	20.198	3.26e-05	19.5	149.278	119.152	84.594	-22.189	216.473	88.185	-23.286	-16.217	13.395	151.281	-19.319	-14.314	-12.041	-6.473	189.432	-10.568	-8191	255	
1028.475	1	1	0	0	0.12722	0.13884	0.15975	0.16268	0.16672	0.33098	0.2195	0.26514	0.38139	0.13165	0.22542	0.23243	0.063059	0.049881	0.17249	0.13615	0.82292	-0.089583	0.61875	0.44167	-0.23333	0.48125	0.21875	0.03125	0.57917	-0.35208	0.31875	0.31875	-0.27292	0.33542	-0.01875	-0.041667	291.969	106.345	111.752	172.528	231.412	-31.288	212.288	263.177	148.428	302.133	156.875	-18.954	-18.609	85.124	304.427	35.698	2.7476e-06	0.00033811	0.00012811	684.41	2.4992e-06	5.841e-06	498.2	136.45	4.0409e-06	6.3191e-06	116.15	42.001	49.047	19.714	2.6323e-06	18.762	0.0017889	0.0030459	0.00084529	684.69	3.1488e-05	3.3676e-05	494.86	137.41	2.9291e-05	3.2857e-05	118.39	43.511	50.652	20.037	2.8994e-05	19.204	300.169	113.095	257.721	-21.854	10.594	117.218	-23.286	-16.343	197.520	232.329	-19.041	-14.070	-11.696	-6.798	62.036	-10.116	-8191	255	
1028.572	1	1	0	0	0.10911	0.11486	0.14927	0.1031	0.13788	0.055331	0.1265	0.16463	0.06853	0.23541	0.20684	0.19424	0.028191	0.18902	0.21336	0.10331	1.0562	-0.23958	0.35625	0.50417	-0.21667	0.675	0.083333	-0.2375	0.70208	-0.12917	0.17083	0.475	-0.12292	0.52292	0.26042	0.025	244.867	93.843	310.849	264.707	198.499	245.652	298.114	226.435	-22.670	111.249	250.939	7.647	312.019	268.020	125.254	72.509	8.7861e-05	0.00033335	0.00025452	681.65	2.0566e-06	5.9593e-06	499.42	137.83	3.7585e-06	5.7188e-06	116.33	42.86	49.931	19.838	2.2542e-06	19.218	0.0015051	0.0025281	0.0007002	678.9	2.5657e-05	2.8017e-05	493.93	136.9	2.5283e-05	2.8323e-05	118.32	44.015	51.048	20.162	2.7963e-05	19.682	141.972	59.840	32.996	-22.024	161.691	144.597	-22.977	-16.553	121.798	155.234	-19.090	-13.967	-11.264	-6.526	132.529	-10.301	-8191	255	
1028.692	1	1	0	0	0.050989	0.22526	0.13728	0.32267	0.32406	0.048143	0.27958	0.34076	0.17082	0.19938	0.37187	0.064451	0.17845	0.02726	0.069599	0.10763	1.0167	-0.12917	0.37083	0.55625	-0.13333	0.51875	0.225	-0.21042	0.59583	-0.06875	-0.045833	0.6375	-0.079167	0.35833	0.35833	-0.33958	189.713	184.594	117.560	287.797	82.448	263.945	-27.617	185.922	22.592	-27.997	-4.945	186.121	-29.011	262.798	49.141	157.425	4.212e-05	0.00018818	4.4455e-05	690.73	3.4067e-06	3.9249e-06	516.88	141.74	4.3994e-06	6.5536e-06	121.41	43.71	50.145	20.509	2.7237e-06	20.067	0.0015251	0.0025938	0.00072164	690.88	2.6919e-05	2.9956e-05	512.39	141.67	2.6586e-05	2.9059e-05	122.8	44.887	51.731	20.849	2.765e-05	20.685	170.832	10.969	141.305	-21.520	153.492	163.827	-23.085	-16.021	36.659	144.088	-18.550	-14.080	-11.703	-6.161	-20.136	-9.980	-8191	255	
#DATA ENDS
