BOXY.EXE: ISS Imagent and Oximeter Data Acquisition Program Version 0.80
Ascii Record File

#ACQ INFORMATION
2  Detector Channels 
16  External MUX Channels 
1  Auxiliary Channels 
5000  Waveform (CCF) Frequency (Hz)
1  Waveforms Skipped 
30  Waveforms Averaged 
1  Cycles Averaged 
16  Acquisitions per Waveform 
10.0806  Updata Rate (Hz) 

#FILE INFORMATION
TRUE -- External MUX Channel results are PARSED.
FALSE -- AC DC and Phase are NOT grouped.
TRUE -- Companion Program Settings File CREATED.
FALSE -- AC data not excluded
FALSE -- DC data not excluded
FALSE -- Phase data not excluded
FALSE -- Auxillary Chn. data not excluded
Tab delimiters

#CALIBRATION STATE
TRUE -- Waveform Calibration Values APPLIED.


#AUX CALIBRATION VALUES
Val Type	aux-1	

Term	1.0000e+00	
Factor	0.0000e+00	


#WF CALIBRATION VALUES
A = Detector Channel
Val Type	A-AC1	A-AC2	A-AC3	A-AC4	A-AC5	A-AC6	A-AC7	A-AC8	A-AC9	A-AC10	A-AC11	A-AC12	A-AC13	A-AC14	A-AC15	A-AC16	A-DC1	A-DC2	A-DC3	A-DC4	A-DC5	A-DC6	A-DC7	A-DC8	A-DC9	A-DC10	A-DC11	A-DC12	A-DC13	A-DC14	A-DC15	A-DC16	A-Ph1	A-Ph2	A-Ph3	A-Ph4	A-Ph5	A-Ph6	A-Ph7	A-Ph8	A-Ph9	A-Ph10	A-Ph11	A-Ph12	A-Ph13	A-Ph14	A-Ph15	A-Ph16	

Term	0.00000e+00	0.00000e+00	0.00000e+00	0.00000e+00	0.00000e+00	0.00000e+00	0.00000e+00	0.00000e+00	0.00000e+00	0.00000e+00	0.00000e+00	0.00000e+00	0.00000e+00	0.00000e+00	0.00000e+00	0.00000e+00	0.00000e+00	0.00000e+00	0.00000e+00	0.00000e+00	0.00000e+00	0.00000e+00	0.00000e+00	0.00000e+00	0.00000e+00	0.00000e+00	0.00000e+00	0.00000e+00	0.00000e+00	0.00000e+00	0.00000e+00	0.00000e+00	0.00000e+00	0.00000e+00	0.00000e+00	0.00000e+00	0.00000e+00	0.00000e+00	0.00000e+00	0.00000e+00	0.00000e+00	0.00000e+00	0.00000e+00	0.00000e+00	0.00000e+00	0.00000e+00	0.00000e+00	0.00000e+00	
Factor	1.00000e+00	1.00000e+00	1.00000e+00	1.00000e+00	1.00000e+00	1.00000e+00	1.00000e+00	1.00000e+00	1.00000e+00	1.00000e+00	1.00000e+00	1.00000e+00	1.00000e+00	1.00000e+00	1.00000e+00	1.00000e+00	1.00000e+00	1.00000e+00	1.00000e+00	1.00000e+00	1.00000e+00	1.00000e+00	1.00000e+00	1.00000e+00	1.00000e+00	1.00000e+00	1.00000e+00	1.00000e+00	1.00000e+00	1.00000e+00	1.00000e+00	1.00000e+00	X	X	X	X	X	X	X	X	X	X	X	X	X	X	X	X	

B = Detector Channel
Val Type	B-AC1	B-AC2	B-AC3	B-AC4	B-AC5	B-AC6	B-AC7	B-AC8	B-AC9	B-AC10	B-AC11	B-AC12	B-AC13	B-AC14	B-AC15	B-AC16	B-DC1	B-DC2	B-DC3	B-DC4	B-DC5	B-DC6	B-DC7	B-DC8	B-DC9	B-DC10	B-DC11	B-DC12	B-DC13	B-DC14	B-DC15	B-DC16	B-Ph1	B-Ph2	B-Ph3	B-Ph4	B-Ph5	B-Ph6	B-Ph7	B-Ph8	B-Ph9	B-Ph10	B-Ph11	B-Ph12	B-Ph13	B-Ph14	B-Ph15	B-Ph16	

Term	0.00000e+00	0.00000e+00	0.00000e+00	0.00000e+00	0.00000e+00	0.00000e+00	0.00000e+00	0.00000e+00	0.00000e+00	0.00000e+00	0.00000e+00	0.00000e+00	0.00000e+00	0.00000e+00	0.00000e+00	0.00000e+00	0.00000e+00	0.00000e+00	0.00000e+00	0.00000e+00	0.00000e+00	0.00000e+00	0.00000e+00	0.00000e+00	0.00000e+00	0.00000e+00	0.00000e+00	0.00000e+00	0.00000e+00	0.00000e+00	0.00000e+00	0.00000e+00	-1.89397e+02	-1.65226e+02	-1.57126e+02	-1.83573e+02	-7.86518e+01	-6.98634e+01	-1.59024e+02	-1.62015e+02	-7.23741e+01	-8.28070e+01	-1.70632e+02	-1.70941e+02	-1.78840e+02	-1.76518e+02	-1.05877e+02	-1.49938e+02	
Factor	3.42563e-05	9.17672e-05	3.45975e-05	1.69658e-01	8.77912e-07	9.10906e-07	1.63438e-01	4.72968e-02	9.51688e-07	1.02407e-06	8.13686e-02	2.67452e-02	2.20867e-02	8.52368e-03	9.30633e-07	1.22118e-02	6.57652e-07	6.67795e-07	1.85925e-07	8.48753e-02	7.31233e-09	7.30656e-09	7.73714e-02	2.37719e-02	7.30843e-09	7.30628e-09	3.87263e-02	1.27484e-02	1.10087e-02	4.19686e-03	7.29356e-09	5.76721e-03	X	X	X	X	X	X	X	X	X	X	X	X	X	X	X	X	



#DISTANCE SETTINGS
A = Detector Channel
A-1	A-2	A-3	A-4	A-5	A-6	A-7	A-8	A-9	A-10	A-11	A-12	A-13	A-14	A-15	A-16	

2.5000e+00	3.0000e+00	2.5000e+00	3.0000e+00	2.0000e+00	3.0000e+00	1.5000e+00	3.0000e+00	3.0000e+00	3.0000e+00	3.0000e+00	3.0000e+00	3.0000e+00	3.0000e+00	1.5000e+00	3.0000e+00	

B = Detector Channel
B-1	B-2	B-3	B-4	B-5	B-6	B-7	B-8	B-9	B-10	B-11	B-12	B-13	B-14	B-15	B-16	

1.0000e+01	1.0000e+01	1.0000e+01	1.4400e+00	1.0000e+01	1.0000e+01	1.5100e+00	1.9400e+00	1.0000e+01	1.0000e+01	1.9900e+00	2.4900e+00	2.4100e+00	2.9000e+00	1.0000e+01	2.9800e+00	




#DATA BEGINS
time	group	step	mark	flag	A-AC1	A-AC2	A-AC3	A-AC4	A-AC5	A-AC6	A-AC7	A-AC8	A-AC9	A-AC10	A-AC11	A-AC12	A-AC13	A-AC14	A-AC15	A-AC16	A-DC1	A-DC2	A-DC3	A-DC4	A-DC5	A-DC6	A-DC7	A-DC8	A-DC9	A-DC10	A-DC11	A-DC12	A-DC13	A-DC14	A-DC15	A-DC16	A-Ph1	A-Ph2	A-Ph3	A-Ph4	A-Ph5	A-Ph6	A-Ph7	A-Ph8	A-Ph9	A-Ph10	A-Ph11	A-Ph12	A-Ph13	A-Ph14	A-Ph15	A-Ph16	B-AC1	B-AC2	B-AC3	B-AC4	B-AC5	B-AC6	B-AC7	B-AC8	B-AC9	B-AC10	B-AC11	B-AC12	B-AC13	B-AC14	B-AC15	B-AC16	B-DC1	B-DC2	B-DC3	B-DC4	B-DC5	B-DC6	B-DC7	B-DC8	B-DC9	B-DC10	B-DC11	B-DC12	B-DC13	B-DC14	B-DC15	B-DC16	B-Ph1	B-Ph2	B-Ph3	B-Ph4	B-Ph5	B-Ph6	B-Ph7	B-Ph8	B-Ph9	B-Ph10	B-Ph11	B-Ph12	B-Ph13	B-Ph14	B-Ph15	B-Ph16	aux-1	digaux	

2504.408	1	1	0	768	0.20208	0.20362	0.17198	0.24821	0.087485	0.05894	0.20684	0.15837	0.054811	0.22923	0.17644	0.20957	0.10215	0.42863	0.19558	0.21567	0.41042	0.43125	-0.6375	-0.13333	0.010417	-0.275	0.28333	-0.29792	-0.37708	0.26458	-0.58333	0.0125	-0.03125	-0.69375	0.33542	-0.38333	371.755	180.278	336.020	126.220	273.488	349.609	417.665	419.353	201.803	198.985	404.687	140.464	464.744	123.291	208.368	365.454	0.00095883	0.00047489	0.00014675	1350.3	9.4951e-06	2.6447e-06	1354.9	367.06	2.6994e-06	5.337e-06	417.46	140.67	122.28	41.658	2.8896e-06	51.354	0.00057131	0.00057244	0.00015759	1383.4	6.2351e-06	6.2683e-06	1384.1	375.92	6.247e-06	6.3039e-06	429.7	143.8	125.31	43.165	6.2362e-06	53.336	120.619	136.137	129.306	129.369	256.037	222.103	129.266	134.138	359.007	218.949	133.561	137.724	138.300	143.158	304.709	142.005	-8191	255	
2504.504	1	1	0	0	0.035726	0.314	0.079169	0.4201	0.049962	0.20023	0.20239	0.27196	0.1092	0.10883	0.16669	0.24503	0.25275	0.13269	0.17726	0.11899	0.058333	0.38125	-0.52292	-0.19167	0.31458	-0.58125	0.18125	-0.26458	-0.43333	0.41875	-0.50417	-0.20833	-0.029167	-0.75208	0.19792	-0.19375	394.558	463.502	363.343	142.434	158.982	463.712	416.631	166.270	317.973	264.874	419.752	399.623	155.798	400.013	193.193	133.537	0.0010498	0.0002048	6.0609e-05	1359.4	8.2044e-06	7.4027e-06	1354.9	367.01	1.9615e-06	4.8184e-06	417.28	140.57	122.64	41.752	3.5701e-06	51.766	0.00057979	0.00057376	0.00015911	1385.8	6.3212e-06	6.3283e-06	1383.8	376.34	6.3273e-06	6.3483e-06	428.99	144.05	125.63	43.248	6.2606e-06	53.58	121.031	131.793	434.765	129.769	239.454	217.655	129.542	134.180	259.988	365.242	133.740	137.816	138.272	143.099	333.840	142.047	-8191	255	
2504.600	1	1	0	0	0.15527	0.19218	0.17138	0.1844	0.25264	0.13453	0.29391	0.19703	0.12121	0.12629	0.074062	0.11777	0.24814	0.081675	0.43666	0.088966	-0.014583	0.45	-0.20417	-0.15417	0.42708	-0.44375	-0.097917	-0.15208	-0.31667	0.25625	-0.46667	-0.30625	0.15417	-0.68542	0.27292	-0.047917	345.834	356.258	339.759	431.186	149.436	119.528	439.394	400.856	465.771	401.821	465.374	454.461	441.865	437.076	258.832	427.840	0.0011852	0.0003654	0.000143	1360.8	5.09e-06	3.3206e-06	1360	367.66	9.2675e-06	3.6432e-06	418.14	140.54	122.4	41.636	2.3149e-06	51.785	0.00058471	0.00057722	0.00016055	1387.7	6.362e-06	6.2998e-06	1384.7	377.01	6.3351e-06	6.2948e-06	429.98	144.21	125.71	43.189	6.2468e-06	53.59	123.749	174.679	458.882	129.703	275.261	230.805	129.356	134.282	228.176	320.390	133.641	138.135	138.492	143.436	189.416	142.761	-8191	255	
2504.696	1	1	0	0	0.02371	0.21171	0.16059	0.16906	0.064229	0.12109	0.44224	0.08639	0.066268	0.15801	0.053964	0.086352	0.14909	0.32406	0.051656	0.17666	0	0.35208	-0.21042	-0.68958	0.33333	-0.50833	-0.37708	-0.14375	-0.73125	0.24375	-0.40208	-0.62292	0.30417	-0.49583	0.10417	0.2	177.347	338.407	123.608	428.893	431.829	146.914	373.218	177.583	257.076	240.521	214.564	430.349	305.599	450.891	256.392	402.327	0.00092434	0.00054813	9.4711e-05	1355.8	4.8281e-06	3.6103e-06	1351.7	366.73	1.1506e-05	7.6292e-06	418.85	140.56	122.29	41.742	3.4886e-06	51.688	0.00058589	0.0005775	0.00015997	1388.8	6.4056e-06	6.3277e-06	1385.2	376.54	6.3799e-06	6.3371e-06	431.25	144.36	125.75	43.289	6.3613e-06	53.648	476.061	243.973	133.186	129.636	136.190	472.562	129.324	134.407	252.738	244.873	133.767	137.692	138.553	143.368	212.617	142.363	-8191	255	
2504.792	1	1	0	0	0.18497	0.27566	0.19691	0.084692	0.24285	0.22383	0.22254	0.13403	0.18595	0.31987	0.14927	0.17175	0.34732	0.060146	0.13309	0.31917	-0.25833	0.26042	-0.058333	-0.55833	0.3125	-0.51458	-0.35208	0.054167	-0.53333	0.22917	-0.035417	-0.42708	0.1375	-0.52708	-0.12292	0.33125	371.006	469.075	265.655	475.440	399.786	243.750	120.817	145.372	434.305	228.317	140.752	457.010	131.567	274.062	259.580	462.346	0.0012042	5.652e-05	0.0003362	1356.1	2.681e-06	6.5354e-06	1358	367.75	4.154e-06	6.9904e-06	418.05	140.26	122.21	41.916	1.0451e-05	51.625	0.00059344	0.00057812	0.00016262	1387.6	6.4345e-06	6.3869e-06	1386.2	377.25	6.4213e-06	6.4002e-06	430.81	144.34	125.45	43.353	6.4001e-06	53.567	124.230	152.176	473.430	129.713	323.107	256.947	129.241	134.294	226.882	297.179	133.637	138.082	138.617	143.554	215.058	142.835	-8191	255	
2504.888	1	1	0	0	0.14388	0.18985	0.43642	0.17861	0.18829	0.24136	0.082834	0.048281	0.18198	0.19036	0.12411	0.36289	0.22632	0.11302	0.16867	0.1776	-0.12083	0.19375	-0.047917	-0.51042	0.27917	-0.24792	-0.35625	0.3375	-0.6	0.20417	-0.1	-0.49167	0.22292	-0.34792	-0.20833	0.3125	262.804	250.175	474.375	385.856	423.179	341.566	462.097	283.645	270.806	285.188	275.284	364.678	441.348	123.215	346.081	457.414	0.0011895	0.00044374	0.00019914	1358.8	4.6247e-06	1.5856e-06	1362.2	367.54	5.4434e-06	6.4455e-06	416.95	141.73	121.99	41.737	5.2361e-06	51.626	0.00059074	0.00058193	0.00016368	1388.4	6.4133e-06	6.3102e-06	1386.5	376.23	6.3349e-06	6.3193e-06	430.23	144.29	125.42	43.282	6.345e-06	53.531	119.444	472.860	138.401	130.006	318.799	439.746	129.441	134.489	268.118	184.918	133.855	137.886	138.575	143.418	282.087	142.727	-8191	255	
2505.009	1	1	0	0	0.2395	0.064793	0.22194	0.20397	0.17661	0.28024	0.34304	0.1392	0.081792	0.1313	0.12376	0.30101	0.20333	0.19967	0.27016	0.5414	-0.08125	0.089583	0.22917	-0.72083	0.28958	0.020833	-0.61458	0.125	-0.35833	-0.0875	0.29167	-0.53542	0.19583	-0.11458	-0.34583	0.23333	456.996	408.019	411.622	446.886	285.413	442.332	405.704	340.480	371.930	143.623	187.985	444.868	239.422	164.098	301.310	440.574	0.0011352	0.00046642	0.00029164	1355.5	7.2392e-06	1.3527e-06	1352.8	366.68	6.0222e-06	7.2221e-06	418.66	141.33	121.81	41.68	7.3874e-06	51.521	0.00058364	0.00058108	0.00016278	1388.1	6.2935e-06	6.3117e-06	1383.7	376.49	6.3067e-06	6.2894e-06	430.09	144.1	125.13	43.248	6.3315e-06	53.429	121.238	251.973	138.871	130.110	245.310	426.807	129.832	134.772	235.212	246.705	134.181	138.362	138.995	143.698	267.573	142.894	-8191	255	
2505.105	1	1	0	0	0.16651	0.015735	0.10574	0.15138	0.023594	0.12094	0.23017	0.13328	0.14645	0.11164	0.16851	0.48868	0.24236	0.12251	0.12198	0.22852	-0.097917	-0.15417	0.43333	-0.61667	0.31667	-0.17083	-0.5375	0.10417	-0.50208	-0.21458	0.22292	-0.74583	0.014583	0.039583	-0.45417	0.15625	329.037	278.947	202.429	452.225	307.056	288.934	374.543	452.244	440.737	425.060	471.071	442.779	475.251	161.954	444.355	437.505	0.0012226	0.00057418	0.00016802	1356.6	2.6297e-06	1.7134e-06	1357.7	367.14	7.7328e-06	1.0901e-05	416.62	141.38	122.17	41.735	5.3737e-06	51.351	0.00058389	0.00057596	0.00016308	1385.2	6.3087e-06	6.2892e-06	1383.7	375.95	6.2482e-06	6.3469e-06	429.21	144.3	125.23	43.243	6.3151e-06	53.326	125.281	212.402	448.952	129.576	277.936	418.899	129.340	134.085	273.771	205.656	133.589	137.807	138.377	143.046	267.909	142.465	-8191	255	
2505.201	1	1	0	0	0.16175	0.065015	0.20084	0.27459	0.2597	0.22262	0.13657	0.25686	0.29246	0.075183	0.12451	0.3672	0.089712	0.23464	0.36767	0.40501	0.19167	-0.325	0.36667	-0.61458	0.21875	0.05	-0.77917	0.20625	-0.23125	-0.35833	0.10208	-0.52083	-0.083333	0.22917	-0.53333	0.225	417.853	302.824	395.115	121.889	206.706	350.666	457.407	419.877	260.186	231.626	442.793	188.302	458.138	357.007	428.189	385.192	0.0008182	0.00047175	0.00017112	1360.9	7.7483e-06	4.8664e-06	1355.6	367.79	1.6549e-06	5.234e-06	417.39	140.72	122.07	41.952	2.0989e-06	51.625	0.0005808	0.00058166	0.00016296	1387	6.3065e-06	6.3876e-06	1385.1	376.26	6.3516e-06	6.4181e-06	430.62	144.16	125.48	43.324	6.3839e-06	53.58	127.020	197.454	172.756	129.938	219.087	346.523	129.518	134.344	270.624	338.204	133.441	138.072	138.341	143.217	265.269	141.959	-8191	255	
2505.298	1	1	0	0	0.20199	0.46029	0.16598	0.47011	0.38428	0.10425	0.12735	0.18895	0.19654	0.23784	0.19805	0.13316	0.30883	0.33355	0.18316	0.38365	0.41875	-0.33542	0.68333	-0.43125	0.075	0.50417	-0.81667	0.2125	-0.070833	-0.46667	0.14167	-0.29375	-0.22708	0.13125	-0.53333	0.10208	121.841	461.055	260.628	116.922	475.182	336.269	326.788	380.067	195.230	446.367	416.280	349.547	430.426	173.242	384.719	314.582	0.0013215	0.00038829	0.00014111	1358.2	5.5201e-06	8.9785e-06	1360.2	367.18	1.0404e-05	4.726e-06	417.56	140.91	122.75	41.668	2.4e-06	51.568	0.00058682	0.00058408	0.00016278	1387.4	6.3904e-06	6.4206e-06	1386.1	376.5	6.3622e-06	6.415e-06	431.04	144.4	125.91	43.43	6.3996e-06	53.624	123.326	472.159	117.597	129.847	236.171	175.507	129.478	134.139	217.829	194.824	133.452	138.193	138.455	143.564	324.111	142.238	-8191	255	
2505.392	1	1	0	0	0.27583	0.070273	0.18549	0.12266	0.070026	0.29926	0.44033	0.068698	0.25333	0.16178	0.20789	0.11915	0.23043	0.32083	0.11912	0.33283	0.38125	-0.33542	0.5625	-0.46667	-0.025	0.52292	-0.65208	-0.04375	0.079167	-0.45833	0.27708	-0.31458	-0.36042	0.11875	-0.49167	-0.079167	320.945	428.351	424.899	129.178	401.411	178.467	423.231	361.731	470.454	147.830	419.402	120.181	385.312	174.608	354.729	120.140	0.0010524	0.00028725	0.00010159	1358	2.1343e-06	3.6186e-06	1360.2	368.32	5.3054e-06	3.201e-06	418.67	140.39	122.14	41.795	5.9781e-06	51.784	0.00059589	0.00059334	0.00016496	1391.5	6.4489e-06	6.5201e-06	1389.3	376.96	6.4987e-06	6.5206e-06	430.98	144.62	125.97	43.474	6.4688e-06	53.744	129.922	148.832	132.642	129.886	255.679	149.266	129.505	134.302	218.479	190.655	133.682	138.077	138.606	143.481	204.148	142.406	-8191	255	
2505.488	1	1	0	0	0.15492	0.08662	0.15723	0.2819	0.11033	0.041152	0.20288	0.29351	0.057712	0.16826	0.28184	0.20396	0.16274	0.16522	0.18375	0.4175	0.58125	-0.51042	0.13542	-0.32708	-0.04375	0.3375	-0.63125	-0.09375	0.12708	-0.475	0.01875	-0.27292	-0.63958	0.089583	-0.45417	-0.29792	149.437	327.946	428.807	472.382	456.211	376.755	438.367	462.035	406.442	362.251	445.841	304.071	460.424	404.094	271.786	436.341	0.0011746	0.00050474	0.00012743	1360.1	1.3367e-06	1.3213e-05	1363.3	369.86	3.5119e-06	1.5672e-06	417.02	141.63	122.87	41.725	9.6644e-06	51.795	0.00059897	0.0005948	0.0001653	1391.8	6.5572e-06	6.5578e-06	1390.5	378.06	6.5433e-06	6.5343e-06	431.27	144.91	126.14	43.454	6.4242e-06	53.761	124.272	198.263	432.158	130.007	197.053	238.726	129.678	134.425	247.606	245.456	133.573	138.294	138.586	143.573	219.674	142.558	-8191	255	
2505.609	1	1	0	0	0.049438	0.043834	0.064334	0.27533	0.1793	0.21858	0.20681	0.10798	0.22043	0.37339	0.24009	0.32608	0.17106	0.33833	0.23389	0.12364	0.79792	-0.49167	0.35208	-0.19375	-0.39167	0.42292	-0.80208	-0.40417	0.3	-0.46458	-0.0625	-0.13125	-0.57292	0.15417	-0.34375	-0.40417	434.031	404.305	230.210	122.196	416.962	378.241	417.551	129.859	202.783	205.340	344.847	303.527	141.893	423.158	461.786	455.593	0.00117	0.00046326	0.00013999	1365.5	2.8452e-06	3.9662e-06	1361.7	369.9	7.4064e-06	4.3864e-06	419.21	141.46	122.61	41.875	1.112e-06	51.673	0.00060008	0.00058992	0.00016305	1393.2	6.5278e-06	6.4753e-06	1389.5	377.98	6.5092e-06	6.4084e-06	430.89	145.2	126.06	43.418	6.3786e-06	53.668	121.366	261.116	350.862	130.177	178.072	220.733	129.679	134.319	298.736	195.729	134.079	138.296	138.843	143.764	257.106	142.629	-8191	255	
2505.705	1	1	0	0	0.062003	0.22689	0.12507	0.3391	0.076981	0.23943	0.37999	0.12829	0.3637	0.071699	0.091842	0.20837	0.32035	0.17929	0.1857	0.39308	0.71875	-0.52292	0.16667	-0.275	-0.5375	0.18958	-0.57292	-0.425	0.35208	-0.61667	-0.2625	-0.041667	-0.85208	0.27708	-0.16042	-0.7125	193.943	354.663	219.257	118.943	435.070	238.385	439.937	124.941	437.415	159.068	228.827	164.566	137.006	196.956	374.444	465.103	0.0011181	0.00030599	9.2475e-05	1359.3	7.3508e-06	6.9239e-07	1366.7	368.18	6.0911e-06	2.0625e-06	418.56	140.53	122.94	41.684	3.5261e-06	51.613	0.0005981	0.0005892	0.00016298	1392.2	6.4285e-06	6.3797e-06	1389	377.51	6.4048e-06	6.3395e-06	430.24	144.45	126.01	43.281	6.3283e-06	53.635	121.817	151.362	213.478	130.219	281.985	268.277	130.004	134.618	344.815	258.696	133.928	138.517	138.751	143.551	467.697	142.732	-8191	255	
2505.801	1	1	0	0	0.076383	0.027027	0.26856	0.49786	0.1962	0.060119	0.25439	0.16659	0.45499	0.22836	0.15639	0.15454	0.1329	0.15595	0.30908	0.43591	0.71042	-0.61042	0.18333	-0.010417	-0.52292	0.14375	-0.24792	-0.55	0.22292	-0.50417	-0.15625	0.08125	-0.75208	0.085417	-0.025	-0.67917	310.581	314.006	337.154	428.755	431.871	225.194	447.361	465.257	145.068	397.634	395.379	415.896	318.355	397.834	387.605	393.040	0.0011137	0.00068119	0.00022145	1356.4	3.746e-06	3.6618e-06	1357.9	368.05	4.6094e-06	1.4992e-06	418.31	140.27	122.43	41.548	4.5415e-06	51.488	0.00059139	0.00058019	0.00016187	1388.9	6.4121e-06	6.3257e-06	1387.1	376.9	6.3942e-06	6.3372e-06	430.4	144.32	125.67	43.31	6.4009e-06	53.652	465.605	200.915	179.849	130.384	247.733	266.633	130.178	134.850	240.809	220.394	134.131	138.451	138.942	143.766	236.978	142.623	-8191	255	
2505.897	1	1	0	0	0.067838	0.31686	0.16049	0.29912	0.11422	0.079521	0.25588	0.32574	0.20906	0.20227	0.19923	0.24296	0.25558	0.20578	0.31284	0.067435	0.69583	-0.21875	-0.18333	-0.06875	-0.58333	-0.072917	-0.054167	-0.56042	0.34583	-0.40625	-0.31458	0.225	-0.82708	-0.041667	0.26458	-0.94167	370.394	461.643	205.299	423.326	124.248	206.274	436.230	417.870	286.167	195.599	376.544	451.164	136.411	416.237	132.487	137.236	0.0010032	0.00018087	0.00023642	1364.6	8.4771e-06	6.5821e-06	1361.3	368.2	5.3146e-06	9.4622e-06	417.32	141.04	122.15	41.71	2.7072e-06	51.57	0.00059064	0.00057799	0.0001621	1390.5	6.3427e-06	6.3112e-06	1388.3	377.08	6.3e-06	6.3077e-06	429.86	144.53	125.47	43.282	6.3524e-06	53.527	119.731	199.445	146.561	130.207	220.113	311.326	129.837	134.743	209.848	305.831	134.090	138.169	139.203	143.823	233.773	142.685	-8191	255	
2505.969	1	1	0	0	0.33486	0.15845	0.19668	0.18687	0.12976	0.36626	0.35063	0.12527	0.18152	0.11497	0.33053	0.041508	0.25229	0.15551	0.20585	0.35082	0.63958	-0.23542	-0.37083	0.21667	-0.625	-0.060417	-0.125	-0.74167	0.029167	-0.12917	-0.49583	0.13125	-0.48542	-0.25833	0.32292	-0.77083	435.707	248.029	259.465	401.874	443.691	129.787	386.104	433.747	164.951	298.868	410.875	425.081	351.148	439.354	295.871	446.254	0.0012189	0.00049089	0.00028805	1359.3	8.7992e-06	7.2528e-06	1354.7	367.69	4.0625e-06	1.8357e-06	417.46	141.61	122.61	41.674	1.0081e-05	51.481	0.00057956	0.00057976	0.0001608	1388.1	6.3379e-06	6.328e-06	1384.2	376.48	6.2794e-06	6.3148e-06	429.9	144.29	125.35	43.206	6.3331e-06	53.512	130.094	139.922	461.743	130.145	229.255	260.452	129.724	134.787	275.419	365.051	133.942	138.333	138.989	144.093	216.963	142.720	-8191	255	
2506.089	1	1	0	0	0.17169	0.11706	0.22938	0.10256	0.090435	0.074293	0.22801	0.27039	0.2697	0.31939	0.11593	0.18576	0.14679	0.11577	0.10124	0.39511	0.56458	-0.18542	-0.43542	0.2125	-0.57292	-0.4125	0.14167	-0.65833	0.20625	0.039583	-0.65208	0.19792	-0.475	-0.35	0.08125	-0.65625	384.669	172.771	156.129	424.679	158.915	335.597	379.661	409.592	315.733	272.210	372.806	454.238	474.724	477.057	442.828	443.961	0.001228	0.00071027	3.1235e-05	1362.4	2.6166e-06	3.6891e-06	1354.8	367.81	1.0499e-05	3.1407e-06	416.43	140.55	122.36	41.767	4.4171e-06	51.727	0.00057836	0.00057313	0.0001605	1387.7	6.2777e-06	6.2868e-06	1385.2	376.59	6.2448e-06	6.2828e-06	429.09	144.02	125.38	43.178	6.3358e-06	53.536	118.387	154.802	369.540	130.504	352.970	296.869	130.240	135.070	334.315	296.468	134.265	138.470	139.139	144.144	202.343	143.430	-8191	255	
2506.186	1	1	0	0	0.16713	0.18505	0.090002	0.091163	0.04703	0.21632	0.17861	0.047078	0.014269	0.18438	0.15218	0.29379	0.14312	0.35758	0.068734	0.32302	0.5625	0.029167	-0.41458	-0.047917	-0.31667	-0.31042	0.14583	-0.72083	-0.18542	0.11458	-0.75833	0.083333	-0.33958	-0.47292	0.29792	-0.675	359.224	236.980	419.509	378.488	121.948	200.266	415.873	406.581	396.799	189.738	364.447	116.707	464.243	439.828	361.960	289.165	0.0012013	0.0011066	0.00016765	1353.6	3.6478e-06	4.7784e-06	1356.5	366.73	3.828e-06	5.6732e-06	417.87	140.22	122.49	41.875	9.9848e-06	51.498	0.00058273	0.00057874	0.00016086	1386.7	6.2911e-06	6.3145e-06	1383.6	375.91	6.2841e-06	6.3455e-06	429.97	143.97	125.25	43.247	6.3442e-06	53.407	116.933	200.824	447.687	130.202	325.067	290.023	129.897	134.677	238.704	279.774	134.266	138.012	139.214	143.956	150.371	143.032	-8191	255	
2506.282	1	1	0	0	0.18597	0.24378	0.0289	0.17412	0.028221	0.084933	0.13554	0.23198	0.29519	0.20867	0.091829	0.073323	0.17105	0.21457	0.20077	0.25546	0.20833	0.35	-0.39583	-0.03125	0.060417	-0.58542	0.0875	-0.6	-0.17292	0.30417	-0.67083	0.03125	-0.16875	-0.69375	0.30833	-0.47917	328.268	363.485	457.971	152.746	241.569	438.637	366.614	369.282	276.538	476.048	442.061	397.412	130.885	427.908	301.270	342.864	0.0011689	0.00026825	0.00010841	1357.2	6.5154e-06	1.2818e-06	1354.7	368.11	5.1246e-06	8.5076e-06	419.22	140.09	122.57	41.771	8.3274e-07	51.622	0.00058176	0.00057827	0.00016176	1384	6.3359e-06	6.3111e-06	1381.7	376.51	6.2736e-06	6.3374e-06	429.59	143.98	125.34	43.177	6.3129e-06	53.493	127.630	310.620	183.993	130.471	260.711	232.457	130.181	134.764	243.346	129.029	134.389	138.628	139.484	143.625	247.405	142.977	-8191	255	
2506.378	1	1	0	0	0.21141	0.16666	0.17645	0.098389	0.068621	0.23991	0.16854	0.2365	0.169	0.1517	0.19863	0.16384	0.35647	0.25027	0.16757	0.15403	0.014583	0.44375	-0.46042	-0.375	0	-0.6875	0.12708	-0.30625	-0.079167	0.40208	-0.63542	0.054167	0.12083	-0.43333	0.32917	-0.36458	468.506	319.605	132.665	370.567	378.400	296.995	368.455	437.144	401.053	377.426	398.858	259.443	414.335	429.888	406.480	429.832	0.0010013	0.00049594	0.00019196	1355.4	3.7846e-06	7.6503e-06	1356.1	367.29	1.2363e-05	6.2689e-06	418.26	140.72	121.81	41.56	7.5388e-06	51.658	0.0005789	0.00058027	0.00015992	1385.1	6.3376e-06	6.3292e-06	1384.4	376.31	6.3525e-06	6.3154e-06	429.06	144	125.54	43.156	6.2409e-06	53.444	116.240	184.544	163.518	129.800	224.643	278.389	129.341	134.037	214.940	303.602	133.642	137.784	138.383	143.154	205.915	142.514	-8191	255	
2506.497	1	1	0	0	0.078457	0.3604	0.11725	0.079218	0.10898	0.1579	0.088267	0.36415	0.21699	0.24095	0.2363	0.28286	0.11445	0.40973	0.1467	0.2347	0.14792	0.275	-0.44167	-0.22917	0.3875	-0.48958	-0.0020833	-0.11667	-0.22917	0.31667	-0.55833	-0.0020833	0.027083	-0.7125	0.022917	-0.16667	128.529	295.572	363.801	124.580	299.042	158.409	456.188	438.632	208.179	342.188	192.166	447.776	345.153	455.086	305.488	466.014	0.0012573	0.0011188	0.00026621	1359.8	6.6589e-06	5.8716e-06	1353.8	367.8	6.3307e-06	2.3461e-06	417.9	140.86	122.66	41.702	3.2163e-06	51.584	0.00058693	0.00057946	0.0001607	1386.7	6.405e-06	6.3899e-06	1384.1	376.5	6.3837e-06	6.4253e-06	429.95	144.15	125.63	43.282	6.3464e-06	53.567	117.759	166.521	181.041	129.724	255.489	248.845	129.550	134.475	208.880	278.355	133.807	138.038	138.613	143.299	185.273	142.708	-8191	255	
2506.570	1	1	0	0	0.19232	0.08003	0.36675	0.11865	0.13306	0.038663	0.3233	0.26028	0.28047	0.28007	0.3231	0.14183	0.42142	0.35922	0.12614	0.17543	-0.0020833	0.225	-0.24792	-0.28542	0.34167	-0.375	0.16042	-0.275	-0.14167	0.30208	-0.2875	-0.22708	0.091667	-0.63958	0.12292	-0.095833	220.723	474.103	364.490	345.050	148.785	271.887	383.957	454.313	441.877	168.057	402.725	164.263	391.352	177.489	333.722	388.800	0.0011657	0.0010276	0.00017909	1350.8	3.183e-06	2.0892e-06	1357.5	369.63	6.6537e-06	2.8326e-06	417.68	140.65	122.67	41.558	3.0545e-06	51.481	0.0005933	0.00058486	0.00016183	1384.8	6.4271e-06	6.3666e-06	1384.6	377.14	6.3819e-06	6.3691e-06	429.33	144.16	125.63	43.174	6.239e-06	53.513	132.161	187.832	457.254	129.774	300.402	402.829	129.411	134.590	312.271	152.556	134.087	138.374	138.729	143.687	246.164	143.122	-8191	255	
2506.689	1	1	0	0	0.32301	0.26315	0.038091	0.48477	0.22529	0.052139	0.10923	0.30863	0.14824	0.22065	0.10464	0.058371	0.23769	0.24666	0.31424	0.15911	-0.20208	0.27083	-0.19375	-0.40833	0.24792	-0.44583	-0.19167	-0.070833	-0.7375	0.25208	-0.3125	-0.525	0.31667	-0.64375	-0.05	0.039583	319.410	130.466	176.127	462.319	147.432	469.504	474.125	432.982	401.695	366.133	374.529	456.082	416.874	459.998	246.069	442.337	0.0012703	0.00030511	0.00016657	1358.8	4.031e-06	2.9916e-06	1355.8	367.37	7.6565e-06	4.0243e-06	417.75	141.35	121.7	41.515	4.6255e-06	51.62	0.00058755	0.00057741	0.00016025	1388.1	6.3976e-06	6.2767e-06	1383.3	376.14	6.3609e-06	6.2716e-06	429.61	144.39	125.39	43.219	6.2522e-06	53.464	117.246	157.845	216.911	129.967	132.835	334.782	129.698	134.711	310.931	347.004	133.875	138.309	139.109	143.890	265.150	142.741	-8191	255	
2506.785	1	1	0	0	0.083674	0.27228	0.11704	0.173	0.044696	0.14915	0.1693	0.15829	0.24377	0.077143	0.12895	0.33778	0.077956	0.31058	0.27649	0.10181	-0.0625	0.19583	0.060417	-0.4	0.275	-0.43958	-0.23958	0.14167	-0.56042	0.027083	-0.27292	-0.66042	0.24792	-0.56042	-0.22292	0.04375	438.609	166.815	393.214	416.879	445.620	277.702	457.164	336.118	136.790	188.548	436.664	386.335	469.002	134.875	337.395	178.864	0.0011562	0.00043358	0.00010713	1359.8	6.7077e-06	8.6953e-07	1357.5	367.18	3.6901e-06	5.9698e-06	416.54	140.73	122.17	41.711	4.466e-06	51.476	0.00058391	0.00057642	0.00015964	1389.2	6.3408e-06	6.2963e-06	1383.4	376.44	6.3021e-06	6.2762e-06	429.06	144.3	125.33	43.108	6.2951e-06	53.442	119.061	135.305	472.097	130.063	292.863	247.233	129.842	134.647	270.812	311.454	134.184	138.297	138.784	143.338	253.667	142.573	-8191	255	
2506.881	1	1	0	0	0.27895	0.26962	0.069242	0.22039	0.12087	0.13613	0.26136	0.071164	0.23794	0.060473	0.052879	0.10415	0.3541	0.11578	0.070453	0.2049	-0.11042	0.089583	0.15833	-0.84792	0.19167	-0.33542	-0.51875	0.11667	-0.49167	0.15417	-0.083333	-0.63125	0.21667	-0.42917	-0.17917	0.1875	422.288	437.577	400.270	409.015	323.812	395.778	421.704	405.951	278.713	248.348	175.491	382.447	474.720	120.631	255.844	407.391	0.0011199	0.00073037	0.00040306	1353.5	4.8357e-06	1.6517e-06	1355.9	367.23	3.1857e-06	3.0324e-06	418.81	140.06	122.07	41.72	2.2651e-06	51.576	0.00058349	0.00057187	0.00016011	1384.3	6.3155e-06	6.2571e-06	1382.7	375.51	6.2316e-06	6.2296e-06	429.16	144.17	125.05	43.131	6.2643e-06	53.366	120.171	247.458	222.408	130.137	239.707	288.691	129.877	134.532	309.298	384.798	134.308	138.338	139.162	143.939	304.150	142.873	-8191	255	
2506.978	1	1	0	0	0.032559	0.14552	0.15804	0.37368	0.13298	0.22888	0.19627	0.20184	0.15104	0.21384	0.14383	0.12761	0.25033	0.17608	0.36921	0.25784	-0.20625	0.010417	0.16875	-0.82083	0.27708	-0.25625	-0.61667	0.089583	-0.31875	-0.20625	0.0375	-0.81458	0.0083333	-0.2125	-0.45417	0.025	436.838	385.705	356.927	443.122	468.737	374.115	367.103	404.500	252.321	337.910	461.320	359.742	400.574	392.570	187.450	201.139	0.00098357	0.00079533	0.00028692	1351.9	6.0368e-06	4.3195e-06	1354.6	367.83	4.7566e-06	6.2147e-06	418.3	140.22	122.43	41.709	1.0339e-05	51.362	0.00057738	0.0005707	0.00016108	1383.9	6.2611e-06	6.2516e-06	1382.3	375.86	6.2467e-06	6.2486e-06	429.39	144.02	125.09	43.211	6.3233e-06	53.336	474.737	132.813	191.695	130.368	192.758	299.853	130.030	134.978	251.503	241.469	134.322	138.653	138.951	143.777	211.904	143.191	-8191	255	
2507.098	1	1	0	0	0.32315	0.32496	0.15019	0.32299	0.14035	0.16905	0.31285	0.13903	0.14373	0.3777	0.1472	0.23922	0.38376	0.20993	0.10939	0.15651	-0.097917	-0.083333	0.3375	-0.57917	0.039583	-0.16875	-0.70417	0.045833	-0.30417	-0.0041667	0.039583	-0.54792	0.035417	0.066667	-0.49792	0.29167	406.324	381.860	228.297	411.292	332.411	316.556	411.228	390.199	378.792	159.945	415.406	467.083	152.120	172.929	336.829	289.169	0.0011434	0.00036526	0.00020896	1361.3	6.4398e-06	1.0311e-05	1346.4	367.81	8.7396e-06	5.0063e-06	416.54	140.87	121.71	41.51	1.5442e-06	51.631	0.00057991	0.00057517	0.00016079	1387.8	6.2654e-06	6.2761e-06	1380.3	375.56	6.2444e-06	6.2657e-06	429.04	143.85	124.9	43.113	6.2754e-06	53.42	122.852	260.106	152.532	129.896	207.500	189.897	129.658	134.851	298.021	163.963	134.630	138.664	139.124	143.992	408.839	143.164	-8191	255	
2507.194	1	1	0	0	0.050893	0.28622	0.082157	0.38529	0.22164	0.083367	0.25086	0.22741	0.16368	0.15608	0.12216	0.16584	0.3076	0.14092	0.22724	0.14041	0.16458	-0.49375	0.35208	-0.80208	0.079167	0.17292	-0.62083	0.09375	-0.125	-0.225	0.2375	-0.52917	-0.15208	0.01875	-0.4875	0.097917	294.296	198.821	410.694	125.104	154.857	399.831	395.262	467.327	122.027	378.263	172.808	462.226	474.567	440.791	447.574	440.956	0.001021	0.00070623	0.00037699	1357.6	6.4841e-06	6.3831e-06	1351.4	366.56	7.3362e-06	6.4158e-06	417.07	140.46	122.17	41.656	3.4008e-06	51.544	0.00057608	0.00057551	0.00016099	1384.8	6.2766e-06	6.2862e-06	1381.9	375.02	6.2745e-06	6.359e-06	428.78	143.89	125.01	43.243	6.3236e-06	53.308	470.967	239.701	171.847	129.902	454.017	199.886	129.506	134.431	193.863	194.642	133.918	137.847	138.526	143.720	316.968	142.233	-8191	255	
2507.266	1	1	0	0	0.21296	0.24883	0.10313	0.17412	0.19584	0.20603	0.38635	0.3693	0.070899	0.093341	0.32704	0.23938	0.11464	0.39377	0.24844	0.052943	0.55833	-0.35	0.46458	-0.67292	-0.11667	0.19792	-0.69792	0.014583	-0.075	-0.44583	0.29167	-0.65625	-0.24792	0.12083	-0.5125	0.28333	306.584	362.084	259.261	370.669	356.928	446.804	411.127	390.752	237.030	284.729	379.630	154.424	418.278	182.258	405.800	413.582	0.0010119	0.00033015	9.1539e-05	1354.1	7.4348e-06	9.8184e-06	1353.2	366.61	8.7628e-06	7.2047e-06	416.9	140.57	121.89	41.561	1.2107e-06	51.521	0.00058159	0.00057689	0.00016135	1384.1	6.3143e-06	6.3873e-06	1381.3	375.21	6.3384e-06	6.379e-06	429.79	143.91	125.09	43.1	6.373e-06	53.356	474.867	202.543	358.137	129.873	224.462	265.198	129.590	134.175	284.316	247.190	134.075	137.946	138.616	143.398	215.604	142.424	-8191	255	
2507.385	1	1	0	0	0.10851	0.088557	0.10434	0.36221	0.20324	0.09978	0.39966	0.519	0.072149	0.10416	0.30033	0.17223	0.13803	0.30297	0.21728	0.099515	0.23125	-0.44167	0.24375	-0.48125	-0.22083	0.18542	-0.81667	0.085417	0.04375	-0.54167	0.22083	-0.28333	-0.43542	0.21042	-0.44167	-0.26667	413.298	374.665	400.720	378.885	385.820	361.948	407.635	457.952	447.273	117.616	458.414	359.087	433.024	443.294	318.155	183.145	0.0011015	0.00079515	0.00018498	1362	3.1194e-06	4.9759e-06	1353.6	366.2	7.3384e-06	6.5587e-07	416.68	139.77	122.11	41.582	3.1773e-06	51.17	0.0005853	0.00058147	0.00016182	1386.5	6.3265e-06	6.3276e-06	1382.8	375.22	6.3212e-06	6.3418e-06	428.54	143.49	125.31	43.114	6.2531e-06	53.306	119.059	240.286	273.974	129.990	238.891	282.411	129.603	134.355	290.495	351.420	133.880	138.081	138.706	143.809	263.748	142.527	-8191	255	
2507.481	1	1	0	0	0.26469	0.12963	0.085129	0.32491	0.223	0.15232	0.19635	0.33289	0.167	0.3477	0.12188	0.23535	0.30992	0.011599	0.028945	0.3094	0.55208	-0.53958	0.17708	-0.325	-0.33125	0.26667	-0.69792	-0.13542	0.12292	-0.53542	0.022917	-0.23125	-0.5625	0.16042	-0.32083	-0.30833	312.277	397.884	458.202	433.123	190.151	206.539	389.413	378.417	379.636	451.244	350.502	170.654	437.166	367.189	394.342	448.939	0.00089411	0.00060949	4.8078e-05	1358.1	9.3283e-06	1.6299e-06	1354.4	366.03	5.8274e-06	4.466e-06	414.2	140.35	122.26	41.763	8.8419e-06	51.257	0.00058292	0.00057794	0.00015926	1384.2	6.3657e-06	6.3623e-06	1383.9	375.34	6.319e-06	6.3419e-06	427.6	143.89	125.42	43.204	6.2819e-06	53.366	124.953	171.206	428.551	130.065	255.903	401.555	129.500	134.396	293.869	366.354	133.992	138.001	138.630	143.404	217.318	142.451	-8191	255	
2507.577	1	1	0	0	0.064854	0.048614	0.11517	0.26613	0.0554	0.14798	0.45499	0.05611	0.158	0.23999	0.27184	0.086964	0.29909	0.19361	0.28387	0.23062	0.625	-0.31458	0.064583	-0.25417	-0.36042	0.25625	-0.6125	-0.34583	0.27083	-0.66667	-0.13958	-0.10417	-0.74792	0.097917	-0.0625	-0.33542	454.638	232.417	255.125	438.899	274.449	376.178	413.665	446.442	287.186	431.249	182.485	224.489	438.137	451.192	438.246	439.876	0.0011156	0.00025631	0.00025928	1350.2	7.0307e-06	1.6639e-06	1354.8	367.32	6.9663e-06	5.1386e-06	415.09	140.61	123.06	41.784	6.2715e-06	51.354	0.00058936	0.00058054	0.00016055	1384.9	6.4364e-06	6.3497e-06	1382.9	376.31	6.4336e-06	6.3681e-06	428.84	144.26	125.69	43.251	6.3578e-06	53.404	117.788	256.826	239.950	130.143	192.225	258.846	129.929	134.527	275.707	340.266	134.152	138.446	139.091	143.728	245.311	142.648	-8191	255	
2507.673	1	1	0	0	0.073609	0.15166	0.044731	0.2358	0.14175	0.22708	0.23874	0.36393	0.18188	0.14942	0.45975	0.15236	0.3467	0.18602	0.16112	0.28158	0.475	-0.38333	0.23542	0.025	-0.62083	0.14583	-0.44375	-0.62708	0.38958	-0.6625	-0.13125	0.05	-0.71042	0.01875	-0.43333	-0.57292	434.742	219.728	313.381	422.423	268.863	364.960	399.900	387.805	220.341	142.386	415.672	318.894	424.767	178.778	444.973	432.253	0.00097393	0.00027875	0.0001406	1361.3	3.2954e-06	4.9764e-06	1357.8	367.52	4.6311e-06	5.955e-06	421.02	140.61	121.99	41.767	5.5762e-06	51.579	0.0005957	0.00058336	0.00016245	1389.5	6.4402e-06	6.4233e-06	1384.1	376.2	6.482e-06	6.3727e-06	430.2	144.34	125.53	43.215	6.3562e-06	53.518	128.203	131.566	161.997	130.120	297.374	242.785	129.866	134.582	300.623	426.623	133.791	138.098	138.654	143.626	247.287	142.687	-8191	255	
2507.794	1	1	0	0	0.11524	0.25237	0.12164	0.23605	0.12606	0.19541	0.088732	0.045421	0.11516	0.32768	0.15745	0.082389	0.14352	0.13296	0.15791	0.11856	0.72917	-0.50417	-0.15625	0.22917	-0.6375	0.25	-0.40833	-0.7625	0.40417	-0.61875	-0.34167	0.20417	-0.79583	0.125	-0.13958	-0.6375	146.087	382.402	415.401	130.438	227.070	367.124	446.491	305.860	141.954	130.121	452.121	388.403	476.268	191.324	143.760	409.265	0.0011728	0.00079965	0.00012037	1362.9	5.1927e-06	3.0707e-06	1359.2	367.71	8.5261e-06	4.4262e-06	416.21	140.61	122.24	41.616	1.1223e-05	51.323	0.0005921	0.00058486	0.00016271	1389	6.4461e-06	6.3814e-06	1385.8	376.76	6.4511e-06	6.3701e-06	429.41	144.34	125.34	43.179	6.3712e-06	53.532	473.610	142.980	122.567	130.150	273.034	261.436	129.779	134.353	287.531	265.409	133.874	137.946	138.280	143.188	264.010	142.382	-8191	255	
2507.866	1	1	0	0	0.11625	0.17407	0.21681	0.29461	0.096919	0.31379	0.18131	0.38601	0.1764	0.23211	0.24006	0.20617	0.31145	0.17864	0.12472	0.25832	0.57292	-0.29583	-0.34167	-0.11667	-0.475	0.097917	-0.0625	-0.51875	0.40625	-0.20625	-0.38333	0.18125	-0.61875	-0.13958	0.28542	-0.67708	342.651	201.744	272.346	125.766	165.765	424.794	402.760	451.719	404.857	309.177	469.206	127.252	418.379	412.178	336.599	409.263	0.0011455	0.00028518	0.00015328	1356.7	4.8765e-06	3.5775e-06	1357.5	366.91	8.4287e-06	2.0816e-06	418.02	140.91	122.52	41.772	2.4646e-06	51.496	0.00059215	0.00058585	0.00016287	1388.4	6.4009e-06	6.378e-06	1385.4	376.42	6.443e-06	6.3848e-06	430.04	144.31	125.58	43.269	6.4062e-06	53.573	117.428	241.859	172.717	129.826	259.168	219.315	129.659	134.393	210.149	355.569	133.622	138.108	138.691	143.329	221.023	142.472	-8191	255	
2507.962	1	1	0	0	0.28855	0.16858	0.25125	0.27691	0.39595	0.19378	0.27976	0.16194	0.018339	0.19385	0.28438	0.20991	0.38647	0.31228	0.22721	0.13666	0.65625	-0.079167	-0.39167	0.35	-0.3375	0.097917	-0.047917	-0.62917	0.25833	-0.2	-0.55	0.37917	-0.55833	0.072917	0.19792	-0.65	263.126	207.368	303.916	132.609	206.412	459.388	383.310	152.569	122.025	466.436	392.856	174.424	449.663	170.550	322.485	428.152	0.0011991	0.00081618	0.00027762	1356.4	6.5723e-06	4.5742e-06	1352.7	368.04	1.0197e-05	6.0063e-06	418.75	140.25	122.56	41.592	2.3475e-06	51.552	0.00058886	0.00058414	0.00016369	1388	6.3693e-06	6.3558e-06	1382.9	376.78	6.382e-06	6.3622e-06	430.02	144.11	125.4	43.182	6.3824e-06	53.481	472.767	138.246	193.328	130.063	198.507	179.998	129.739	134.348	267.854	264.757	134.022	138.394	138.981	143.435	428.106	142.457	-8191	255	
2508.058	1	1	0	0	0.09392	0.044542	0.026463	0.12742	0.45194	0.063327	0.44777	0.20264	0.2641	0.27124	0.16874	0.076413	0.18947	0.067916	0.1549	0.10617	0.59583	-0.047917	-0.38333	0.275	-0.41042	0.0020833	-0.045833	-0.50208	0.25417	0.22292	-0.64583	0.45417	-0.21667	-0.32083	0.29792	-0.41458	130.084	166.037	240.643	369.949	218.707	178.376	438.011	307.370	383.142	266.997	138.001	344.723	403.824	438.480	393.843	337.271	0.001383	0.00024453	0.00015565	1355.5	4.7002e-06	5.5308e-06	1352	367.48	7.9859e-06	1.2354e-05	416.25	140.82	122.38	41.844	1.1373e-05	51.452	0.00058646	0.00058349	0.00016372	1385.9	6.3624e-06	6.3743e-06	1386.4	376.68	6.3411e-06	6.4215e-06	430.29	144.41	125.55	43.334	6.4362e-06	53.544	120.685	413.970	170.236	129.770	255.289	250.571	129.468	133.988	256.178	224.281	133.509	137.702	138.564	143.212	230.993	142.277	-8191	255	
2508.179	1	1	0	0	0.29661	0.26786	0.24539	0.384	0.11028	0.18906	0.28405	0.39905	0.14364	0.25509	0.16916	0.098314	0.17768	0.19196	0.10857	0.1178	0.49167	0.08125	-0.35417	-0.00625	-0.24583	-0.33333	0.085417	-0.3625	0.0083333	0.21042	-0.69375	0.15208	-0.34583	-0.26875	0.44792	-0.60208	415.626	154.161	277.411	475.348	415.536	329.124	452.733	128.904	425.200	367.859	419.006	348.605	379.383	185.508	263.845	373.872	0.0008344	0.00072038	0.00020386	1358.9	2.6562e-06	1.4352e-06	1358.8	368.23	8.6002e-06	1.6608e-06	417.72	140.25	122.32	41.726	3.5187e-06	51.711	0.00058475	0.00058431	0.00016309	1387.9	6.3345e-06	6.3375e-06	1388.2	376.32	6.3321e-06	6.3764e-06	429.57	143.91	125.58	43.254	6.362e-06	53.561	124.478	265.477	239.576	129.898	213.578	261.714	129.507	134.305	253.418	386.652	133.774	138.136	138.638	143.381	259.830	142.530	-8191	255	
2508.275	1	1	0	0	0.16916	0.22404	0.16396	0.23019	0.15644	0.23192	0.18088	0.30327	0.31988	0.10367	0.16846	0.050028	0.26822	0.17741	0.18941	0.17372	0.41042	0.2	-0.34792	-0.0020833	-0.041667	-0.38958	0.22917	-0.52292	-0.097917	0.46042	-0.62292	0.27292	-0.11667	-0.62708	0.35208	-0.40625	361.817	407.428	443.599	466.986	208.018	438.239	394.741	431.444	438.040	407.166	266.847	140.119	451.856	173.273	326.780	403.046	0.00095773	0.00040761	7.5309e-05	1356.2	2.6723e-06	9.8663e-06	1356.2	366.18	8.8413e-06	8.575e-06	418.07	139.86	122.19	41.646	5.0927e-06	51.729	0.00057947	0.00058285	0.0001611	1386.8	6.3101e-06	6.3383e-06	1385	375.67	6.3055e-06	6.3424e-06	429.54	143.8	125.35	43.235	6.3299e-06	53.466	128.591	472.666	412.159	130.051	166.168	277.156	129.626	134.640	213.277	232.886	133.859	138.208	138.894	143.476	173.788	142.774	-8191	255	
2508.371	1	1	0	0	0.068257	0.23046	0.10251	0.14958	0.22278	0.23312	0.57579	0.13895	0.17762	0.2169	0.21339	0.28015	0.10958	0.18112	0.1763	0.31904	0.30625	0.35833	-0.44792	-0.039583	0.016667	-0.45	0.095833	-0.43958	-0.36458	0.3375	-0.50833	-0.060417	0.020833	-0.64792	0.38333	-0.275	152.743	455.451	174.324	385.966	315.820	169.953	441.691	436.773	453.247	254.667	377.539	475.945	404.220	232.100	257.914	444.261	0.0010541	0.00015315	0.0001392	1355.5	4.4561e-06	2.3789e-06	1355	368.8	7.3194e-06	3.2928e-06	417.69	141.02	122.57	41.874	6.7994e-06	51.57	0.00058162	0.00058158	0.00016061	1388.3	6.3453e-06	6.3606e-06	1385.1	376.34	6.3717e-06	6.3866e-06	429.77	144.26	125.67	43.398	6.3097e-06	53.489	124.773	273.010	330.695	129.883	329.060	280.380	129.618	134.380	186.340	155.288	133.691	138.025	138.690	143.687	250.564	142.718	-8191	255	
2508.465	1	1	0	0	0.15142	0.16496	0.13346	0.37035	0.12788	0.20575	0.22239	0.22993	0.14378	0.28229	0.24243	0.075879	0.18849	0.056173	0.24531	0.15646	0.072917	0.42292	-0.42917	-0.39167	0.24792	-0.63542	-0.010417	-0.375	-0.36042	0.24583	-0.63958	-0.30208	0.15625	-0.58333	0.22917	0.0125	246.366	403.929	117.142	428.158	298.431	369.118	373.117	404.061	155.796	300.584	455.909	393.428	415.576	187.356	376.557	410.131	0.0010214	0.00038717	0.00031145	1360.5	1.0421e-05	4.0394e-06	1361.5	368.44	1.0796e-05	4.103e-06	419.41	141.46	122.8	41.812	2.6189e-06	51.426	0.00058644	0.00058245	0.00016074	1389.6	6.3657e-06	6.3658e-06	1387.1	376.55	6.3635e-06	6.3055e-06	429.96	144.37	125.67	43.323	6.2734e-06	53.492	469.836	119.195	143.805	129.974	245.592	287.082	129.768	134.823	231.490	273.100	134.554	138.045	138.992	143.681	218.725	142.659	-8191	255	
2508.561	1	1	0	0	0.1775	0.13303	0.22514	0.44761	0.27536	0.15083	0.10993	0.10491	0.32613	0.16606	0.23889	0.071296	0.33275	0.20081	0.14927	0.11007	-0.12292	0.25833	-0.18125	-0.11667	0.33333	-0.5625	0.20208	-0.2125	-0.36875	0.325	-0.35625	-0.55208	0.18958	-0.49167	0.00625	-0.04375	379.704	246.434	351.759	423.571	173.904	253.456	125.434	387.002	309.860	138.243	401.415	441.757	385.737	371.701	442.671	313.553	0.0010321	0.00045044	0.00030423	1361.7	9.1412e-07	2.6402e-06	1360.1	369.2	7.9013e-06	2.5197e-06	419.6	140.07	122.81	41.629	4.5302e-07	51.578	0.00058747	0.00057878	0.00015946	1390.5	6.3659e-06	6.319e-06	1387.1	377.18	6.4083e-06	6.3584e-06	430.4	144.41	125.73	43.291	6.3329e-06	53.634	118.333	140.613	199.332	129.759	373.190	146.962	129.493	134.852	263.969	208.749	133.806	137.578	138.273	143.050	408.460	142.417	-8191	255	
2508.659	1	1	0	0	0.29675	0.1295	0.39837	0.20736	0.094275	0.1184	0.28278	0.16512	0.11118	0.32156	0.25814	0.2187	0.28682	0.13402	0.083625	0.11192	-0.16042	0.23542	-0.35417	-0.41042	0.26042	-0.38958	-0.30833	-0.010417	-0.40833	0.34583	-0.23542	-0.51042	0.17708	-0.55208	0.035417	0.054167	371.592	359.826	294.248	395.739	278.181	264.040	401.580	444.273	439.602	392.495	419.543	441.877	371.440	408.689	182.785	465.195	0.0012277	0.00066833	1.8158e-05	1363.8	7.8702e-06	2.8901e-06	1359.3	367.06	3.4563e-06	3.184e-06	419.55	140.49	122.26	41.627	2.4651e-06	51.594	0.00059316	0.00058257	0.00016249	1393.2	6.4986e-06	6.4021e-06	1387.9	377.31	6.4922e-06	6.4003e-06	430.97	144.5	125.77	43.298	6.3635e-06	53.588	117.948	211.009	352.750	129.778	216.240	375.393	129.484	134.307	195.233	258.203	134.011	138.022	138.779	143.207	363.446	142.487	-8191	255	
2508.778	1	1	0	0	0.1914	0.17939	0.12875	0.25137	0.13471	0.28753	0.34176	0.22755	0.18578	0.40575	0.20497	0.11445	0.23253	0.05877	0.18571	0.14702	-0.17708	0.2875	-0.33958	-0.65	0.47292	-0.39167	-0.45	0.13542	-0.475	0.14167	-0.28333	-0.73333	0.31042	-0.39583	-0.041667	0.23958	340.893	281.546	280.722	470.485	266.802	446.092	418.560	471.023	304.293	433.746	458.212	140.573	403.731	301.605	301.958	335.379	0.0010519	0.00011427	0.00034989	1361.1	8.0967e-06	1.2418e-06	1355.7	367.04	5.4102e-06	3.2405e-06	416.24	140.59	121.61	41.797	4.6006e-06	51.435	0.00059786	0.00058351	0.0001634	1390.6	6.4218e-06	6.3811e-06	1385.1	376.63	6.4544e-06	6.3396e-06	429.66	144.21	125.34	43.242	6.3488e-06	53.552	131.247	430.461	175.065	130.191	290.032	384.153	129.522	134.136	422.318	151.971	133.697	137.989	138.514	143.625	251.271	142.511	-8191	255	
2508.874	1	1	0	0	0.060984	0.12058	0.16354	0.19171	0.27445	0.35136	0.26534	0.1639	0.029285	0.22599	0.18069	0.24806	0.17588	0.27116	0.11865	0.33343	0.064583	0.0625	0.11667	-0.74583	0.28958	-0.45833	-0.39583	0.41042	-0.44375	0.17083	0.0083333	-0.55833	0.14375	-0.21042	-0.25833	0.21667	326.229	285.844	209.938	135.829	261.800	335.602	407.671	363.513	395.103	390.045	471.962	117.626	399.896	455.467	427.910	423.207	0.0012576	0.00065465	0.00014276	1355.1	5.4484e-06	3.3714e-06	1352.5	368	6.4425e-06	5.7183e-06	418.25	140.2	122.16	41.833	7.4211e-06	51.503	0.00059027	0.00057794	0.00016308	1387.4	6.426e-06	6.3519e-06	1384.6	376.99	6.3722e-06	6.3805e-06	430.35	144.12	125.3	43.257	6.4218e-06	53.575	471.514	207.955	300.722	129.671	198.763	287.461	129.530	134.583	282.838	249.011	133.962	138.019	138.466	143.302	225.087	142.497	-8191	255	
2508.970	1	1	0	0	0.19138	0.41554	0.1913	0.22097	0.26593	0.023025	0.19464	0.35188	0.10453	0.23672	0.41927	0.33526	0.015459	0.28062	0.26246	0.21339	-0.16458	0.083333	0.37292	-0.5375	0.22083	-0.13958	-0.55417	0.36458	-0.37083	-0.12083	0.083333	-0.71667	0.0020833	-0.26667	-0.35208	0.28542	406.828	171.557	188.533	126.113	303.258	286.149	134.889	355.179	439.267	411.791	438.543	207.718	228.207	155.105	287.214	388.799	0.0012613	0.00024265	0.00036829	1356.4	9.5627e-06	5.1497e-06	1356.2	368.05	3.5506e-06	2.2363e-06	416.47	141.03	121.4	41.69	4.6493e-06	51.503	0.0005875	0.00057982	0.0001624	1387.8	6.3633e-06	6.3439e-06	1384.6	376.1	6.3733e-06	6.3382e-06	428.99	144.29	125.1	43.171	6.3234e-06	53.452	473.299	160.990	151.769	129.790	235.552	405.766	129.492	134.353	254.486	314.489	133.912	137.940	138.626	143.537	255.784	142.566	-8191	255	
2509.091	1	1	0	0	0.18715	0.17941	0.19194	0.21129	0.22034	0.15432	0.24579	0.11001	0.14134	0.15318	0.17329	0.10885	0.2592	0.10859	0.10354	0.078342	0.014583	-0.19375	0.15833	-0.68333	0.35	0.085417	-0.52292	0.12083	-0.21875	-0.20833	0.31042	-0.625	0.17708	-0.00625	-0.42917	0.21667	128.908	274.474	395.696	386.877	430.978	326.022	165.885	168.686	281.546	419.545	324.240	178.478	434.384	214.612	135.821	189.484	0.0013577	0.000283	7.8984e-05	1356.8	6.3849e-06	3.2752e-06	1352	366.67	6.4522e-06	4.5184e-06	416.36	140.84	121.82	41.446	3.7441e-06	51.119	0.00058201	0.00058155	0.00016196	1388.1	6.2905e-06	6.3111e-06	1381.3	375.39	6.2593e-06	6.2975e-06	428.36	144.04	124.96	43.055	6.2756e-06	53.28	124.236	122.510	210.207	130.063	202.989	240.663	129.535	134.226	284.811	362.888	133.942	138.051	138.642	143.448	261.096	142.614	-8191	255	
2509.163	1	1	0	0	0.27238	0.1452	0.1283	0.23339	0.076768	0.13935	0.32075	0.11022	0.27962	0.22554	0.063335	0.14537	0.14753	0.36066	0.10926	0.1269	0.027083	-0.47083	0.54375	-0.7125	0.095833	0.11875	-0.85208	0.025	-0.20625	-0.45417	0.30208	-0.52083	-0.16667	0.1375	-0.45833	0.13958	402.342	255.433	321.000	449.461	424.718	343.620	473.568	125.581	469.877	443.935	399.666	345.340	443.317	235.326	339.096	426.064	0.0010861	0.00032462	0.00019465	1359.6	6.5055e-06	1.4546e-06	1352.7	366.16	1.1402e-05	4.2757e-06	417.51	140.23	122.09	41.57	3.1675e-06	51.073	0.00057369	0.00057543	0.00016195	1386.3	6.2711e-06	6.3177e-06	1382.3	374.61	6.2977e-06	6.3308e-06	428.72	143.74	124.96	43.085	6.3416e-06	53.234	475.505	119.096	203.127	129.841	256.811	275.508	129.552	134.442	232.695	200.046	133.837	138.262	138.825	143.392	277.786	142.380	-8191	255	
2509.259	1	1	0	0	0.10871	0.13551	0.08646	0.14566	0.098498	0.19699	0.20383	0.45979	0.087778	0.18928	0.18012	0.17129	0.052711	0.080715	0.086704	0.21681	0.31667	-0.44167	0.71458	-0.69583	0.035417	0.14167	-0.72708	-0.10625	-0.0375	-0.19167	0.36042	-0.51875	-0.20833	0.3	-0.48125	0.05	185.202	357.241	145.364	377.286	163.968	399.550	416.846	437.682	459.328	448.168	436.576	377.051	164.011	357.413	366.453	427.059	0.0011188	0.0002422	0.00017301	1357.9	7.3043e-06	3.7355e-06	1351.4	367.16	9.913e-06	7.6971e-06	416.61	140.54	121.57	41.614	4.8679e-06	51.121	0.00058055	0.00057881	0.00016181	1385.9	6.3129e-06	6.3412e-06	1381.5	375.07	6.2442e-06	6.3303e-06	428.2	143.97	124.76	43.093	6.2713e-06	53.243	127.044	404.806	245.231	130.195	274.367	202.457	129.770	134.803	281.956	221.831	134.269	138.150	138.591	143.581	222.050	142.546	-8191	255	
2509.355	1	1	0	0	0.085524	0.16533	0.0757	0.086086	0.16796	0.16703	0.23621	0.20153	0.25718	0.10347	0.19366	0.24933	0.14205	0.24525	0.35806	0.44045	0.47708	-0.44375	0.27083	-0.47083	-0.27917	0.20208	-0.825	-0.225	0.16458	-0.46875	0.25	-0.42708	-0.27917	0.37917	-0.62292	-0.18542	130.835	298.641	210.460	455.165	296.582	456.446	435.831	453.919	305.657	232.763	164.805	442.944	175.477	122.436	349.428	421.852	0.0011342	0.00026325	0.00010232	1357.2	4.4143e-06	5.9799e-06	1356.4	365.15	1.0083e-05	1.9937e-06	416.94	140.22	121.9	41.667	4.3913e-06	51.416	0.00058089	0.00057847	0.00016055	1384.2	6.2949e-06	6.3276e-06	1383.8	374.37	6.353e-06	6.3226e-06	428.94	143.74	125.21	43.198	6.2725e-06	53.306	125.017	121.334	429.025	130.277	227.802	330.941	129.802	134.673	238.947	319.144	133.964	138.359	138.802	143.969	185.162	143.284	-8191	255	
2509.474	1	1	0	0	0.058289	0.12966	0.12995	0.1509	0.21602	0.12733	0.23784	0.32622	0.31299	0.14864	0.51361	0.15329	0.18664	0.22349	0.29053	0.29067	0.59792	-0.45417	0.23125	-0.28125	-0.28333	0.46667	-0.58125	-0.12083	0.047917	-0.64583	0.09375	-0.19792	-0.45417	0.32083	-0.34583	-0.1625	210.588	227.319	203.434	471.206	360.698	171.272	370.849	421.963	348.387	376.922	436.471	448.249	420.157	117.991	224.722	360.175	0.001013	0.0008804	0.0001544	1353.6	5.3e-06	7.7026e-06	1354.8	366.11	1.01e-05	1.0401e-06	417.31	139.8	121.28	41.777	6.7062e-06	51.312	0.00058571	0.00058011	0.00016097	1384.5	6.3556e-06	6.3777e-06	1381.7	375.03	6.3611e-06	6.3053e-06	428.51	143.48	124.93	43.089	6.2136e-06	53.24	124.305	252.517	190.027	130.323	241.400	232.111	129.847	134.690	265.992	118.379	134.299	138.327	139.135	143.635	417.917	142.924	-8191	255	
2509.570	1	1	0	0	0.08686	0.25559	0.19045	0.25349	0.24819	0.32332	0.11738	0.37999	0.13409	0.13717	0.16856	0.22023	0.25805	0.34058	0.23123	0.2942	0.68958	-0.44167	0.36042	-0.21458	-0.45208	0.26042	-0.64375	-0.55625	0.34167	-0.4125	0.014583	0.058333	-0.4875	0.35833	-0.27708	-0.27917	288.941	386.678	247.338	399.975	144.661	425.216	471.752	425.765	356.194	367.160	321.293	320.470	442.774	443.114	167.943	380.583	0.0011467	0.00033225	0.00023103	1354	8.8497e-06	1.0711e-06	1357.3	367.57	3.315e-06	4.385e-06	414.67	140.4	122.05	41.846	2.3103e-06	51.344	0.00058605	0.00057318	0.00015795	1386.2	6.2957e-06	6.2674e-06	1383.7	375.47	6.3059e-06	6.2572e-06	427.72	143.9	125.14	43.163	6.2478e-06	53.345	117.033	454.589	148.705	130.141	196.671	274.306	130.207	134.841	245.197	347.560	134.080	138.505	139.055	144.116	184.912	142.689	-8191	255	
2509.666	1	1	0	0	0.10908	0.17351	0.23736	0.30628	0.17279	0.11361	0.59989	0.18455	0.23143	0.042156	0.1387	0.1179	0.3734	0.20653	0.13285	0.10822	0.91667	-0.61458	0.060417	0.060417	-0.58333	0.17292	-0.62083	-0.5	0.45833	-0.45625	-0.047917	0.025	-0.58333	0.00625	-0.0041667	-0.42708	216.551	443.914	439.664	433.264	129.019	177.584	388.301	267.493	427.859	289.383	200.129	398.031	416.555	356.104	171.918	421.230	0.001444	0.00023147	0.00022247	1354.5	5.7556e-06	1.3794e-06	1355.6	367.77	4.5945e-06	3.6722e-06	415.83	140.59	121.88	41.572	4.4593e-06	51.597	0.00058652	0.0005726	0.00015978	1386.2	6.3414e-06	6.324e-06	1385.9	375.76	6.3885e-06	6.2813e-06	428.17	144.07	125.19	43.124	6.3599e-06	53.513	126.123	143.659	141.763	129.927	220.064	407.505	129.937	134.593	241.493	185.997	134.114	138.570	139.195	144.007	195.635	142.823	-8191	255	
2509.740	1	1	0	0	0.17595	0.29368	0.20709	0.052316	0.024038	0.29653	0.27402	0.19648	0.069034	0.32283	0.19877	0.26413	0.14741	0.17645	0.25419	0.19828	0.74375	-0.44375	0.020833	0.022917	-0.68958	0.21042	-0.41875	-0.60833	0.016667	-0.47917	-0.24375	0.19792	-0.70833	0.091667	-0.0375	-0.71042	146.710	328.032	405.216	435.044	395.143	432.231	413.718	416.312	159.371	308.433	460.297	303.457	188.974	446.915	168.630	442.104	0.0013319	0.00072317	0.0002077	1356.4	2.6985e-06	4.5347e-06	1356.3	364.46	4.2884e-06	2.9538e-06	417.87	140.21	121.86	41.65	2.1673e-06	51.244	0.00058831	0.00057625	0.0001618	1387.6	6.386e-06	6.2768e-06	1385.4	375.1	6.3907e-06	6.3089e-06	429.48	143.85	125.25	43.075	6.3737e-06	53.32	124.299	461.876	199.633	130.322	179.632	264.889	129.759	134.452	264.123	329.107	133.806	138.217	138.984	143.602	310.873	142.608	-8191	255	
2509.859	1	1	0	0	0.048391	0.12584	0.042754	0.30186	0.066728	0.12457	0.21182	0.16056	0.22674	0.27642	0.45246	0.06065	0.085185	0.39856	0.20415	0.18709	0.62083	-0.34583	-0.1875	0.16042	-0.54375	0.054167	-0.35	-0.73333	0.32708	-0.44792	-0.4375	0.13333	-0.57917	0.09375	-0.070833	-0.65417	397.516	211.623	212.634	361.420	333.377	416.014	412.037	143.546	167.227	382.624	439.095	439.419	203.477	127.941	451.858	322.236	0.0011449	0.00063998	7.8565e-05	1353.8	4.3633e-06	9.8473e-06	1359.3	368.16	6.5059e-06	7.7345e-06	419.44	141.05	122.13	41.831	7.5371e-06	51.277	0.00058369	0.00057687	0.00016215	1386.3	6.3086e-06	6.3447e-06	1386.8	376.33	6.2822e-06	6.2876e-06	429.39	144.07	125.3	43.225	6.344e-06	53.405	120.465	154.190	418.877	130.278	310.029	255.943	129.994	135.043	272.633	228.190	134.201	138.356	138.916	143.907	227.019	142.579	-8191	255	
2509.955	1	1	0	0	0.26621	0.1421	0.18038	0.36955	0.19854	0.14242	0.29558	0.30181	0.16712	0.1307	0.11222	0.10247	0.52006	0.2478	0.18604	0.19039	0.47917	-0.20417	-0.49167	0.25833	-0.43333	-0.08125	0.0625	-0.73958	0.19583	-0.10417	-0.52292	0.083333	-0.5875	-0.33125	0.30208	-0.7	382.685	339.125	456.254	431.450	322.496	434.167	416.384	427.189	273.301	145.375	147.326	310.205	398.669	351.852	448.553	380.755	0.0011353	0.00046949	9.1875e-05	1360.6	8.3098e-06	2.5332e-06	1356.7	367.59	7.3872e-06	4.5016e-06	417.28	140.4	121.88	41.507	2.5915e-06	51.243	0.00057966	0.00057697	0.00016121	1387.4	6.3301e-06	6.2987e-06	1384.5	376.02	6.2462e-06	6.3041e-06	429.19	143.9	125.08	43.065	6.3694e-06	53.296	469.141	152.610	161.498	130.395	270.426	321.631	130.052	134.993	220.907	184.038	134.389	138.797	139.398	143.762	274.949	142.718	-8191	255	
2510.051	1	1	0	0	0.17433	0.14682	0.11332	0.152	0.20698	0.043297	0.32528	0.12112	0.1028	0.2213	0.31366	0.24392	0.23028	0.17697	0.24401	0.25282	0.3	0.01875	-0.475	0.097917	-0.2875	-0.13958	0.175	-0.57292	0.016667	-0.016667	-0.7125	0.19583	-0.45	-0.34375	0.34583	-0.71875	316.127	186.204	343.784	207.852	133.280	241.912	395.827	375.810	209.124	219.729	427.993	417.992	395.584	381.686	231.161	353.081	0.0010778	0.00030788	0.00027872	1357.5	4.6096e-06	4.5776e-06	1356.2	366.65	5.6517e-06	6.8411e-06	416.01	140.21	122.51	41.55	1.0075e-06	51.488	0.00057539	0.00057606	0.00016104	1385.9	6.2432e-06	6.2923e-06	1385.3	375.33	6.238e-06	6.3246e-06	428.16	143.73	125.21	43.077	6.2999e-06	53.339	116.922	244.848	167.292	130.244	294.236	313.220	129.811	134.845	233.285	305.637	134.379	138.726	138.992	144.054	175.288	142.773	-8191	255	
2510.171	1	1	0	0	0.03738	0.063918	0.0755	0.21551	0.27821	0.10042	0.13291	0.34301	0.16628	0.31633	0.20907	0.065923	0.091651	0.27238	0.33731	0.14642	0.36667	0.14792	-0.64375	0.020833	-0.20417	-0.28542	0.022917	-0.65417	-0.10208	0.15208	-0.64583	0.10417	-0.32708	-0.6375	0.28542	-0.41458	210.225	456.165	449.715	409.021	342.021	243.889	234.222	372.495	196.141	432.670	386.517	149.306	186.148	156.735	463.943	138.708	0.00088892	0.00063437	4.1118e-05	1354.2	9.5028e-06	5.7994e-06	1354.8	367.4	3.651e-06	8.2207e-06	417.47	140.45	122.33	41.747	2.155e-06	51.538	0.0005752	0.00057536	0.00016134	1384.5	6.2509e-06	6.2824e-06	1383.1	375.6	6.2763e-06	6.3297e-06	429.19	143.85	125.02	43.154	6.3502e-06	53.386	475.145	229.179	470.114	130.393	215.420	307.739	130.093	135.159	277.699	188.351	134.391	138.463	139.221	144.038	248.804	143.111	-8191	255	
2510.266	1	1	0	0	0.12601	0.13964	0.09229	0.54505	0.17067	0.34192	0.22815	0.090684	0.17959	0.23021	0.23934	0.21955	0.24284	0.22736	0.096231	0.28812	0.38958	0.36667	-0.61667	0.0083333	-0.11667	-0.15417	0.083333	-0.6125	0.05625	0.35417	-0.44375	-0.014583	-0.10208	-0.70208	0.29167	-0.49792	138.552	441.342	339.261	434.174	254.212	216.534	408.081	241.033	162.962	409.235	420.787	289.311	412.117	125.590	340.232	436.954	0.0013817	0.00069251	0.00018384	1357.8	6.8301e-06	4.9854e-06	1352.6	366.57	8.5299e-06	5.9377e-06	415.38	139.65	122	41.676	2.2251e-06	51.226	0.0005821	0.0005808	0.0001618	1384.1	6.3226e-06	6.3412e-06	1383.7	375.48	6.3004e-06	6.3399e-06	428.52	143.53	125.23	43.126	6.2735e-06	53.264	122.910	219.830	195.760	130.614	266.959	284.846	129.552	134.391	288.982	257.212	133.904	138.081	138.830	143.674	361.566	142.527	-8191	255	
2510.362	1	1	0	0	0.068105	0.15977	0.23497	0.044409	0.088688	0.1645	0.43986	0.25869	0.052313	0.17065	0.17948	0.061763	0.11125	0.17554	0.088736	0.20585	0.16042	0.40833	-0.45833	-0.047917	0.16458	-0.37708	0.072917	-0.4625	-0.22917	0.41042	-0.56875	0.00625	0.1125	-0.62917	0.31458	-0.16875	292.738	212.280	130.976	421.956	438.402	258.062	435.998	355.266	199.535	204.001	438.193	472.587	255.408	344.560	265.846	379.564	0.0010501	0.00051208	0.00029866	1357.5	5.9615e-06	4.564e-06	1350.4	367.01	4.9074e-07	3.2687e-06	417.83	140.54	122.4	41.545	3.9043e-06	51.333	0.00057928	0.00057812	0.00015999	1385.8	6.3127e-06	6.3623e-06	1381.1	375.52	6.3279e-06	6.3269e-06	428.64	143.63	125.25	43.095	6.2763e-06	53.28	473.138	137.964	291.487	129.746	222.034	259.495	129.836	134.407	375.072	317.733	133.630	137.685	138.430	143.507	318.245	142.589	-8191	255	
2510.460	1	1	0	0	0.15861	0.17361	0.28835	0.10911	0.13494	0.41147	0.076795	0.073744	0.22279	0.21355	0.28937	0.1884	0.15075	0.18708	0.26001	0.17364	-0.010417	0.36875	-0.68125	-0.27917	0.38125	-0.69167	0.19167	-0.21667	-0.45833	0.39792	-0.74583	-0.20417	0.30625	-0.57917	0.27083	-0.029167	188.614	236.714	345.056	403.004	442.783	168.496	290.396	407.680	298.393	130.637	419.410	213.605	168.021	162.076	133.958	121.513	0.0010438	0.0010518	0.00024939	1358.8	6.4819e-06	4.9572e-06	1351.2	366.16	5.2416e-06	3.468e-06	415.22	140.54	121.84	41.632	2.6601e-06	51.686	0.00058154	0.00057473	0.00015951	1387.1	6.3414e-06	6.3357e-06	1382.8	375.11	6.313e-06	6.3691e-06	428.04	143.81	125.16	43.067	6.3313e-06	53.466	126.407	190.445	195.070	129.632	305.735	236.423	129.542	134.566	262.378	279.973	133.806	138.089	138.673	143.439	199.131	142.505	-8191	255	
2510.554	1	1	0	0	0.072471	0.13026	0.10508	0.21108	0.090612	0.17482	0.20697	0.21214	0.14362	0.15663	0.13356	0.23075	0.25915	0.21883	0.18578	0.091257	-0.010417	0.40208	-0.33125	-0.27083	0.40417	-0.54167	-0.0875	-0.22708	-0.48333	0.33333	-0.55417	-0.42292	0.225	-0.7125	0.016667	-0.08125	195.646	212.303	312.268	378.344	123.184	122.694	464.803	414.413	176.081	298.677	336.117	445.908	420.628	430.450	390.559	236.597	0.0012359	0.00043835	0.00020795	1351.1	5.4008e-06	3.6023e-06	1355	367.05	5.8892e-06	3.9375e-06	417.14	140.32	122.41	41.597	4.7251e-06	51.274	0.00059363	0.00058689	0.00016187	1384.9	6.4627e-06	6.3743e-06	1384.6	376.14	6.455e-06	6.3928e-06	429.42	143.73	125.48	43.219	6.332e-06	53.395	128.531	202.216	147.215	129.669	200.072	245.584	129.308	134.220	202.861	310.352	133.949	137.754	138.375	143.520	194.934	142.297	-8191	255	
2510.650	1	1	0	0	0.37422	0.13463	0.18019	0.39678	0.30978	0.17002	0.28388	0.22589	0.26693	0.10202	0.1427	0.17153	0.076598	0.13398	0.15577	0.075004	-0.020833	0.4625	-0.10208	-0.32083	0.18958	-0.47083	-0.125	0.047917	-0.39167	0.31667	-0.27292	-0.275	0.29375	-0.43958	0.22708	0.10833	456.549	370.855	325.306	395.042	374.673	427.653	390.294	408.596	140.239	385.417	429.719	430.632	463.808	410.980	394.944	377.851	0.001026	0.00035247	0.0001512	1358.9	5.8777e-06	7.4236e-06	1355.7	367.71	1.2662e-06	2.9355e-06	418.18	140.19	121.95	41.582	5.3943e-06	51.596	0.00059088	0.00057922	0.00016143	1388.5	6.423e-06	6.3343e-06	1384.4	376.14	6.4198e-06	6.3731e-06	429.95	144.1	125.17	43.126	6.3432e-06	53.524	121.579	433.553	197.378	129.625	219.776	344.809	129.193	134.110	123.135	320.460	133.608	137.676	138.459	143.123	225.511	142.461	-8191	255	
2510.771	1	1	0	0	0.10753	0.25084	0.041913	0.11364	0.32086	0.16394	0.44933	0.27565	0.14662	0.087673	0.22716	0.14018	0.11781	0.34521	0.06647	0.097092	-0.19375	0.20833	-0.089583	-0.69375	0.3875	-0.36667	-0.16042	-0.052083	-0.48542	0.16667	-0.064583	-0.46042	0.25208	-0.37708	-0.064583	0.175	352.741	298.522	279.289	402.855	425.457	391.572	412.250	417.691	251.295	302.041	157.978	423.307	144.026	442.486	297.612	432.376	0.0010831	0.00024286	0.0001718	1360.7	1.121e-05	4.6294e-06	1353.7	367.2	4.9264e-06	2.4311e-06	417.03	140.1	122.18	41.642	2.1257e-06	51.508	0.00059314	0.00058406	0.00016319	1391.1	6.4416e-06	6.3764e-06	1385.6	376.55	6.4257e-06	6.3759e-06	429.82	144.2	125.37	43.207	6.4463e-06	53.579	475.298	149.924	162.701	129.656	234.636	231.834	129.455	134.438	217.911	201.193	133.844	138.085	138.409	142.964	220.352	142.437	-8191	255	
2510.867	1	1	0	0	0.34623	0.065451	0.13063	0.11157	0.029658	0.23074	0.17863	0.2105	0.25205	0.070982	0.16936	0.09078	0.37103	0.098724	0.45119	0.12412	-0.06875	0.19583	0.24583	-0.54792	0.35625	-0.11875	-0.3375	0.425	-0.43125	-0.070833	0.10208	-0.83958	0.42917	-0.24583	-0.25417	0.29167	148.179	379.281	424.856	137.817	437.902	397.593	405.046	391.594	237.745	423.170	441.381	174.941	400.880	121.107	219.900	267.978	0.00094252	0.00044494	0.00021998	1352.9	5.1391e-06	3.8484e-06	1353.8	365.39	5.618e-06	3.3947e-06	418.36	139.41	122.13	41.665	9.6267e-06	51.485	0.00059748	0.00058611	0.00016532	1390.4	6.49e-06	6.4859e-06	1384.1	376.48	6.4781e-06	6.4565e-06	430.9	144.1	125.58	43.321	6.4936e-06	53.597	123.129	468.595	467.753	129.544	272.059	244.327	129.260	134.070	335.662	228.107	133.573	137.562	138.344	143.151	248.801	142.250	-8191	255	
2510.963	1	1	0	0	0.1176	0.2105	0.1121	0.26829	0.13744	0.15201	0.054446	0.13648	0.21816	0.12199	0.18371	0.10056	0.2587	0.071612	0.16127	0.32239	-0.13958	-0.0125	0.30833	-0.51667	0.30625	-0.18333	-0.575	0.25	-0.43958	-0.27292	0.20833	-0.77292	0.1125	-0.072917	-0.48958	0.31042	444.134	381.973	410.215	435.948	218.243	415.817	119.730	386.959	347.426	358.488	221.548	474.963	431.279	386.034	326.103	436.548	0.001102	0.00062836	0.00030246	1359.3	7.6561e-06	6.7528e-06	1356.5	367.85	5.3265e-06	6.7327e-07	417.8	141.3	122.35	41.701	2.8174e-06	51.582	0.00059478	0.00058819	0.00016491	1390.6	6.4468e-06	6.447e-06	1384.9	376.62	6.4095e-06	6.4105e-06	429.95	144.55	125.46	43.222	6.462e-06	53.607	466.756	129.047	170.109	129.751	276.062	257.073	129.121	134.042	265.889	281.866	134.005	137.769	138.406	143.239	233.981	142.051	-8191	255	
2511.035	1	1	0	0	0.2038	0.26465	0.13322	0.4423	0.1634	0.15401	0.11125	0.21727	0.090334	0.16576	0.10874	0.46357	0.48103	0.24158	0.20317	0.21243	-0.029167	-0.13958	0.27083	-0.65	0.36875	-0.06875	-0.83125	0.041667	-0.50833	-0.2875	0.19375	-0.89792	-0.12292	-0.1125	-0.51667	0.38542	304.230	472.690	352.214	405.210	268.827	226.007	221.716	464.601	465.642	237.625	261.281	448.651	451.047	471.657	460.627	299.910	0.00099776	0.00011055	0.00018952	1356.4	2.4563e-06	4.9973e-06	1354	367.9	8.0489e-06	4.4238e-06	416.95	141.16	122.53	41.698	3.3202e-06	51.301	0.00058938	0.00058754	0.00016511	1389.3	6.3586e-06	6.427e-06	1385.7	376.33	6.3673e-06	6.4201e-06	429.56	144.38	125.48	43.249	6.4375e-06	53.424	131.251	176.983	214.642	129.735	306.412	165.914	129.399	134.448	230.637	279.368	133.563	138.116	138.638	143.392	163.525	142.499	-8191	255	
2511.131	1	1	0	0	0.19034	0.13362	0.097306	0.37099	0.16563	0.18483	0.26027	0.49327	0.076716	0.22192	0.27785	0.17115	0.51265	0.24249	0.27037	0.099287	0.058333	-0.22083	0.39167	-0.56042	0.072917	0.058333	-0.81042	0.097917	-0.22708	-0.42917	0.32292	-0.6125	-0.12708	0.13333	-0.45417	0.22708	191.968	455.871	134.530	429.100	260.123	288.464	380.069	428.736	120.077	268.589	388.368	414.794	119.165	433.028	301.749	299.975	0.001081	0.00061122	4.6452e-05	1357.1	7.1224e-06	1.5914e-06	1354.9	368.15	5.3346e-06	1.8218e-06	415.51	140.51	121.98	41.698	5.337e-06	51.179	0.00059095	0.00058707	0.00016541	1387.6	6.4026e-06	6.4437e-06	1384.3	376.36	6.4022e-06	6.4809e-06	429.12	144.09	125.31	43.255	6.4591e-06	53.367	116.188	437.420	201.143	129.974	282.336	205.275	129.422	134.112	196.050	455.109	133.520	138.055	138.368	143.155	270.797	142.139	-8191	255	
2511.252	1	1	0	0	0.046555	0.17702	0.22525	0.24158	0.41587	0.18282	0.36509	0.21315	0.23143	0.17144	0.14021	0.18432	0.21227	0.3157	0.17216	0.31456	0.12292	-0.30208	0.45833	-0.44375	0.022917	0.28958	-0.80833	0.039583	0.047917	-0.42292	0.34375	-0.54792	-0.18125	0.11458	-0.5875	0.047917	159.319	390.013	172.344	425.977	309.718	399.585	420.067	435.602	214.856	219.249	137.767	441.149	151.953	412.822	301.702	351.181	0.0012486	0.00059428	0.00016828	1357.9	3.002e-06	3.9475e-06	1355	366.81	7.9651e-06	3.4181e-06	415.41	140.42	122.49	41.521	7.1665e-06	51.543	0.00059551	0.00059395	0.00016521	1388	6.4145e-06	6.4743e-06	1386.2	376.3	6.4756e-06	6.5377e-06	430.08	144.25	125.6	43.248	6.4301e-06	53.554	122.760	163.005	178.119	129.755	287.699	315.419	129.344	134.316	178.987	423.822	133.848	138.088	138.653	143.457	256.304	142.761	-8191	255	
2511.348	1	1	0	0	0.23191	0.33015	0.10214	0.14853	0.14049	0.08593	0.089634	0.25036	0.089842	0.11234	0.14589	0.26424	0.19593	0.12609	0.18794	0.24187	0.49167	-0.39167	0.3125	-0.43542	-0.19167	0.26458	-0.80833	-0.0625	0.025	-0.54792	0.3125	-0.30833	-0.40625	-0.08125	-0.30833	-0.11042	310.721	443.443	227.519	400.420	210.797	269.209	292.527	201.705	304.370	403.309	416.591	124.672	427.694	153.601	234.656	117.018	0.0010384	0.00067208	0.00024485	1357.9	5.9878e-06	5.1684e-06	1357.9	366.61	7.8312e-06	8.6265e-06	415.85	140.7	121.71	41.676	1.8585e-06	51.303	0.00059521	0.0005896	0.00016412	1388.7	6.4271e-06	6.4365e-06	1386.2	375.62	6.4114e-06	6.411e-06	428.47	144.2	125.28	43.273	6.3462e-06	53.46	127.789	186.962	149.849	129.898	254.164	321.979	129.547	134.315	237.854	223.663	134.048	138.131	138.576	143.781	270.945	142.523	-8191	255	
2511.442	1	1	0	0	0.040119	0.2555	0.1495	0.1484	0.24701	0.12875	0.2586	0.11041	0.11911	0.064677	0.15139	0.14829	0.31125	0.34197	0.17215	0.11543	0.63958	-0.26875	0.40417	-0.17292	-0.28542	0.35208	-0.6	-0.22292	0.37292	-0.46458	-0.035417	-0.21042	-0.47083	0.45625	-0.37708	-0.37708	455.605	357.007	349.701	464.209	463.672	427.507	374.626	383.295	398.456	344.103	261.735	201.667	381.614	467.362	314.318	347.480	0.0012961	0.00029316	0.00025152	1359.7	5.5908e-06	2.206e-06	1359.9	367.01	5.6404e-06	6.0457e-06	416.99	140.6	121.9	41.586	3.3572e-06	51.485	0.00058923	0.00058661	0.00016233	1389.2	6.4256e-06	6.3967e-06	1386.9	375.77	6.3672e-06	6.3748e-06	429.42	143.98	125.25	43.232	6.2921e-06	53.428	472.271	431.066	465.927	129.904	216.767	441.803	129.661	134.365	260.346	253.316	133.526	138.171	138.566	143.274	310.210	142.435	-8191	255	
2511.540	1	1	0	0	0.17756	0.066567	0.29914	0.038636	0.19112	0.1345	0.25512	0.31422	0.10338	0.16029	0.27033	0.20675	0.16749	0.26738	0.06921	0.10224	0.5375	-0.30208	0.27917	-0.11458	-0.53333	0.34167	-0.48958	-0.32917	0.1625	-0.61042	0.10625	0.022917	-0.63958	0.083333	-0.075	-0.18958	405.930	468.743	301.475	316.190	413.389	441.818	361.549	441.150	271.166	440.403	315.091	118.492	333.482	432.665	132.740	141.869	0.0012738	0.00035828	0.00019292	1355.4	1.7748e-06	8.843e-06	1358.1	366.29	5.5943e-06	8.2853e-06	416.79	140.11	121.93	41.473	1.6841e-06	51.247	0.00058941	0.000584	0.00016115	1387.3	6.3933e-06	6.3537e-06	1387.3	375.68	6.4079e-06	6.3831e-06	428.97	143.9	125.21	43.152	6.322e-06	53.41	125.148	199.891	427.096	130.048	248.067	240.740	129.513	134.427	281.944	301.581	133.795	138.283	138.257	143.304	378.236	142.285	-8191	255	
2511.635	1	1	0	0	0.21058	0.016662	0.32536	0.12604	0.14308	0.20157	0.10233	0.35578	0.17439	0.13358	0.034301	0.31625	0.10214	0.19681	0.11235	0.29561	0.51875	-0.225	0.17292	-0.039583	-0.43958	0.33125	-0.17708	-0.475	0.65417	-0.55208	0.06875	0.033333	-0.65208	0.40208	-0.17292	-0.32292	440.697	445.019	404.518	152.021	405.389	393.138	290.308	420.660	420.120	143.211	235.530	342.076	130.160	422.808	349.527	346.808	0.0011627	0.00054489	0.00018383	1358.5	4.4156e-06	5.6952e-06	1353.4	366.79	7.0829e-06	2.0282e-06	416.26	140.36	121.89	41.591	5.0431e-06	51.426	0.00059924	0.00058579	0.0001622	1391.3	6.4565e-06	6.394e-06	1386.2	376.25	6.4495e-06	6.3482e-06	429.26	144.37	125.4	43.134	6.355e-06	53.463	131.191	170.259	161.826	129.836	193.522	126.744	129.460	134.048	253.277	299.020	133.614	137.859	138.421	143.313	211.496	142.137	-8191	255	
2511.733	1	1	0	0	0.11612	0.29474	0.17816	0.28459	0.17555	0.11667	0.31021	0.36007	0.10743	0.032422	0.15462	0.38388	0.15162	0.077866	0.08764	0.053367	0.925	-0.48542	0.17917	0.1125	-0.59375	0.30417	-0.19583	-0.59792	0.62292	-0.33125	-0.33542	0.27083	-0.63542	0.23542	0.1125	-0.31875	454.665	387.151	410.248	423.570	263.344	340.560	137.471	410.548	368.757	454.548	120.639	440.077	183.745	174.465	134.763	393.932	0.00094855	0.00035643	0.00013946	1360.5	7.4731e-06	3.6331e-06	1358.7	367.4	9.3207e-06	8.5193e-06	415.31	140.93	121.86	41.763	1.09e-05	51.593	0.00059072	0.00058022	0.00016164	1391.7	6.33e-06	6.2515e-06	1386.6	376.51	6.3274e-06	6.3332e-06	428.22	144.18	125.02	43.231	6.3157e-06	53.505	122.646	469.266	204.374	129.900	319.860	293.796	129.391	134.442	274.532	284.929	133.671	137.908	138.564	143.204	251.742	142.318	-8191	255	
2511.851	1	1	0	0	0.048921	0.21808	0.12563	0.35972	0.19806	0.25655	0.34073	0.15467	0.15437	0.15993	0.24032	0.26534	0.46525	0.24595	0.17652	0.12922	0.82708	-0.08125	-0.054167	0.21875	-0.34583	0.1125	-0.1125	-0.57083	0.43125	-0.16875	-0.525	0.33958	-0.36875	-0.12292	0.23542	-0.3875	364.362	180.707	364.856	369.131	465.745	222.362	122.273	445.617	326.257	196.716	439.440	397.235	399.395	175.621	419.262	476.221	0.0011005	0.0004302	0.00029344	1359	1.2866e-06	7.2599e-06	1356.6	366.91	1.2383e-05	7.2082e-06	416	139.96	122.4	41.713	1.0384e-05	51.364	0.00058456	0.00057837	0.00016214	1389.6	6.3511e-06	6.3123e-06	1386.6	376.1	6.3472e-06	6.3447e-06	429.45	144.02	125.15	43.186	6.4099e-06	53.457	126.483	207.323	192.034	129.441	186.059	278.243	129.407	134.416	270.430	290.933	133.643	138.063	138.568	143.545	209.101	142.489	-8191	255	
2511.948	1	1	0	0	0.26422	0.17276	0.18945	0.1743	0.10517	0.2838	0.29911	0.12876	0.25371	0.19539	0.11763	0.19244	0.19399	0.11532	0.15962	0.12541	0.61458	0.17917	-0.21042	0.25	-0.3375	-0.14375	0.020833	-0.72917	0.34792	-0.09375	-0.49583	0.3625	-0.3875	-0.13333	0.28125	-0.56042	268.974	334.226	246.629	143.634	425.883	201.482	425.421	243.785	271.251	390.154	172.094	391.627	140.750	162.493	173.601	394.316	0.0012264	0.0010735	3.8332e-05	1360	4.6833e-06	6.378e-06	1352.1	367.32	6.2302e-06	5.244e-06	415.4	139.9	122.38	41.671	9.6002e-06	51.577	0.00058842	0.00058182	0.00016325	1388.9	6.3458e-06	6.3599e-06	1383	375.6	6.3337e-06	6.421e-06	428.81	143.75	125.43	43.204	6.4047e-06	53.39	475.485	148.808	160.755	129.634	258.869	256.840	129.553	134.412	288.406	185.458	133.718	138.066	138.492	143.496	241.409	142.406	-8191	255	
2512.044	1	1	0	0	0.14798	0.12289	0.31376	0.29714	0.084911	0.30666	0.234	0.18248	0.19716	0.16566	0.19211	0.20184	0.11839	0.2487	0.050008	0.36002	0.54583	-0.035417	-0.33125	0.22708	-0.38542	-0.15833	0.10625	-0.65208	0.23958	0.26875	-0.55	0.3	-0.30833	-0.28542	0.49792	-0.56875	454.434	140.052	373.264	436.205	294.854	396.098	420.290	439.948	346.469	407.355	448.409	124.853	134.514	363.955	369.238	440.181	0.0012068	4.9938e-05	0.00010757	1355.1	3.5794e-06	1.5772e-06	1361.5	366.93	5.314e-06	1.0828e-05	414.6	140.78	122.52	41.765	5.0991e-06	51.462	0.0005795	0.00057927	0.00016289	1387.1	6.308e-06	6.3386e-06	1386.8	375.23	6.3025e-06	6.3261e-06	428.41	143.88	125	43.132	6.32e-06	53.412	471.409	349.817	144.469	129.976	245.259	411.330	129.516	134.277	216.432	269.262	133.762	138.072	138.855	143.220	180.177	142.616	-8191	255	
2512.140	1	1	0	0	0.22943	0.10887	0.20539	0.30211	0.18527	0.15755	0.1376	0.18833	0.15658	0.14585	0.24309	0.24136	0.13222	0.16956	0.090337	0.14764	0.41667	0.11042	-0.45417	0.40417	-0.10417	-0.4125	0.2125	-0.65	0.060417	0.19167	-0.63333	0.097917	-0.32292	-0.5125	0.38125	-0.4625	421.024	122.845	118.616	438.760	327.899	476.323	463.738	365.622	392.419	191.450	406.138	413.982	124.151	401.399	415.556	437.621	0.001139	0.00021521	0.00015252	1359.9	3.7303e-06	4.5083e-06	1357	367.75	3.069e-06	5.0979e-06	417.6	140.66	122.47	41.625	5.5459e-06	51.469	0.00058073	0.0005823	0.00016246	1388	6.328e-06	6.4064e-06	1387.1	376.11	6.4131e-06	6.4667e-06	430.29	144.17	125.66	43.331	6.5775e-06	53.63	119.414	151.049	163.940	129.750	256.883	208.934	129.617	134.388	155.358	233.051	133.748	137.907	138.748	143.273	237.483	142.512	-8191	255	
2512.261	1	1	0	0	0.18089	0.19559	0.2796	0.15349	0.14058	0.086112	0.2286	0.2316	0.37701	0.1871	0.017328	0.17416	0.40098	0.21535	0.27428	0.24169	0.26875	0.35625	-0.38125	0.18125	-0.18958	-0.25417	0.13333	-0.76458	-0.17917	0.36875	-0.53542	-0.060417	-0.15833	-0.675	0.42708	-0.57083	347.235	269.573	426.355	389.732	197.034	408.657	141.233	428.408	168.559	417.301	394.139	407.062	132.625	233.439	454.506	415.666	0.0011382	0.0003626	4.5862e-05	1354.5	5.8009e-06	5.003e-06	1355.9	367.99	5.0856e-06	3.1106e-06	418.84	141.18	122.73	41.662	9.6111e-06	51.406	0.00060485	0.00060716	0.00016943	1390.5	6.6373e-06	6.699e-06	1390.3	378.55	6.7164e-06	6.7716e-06	433.35	144.85	126.35	43.558	6.6318e-06	53.71	119.680	163.008	152.580	129.960	260.906	289.877	129.527	134.548	224.581	167.100	133.803	137.933	138.364	143.400	243.351	142.453	-8191	255	
2512.332	1	1	0	0	0.28096	0.18887	0.10321	0.063373	0.29561	0.0079752	0.24214	0.092099	0.26793	0.086667	0.31835	0.27038	0.15767	0.26183	0.05319	0.19817	0.01875	0.43958	-0.50417	-0.17083	0.16458	-0.33958	0.1375	-0.63125	-0.027083	0.34792	-0.54375	0.060417	0.085417	-0.50417	0.19792	-0.15625	123.752	404.538	233.132	122.093	235.059	460.727	431.773	139.090	145.552	266.943	124.917	362.540	413.629	145.595	288.557	343.481	0.00094867	0.00037581	0.000116	1357.6	8.7081e-06	1.9335e-06	1356	366.48	3.8143e-06	5.7109e-06	419.28	139.82	121.89	41.568	6.6497e-06	51.345	0.00060951	0.00061128	0.00016816	1388.6	6.5781e-06	6.5422e-06	1384	376.29	6.4577e-06	6.513e-06	430.24	143.67	125.37	43.151	6.4425e-06	53.53	470.839	330.645	412.864	130.100	247.731	172.929	129.845	134.606	266.130	317.306	133.892	138.106	138.950	143.532	234.658	142.768	-8191	255	
2512.453	1	1	0	0	0.15886	0.13661	0.011455	0.34906	0.12981	0.41383	0.23829	0.27029	0.42438	0.086611	0.05266	0.065053	0.14927	0.25493	0.30051	0.17854	0.13958	0.58542	-0.28333	-0.10833	0.325	-0.50417	-0.014583	-0.25	-0.46458	0.20208	-0.50833	-0.16042	0.26458	-0.47292	0.28542	-0.11458	211.074	398.494	369.847	437.529	451.329	356.621	419.711	476.067	178.986	392.785	373.222	457.387	139.505	423.918	200.001	476.859	0.0012193	0.00048541	8.5826e-05	1354.8	1.8044e-06	4.802e-06	1354.5	367.78	4.8609e-06	5.9471e-06	418.75	140.29	121.78	41.68	5.8367e-06	51.345	0.00059722	0.00059531	0.00016325	1387.8	6.5123e-06	6.493e-06	1383.3	376.82	6.5414e-06	6.5541e-06	429.55	144.1	125.25	43.27	6.3837e-06	53.504	474.682	260.206	253.257	130.152	186.269	275.128	129.758	134.874	207.045	214.892	134.178	138.193	138.786	143.705	236.298	143.081	-8191	255	
2512.547	1	1	0	0	0.11625	0.16403	0.29493	0.3354	0.20748	0.27007	0.15844	0.094754	0.066944	0.039794	0.34724	0.1305	0.091009	0.28592	0.22575	0.24025	0.06875	0.34792	-0.29167	-0.25417	0.24375	-0.54375	-0.10208	0.045833	-0.19583	0.46458	-0.38542	-0.23125	0.36042	-0.57292	0.18542	-0.14375	236.415	193.105	451.122	399.791	401.235	356.813	375.594	349.115	236.031	409.221	117.183	382.526	451.059	138.355	454.221	144.904	0.0012854	0.00080249	0.00021328	1355.3	4.5583e-06	8.8741e-06	1352.1	367.25	7.185e-06	6.0742e-06	416.96	141.05	122.06	41.425	7.5289e-06	51.385	0.00059289	0.00058462	0.00016116	1383.6	6.3977e-06	6.3384e-06	1381.3	375.46	6.3281e-06	6.2938e-06	428.28	143.88	125.18	43.04	6.2288e-06	53.27	120.529	150.887	415.698	130.414	326.849	270.007	129.725	134.823	294.212	213.868	134.466	138.344	139.018	143.557	225.988	142.916	-8191	255	
2512.643	1	1	0	0	0.19129	0.17827	0.11036	0.48319	0.241	0.2185	0.13477	0.19158	0.068213	0.20369	0.17151	0.14192	0.076883	0.15114	0.20137	0.18511	-0.054167	0.27083	-0.15417	-0.31042	0.57917	-0.49375	-0.11667	0.058333	-0.43125	0.30625	-0.36667	-0.4375	0.42917	-0.5625	-0.08125	0.1875	405.844	397.569	439.726	419.529	370.271	330.148	231.935	334.759	289.599	353.139	412.746	421.799	324.237	299.464	417.154	118.023	0.0012637	0.00050587	0.00019606	1355.3	6.0657e-07	1.1646e-05	1352.5	367.69	6.4257e-06	1.0144e-05	417.82	139.95	121.91	41.848	6.9794e-06	51.247	0.00058513	0.0005753	0.00016001	1386.9	6.4008e-06	6.3394e-06	1383.4	376.41	6.4842e-06	6.4064e-06	429.83	144.02	125.46	43.294	6.4563e-06	53.544	117.871	268.998	459.031	130.278	160.031	274.990	129.908	134.696	189.444	278.807	134.094	138.029	138.549	143.397	238.032	142.676	-8191	255	
2512.740	1	1	0	0	0.13198	0.1536	0.083072	0.21787	0.065353	0.20463	0.28894	0.094529	0.30244	0.41834	0.23784	0.15564	0.12726	0.27228	0.071825	0.12812	0.070833	0.30208	-0.047917	-0.43542	0.42917	-0.23958	-0.35208	0.15208	-0.42708	0.30833	-0.1125	-0.58125	0.16667	-0.17708	-0.17292	0.34167	457.661	269.902	435.198	380.326	262.053	305.661	421.926	348.491	454.742	226.947	362.108	404.957	203.759	122.216	378.600	398.814	0.00114	0.0007695	0.00015653	1356.4	3.0538e-06	8.4007e-06	1361.1	367.37	8.3625e-06	1.0955e-05	418.73	140.99	122.51	41.59	3.3169e-06	51.24	0.00060112	0.00059342	0.00016564	1389.4	6.5308e-06	6.4275e-06	1387.9	376.88	6.4897e-06	6.3857e-06	430.39	144.49	125.45	43.178	6.416e-06	53.406	136.116	205.812	423.904	129.911	300.294	198.401	129.410	134.556	279.149	385.447	133.770	138.230	138.695	143.545	225.170	142.617	-8191	255	
2512.860	1	1	0	0	0.17183	0.22788	0.10428	0.30583	0.013357	0.15392	0.39561	0.22586	0.19324	0.15833	0.58562	0.18395	0.29056	0.31934	0.26643	0.62834	-0.25417	0.27708	0.15833	-0.87083	0.4	-0.27708	-0.37708	0.125	-0.49583	0.0020833	-0.0375	-0.5625	0.089583	-0.32917	-0.33333	0.13125	341.955	381.206	440.104	461.561	298.085	405.045	395.109	412.499	254.959	442.779	393.621	215.536	433.139	431.031	360.846	453.038	0.0013486	0.00054372	0.00023857	1359.4	3.9459e-06	4.2444e-06	1358.4	367.22	6.9895e-06	7.5751e-06	417.93	140.36	122	41.588	9.97e-06	51.254	0.00058717	0.00057721	0.00016073	1388.9	6.3336e-06	6.2938e-06	1386.1	375.72	6.3011e-06	6.288e-06	428.86	143.88	124.8	43.05	6.3235e-06	53.395	118.721	132.999	234.015	130.095	265.615	262.687	129.777	134.654	301.176	299.770	133.945	138.006	138.810	143.643	200.498	142.916	-8191	255	
2512.932	1	1	0	0	0.39713	0.092473	0.34341	0.065695	0.32824	0.33925	0.19762	0.30062	0.093647	0.22371	0.08713	0.16587	0.3541	0.11964	0.05494	0.26606	-0.041667	0.13333	0.34167	-0.62917	0.46667	0.0375	-0.51458	0.12708	-0.27708	0.022917	0.18333	-0.65833	0.11042	-0.091667	-0.26875	0.42292	452.721	234.633	283.211	372.578	130.987	216.838	399.495	473.260	234.002	143.806	467.422	355.214	469.749	462.251	370.204	412.388	0.0013411	0.00063681	0.00025346	1357	1.5146e-06	2.5485e-06	1356.2	364.56	5.6488e-06	4.5784e-06	415.66	140.26	121.69	41.396	3.8489e-06	51.142	0.00058412	0.00057866	0.00016294	1386.3	6.325e-06	6.3336e-06	1382.2	374.3	6.3445e-06	6.3669e-06	427.32	143.63	124.65	43.073	6.4514e-06	53.301	120.432	166.937	186.341	129.958	252.758	291.025	129.601	134.635	323.643	162.977	133.858	138.131	138.727	143.611	266.781	142.634	-8191	255	
2513.028	1	1	0	0	0.20136	0.16259	0.13142	0.27247	0.13657	0.21916	0.067977	0.24021	0.14954	0.28212	0.13539	0.066514	0.06415	0.14866	0.10988	0.26057	-0.089583	0.025	0.35208	-0.5875	0.32292	0.0875	-0.69167	0.41458	-0.15	-0.089583	0.23125	-0.38333	0.20417	-0.13125	-0.54167	0.29583	148.687	125.806	414.132	140.841	384.515	404.000	196.789	116.417	371.887	378.321	220.175	125.131	312.539	203.293	198.225	369.186	0.0011077	0.00045215	8.4283e-05	1355.2	2.8312e-06	8.4376e-06	1350.8	365.62	1.2116e-05	5.2092e-06	416.46	139.99	121.35	41.421	1.0162e-05	51.225	0.00059016	0.00059004	0.00016592	1385.6	6.4638e-06	6.5108e-06	1384	375.05	6.4691e-06	6.4949e-06	428.73	143.97	124.8	43.094	6.5057e-06	53.384	124.246	445.158	158.066	129.983	173.521	296.982	129.594	134.358	251.842	179.409	133.895	138.017	138.344	143.419	196.636	142.248	-8191	255	
2513.124	1	1	0	0	0.27656	0.061153	0.10121	0.090613	0.28787	0.10824	0.22676	0.19597	0.19631	0.085717	0.058531	0.12562	0.044014	0.26636	0.17369	0.070398	0.20417	-0.11042	0.29792	-0.59375	0.25417	0.25208	-0.7	0.32083	-0.16875	-0.13333	0.060417	-0.4875	0.022917	0.10208	-0.41667	0.10417	466.862	419.319	252.885	457.270	371.507	344.027	392.910	346.388	271.604	137.143	417.160	426.689	240.222	442.417	392.492	405.788	0.0011551	0.00042565	0.00034334	1350.2	6.6002e-06	5.6286e-06	1353.3	365.19	5.0928e-06	5.6735e-06	416.76	139.92	121.42	41.551	5.5883e-06	51.344	0.00059292	0.00059324	0.00016589	1385.3	6.4297e-06	6.457e-06	1385.2	374.77	6.3911e-06	6.4301e-06	428.93	143.65	124.92	43.11	6.4104e-06	53.235	136.051	182.036	175.947	129.638	274.352	276.292	129.205	134.169	207.151	308.900	133.730	138.138	138.492	143.441	238.511	142.452	-8191	255	
2513.220	1	1	0	0	0.21423	0.057849	0.25105	0.442	0.29733	0.13798	0.13496	0.26625	0.073032	0.20977	0.22555	0.13721	0.22431	0.1428	0.24028	0.09464	0.31042	-0.39583	0.4875	-0.59792	-0.035417	0.26875	-0.6375	0.039583	-0.0041667	-0.49583	0.27917	-0.30625	-0.30833	0.20417	-0.32292	0.14583	257.953	399.857	117.702	443.388	116.643	306.678	410.035	406.970	420.334	452.135	435.119	436.553	201.894	435.971	335.637	181.139	0.0011702	0.00019746	0.00022519	1363.4	7.0065e-06	3.2798e-06	1358.3	367.14	6.5662e-06	6.7286e-06	414.8	140.85	122.02	41.535	7.0075e-07	51.299	0.00059038	0.0005875	0.00016394	1389.3	6.3545e-06	6.4607e-06	1388	375.86	6.3643e-06	6.3882e-06	428.53	143.91	125.24	43.147	6.3849e-06	53.245	123.773	153.770	230.332	129.648	265.324	180.076	129.224	134.033	247.494	301.324	133.693	137.728	138.537	143.296	217.002	142.202	-8191	255	
2513.341	1	1	0	0	0.12601	0.21355	0.18076	0.11347	0.27039	0.025786	0.4052	0.13114	0.054472	0.19114	0.33269	0.15905	0.15173	0.20512	0.079577	0.27194	0.57083	-0.35625	0.33333	-0.48333	-0.016667	0.31042	-0.51875	0.32083	0.28958	-0.51875	0.175	-0.13542	-0.37708	0.28958	-0.34375	-0.06875	473.827	351.970	142.203	467.541	215.871	122.604	406.161	444.291	307.282	409.172	379.368	320.314	426.291	195.295	221.505	401.755	0.0013108	0.00055841	0.00021598	1359.1	6.5378e-06	5.4447e-06	1354.1	365.28	1.1436e-05	1.3121e-06	416.54	140.62	121.91	41.47	3.2967e-06	51.118	0.00059346	0.00058677	0.00016294	1389.6	6.3702e-06	6.413e-06	1385.5	374.77	6.3553e-06	6.3907e-06	428.14	143.89	125.12	43.087	6.3373e-06	53.249	123.233	204.198	226.301	129.892	269.441	244.107	129.295	134.447	253.174	336.911	133.596	137.840	138.372	143.479	297.750	142.424	-8191	255	
2513.435	1	1	0	0	0.22102	0.10905	0.14963	0.40334	0.16084	0.21481	0.28812	0.25746	0.14952	0.35968	0.28051	0.17109	0.41436	0.18193	0.18892	0.09321	0.60833	-0.32917	0.30833	-0.42708	-0.2875	0.41042	-0.70417	-0.12917	0.25833	-0.4125	-0.014583	0.05	-0.54583	0.43333	-0.28542	-0.12292	316.497	286.203	333.919	418.841	415.574	457.801	428.244	371.376	352.679	208.848	395.016	230.128	139.388	457.444	322.802	147.968	0.0013685	0.00025476	0.00021543	1352.4	1.57e-06	4.0576e-06	1357.9	364.87	7.4568e-06	3.0976e-06	415.94	140.57	121.35	41.42	3.9762e-06	51.304	0.00058992	0.00058681	0.00016249	1387.2	6.4586e-06	6.4859e-06	1384	374.18	6.5265e-06	6.4963e-06	428.53	143.82	125.25	43.165	6.5028e-06	53.387	117.583	187.179	270.466	129.807	290.752	401.785	129.656	134.645	267.377	458.886	134.069	138.185	138.518	143.398	177.709	142.290	-8191	255	
2513.533	1	1	0	0	0.15222	0.13736	0.28426	0.10113	0.12292	0.11466	0.17096	0.40788	0.16847	0.16802	0.206	0.24892	0.2849	0.48902	0.12468	0.19803	0.71042	-0.325	0.19167	-0.072917	-0.3125	0.175	-0.36667	-0.52083	0.4625	-0.50208	-0.0083333	0.079167	-0.65417	0.18542	-0.26875	-0.44792	199.591	452.739	167.595	203.797	341.059	338.001	410.726	468.511	162.103	255.469	331.615	138.216	135.983	419.515	328.491	398.551	0.001279	0.00062497	0.00019216	1352.4	3.7436e-06	4.7939e-06	1351.7	363.69	5.4921e-06	1.1746e-06	415.55	140.2	121.76	41.642	3.3765e-06	51.662	0.00060803	0.00059765	0.00016647	1387.7	6.6276e-06	6.6554e-06	1385.5	375.93	6.6272e-06	6.574e-06	429.44	144.26	125.63	43.31	6.535e-06	53.66	473.197	281.961	195.954	129.391	294.148	166.494	129.229	133.643	300.008	119.574	133.042	137.422	137.838	142.695	210.084	142.038	-8191	255	
2513.628	1	1	0	0	0.12451	0.10378	0.25794	0.1091	0.22879	0.39269	0.0642	0.13338	0.14362	0.055829	0.17033	0.075128	0.21593	0.23047	0.15739	0.047264	0.64375	-0.27083	0.18125	0.14583	-0.32917	0.34583	-0.47083	-0.43958	0.55417	-0.39375	0.00625	-0.1	-0.53958	0.14583	-0.14375	-0.44583	317.956	250.987	234.307	403.963	270.411	160.126	402.416	370.757	294.714	352.719	415.054	441.059	420.173	280.536	169.204	190.564	0.0011024	0.0003413	0.00029122	1361.1	1.0325e-05	3.811e-06	1358.2	366.54	2.0851e-06	3.8559e-06	417.02	140.49	121.76	41.45	3.356e-06	51.393	0.00060602	0.00059336	0.00016414	1390.4	6.5158e-06	6.3994e-06	1386.8	375.91	6.4453e-06	6.3613e-06	428.83	143.91	125.18	43.14	6.3727e-06	53.421	121.890	160.876	130.200	129.206	343.815	295.536	128.834	133.623	277.473	142.499	133.093	137.420	137.851	142.484	237.659	142.063	-8191	255	
2513.724	1	1	0	0	0.19733	0.080641	0.19253	0.16152	0.18152	0.093602	0.16659	0.28358	0.20974	0.14272	0.13706	0.24519	0.33872	0.3101	0.11407	0.23423	0.66667	-0.37708	0.010417	0.079167	-0.2	0.20208	-0.1875	-0.6625	0.48125	-0.31667	-0.43333	0.25208	-0.73542	0.070833	0.0125	-0.625	296.161	383.185	185.816	268.819	277.820	149.056	459.776	271.535	223.272	454.256	359.317	464.353	445.780	145.789	348.092	419.990	0.0010918	0.00051143	0.00033724	1360.1	3.7189e-06	6.7276e-06	1353.6	366.08	5.8976e-06	2.436e-07	415.19	139.86	121.45	41.56	7.6442e-06	51.306	0.00059552	0.00058253	0.00016397	1390.4	6.507e-06	6.4166e-06	1385.6	375.73	6.4501e-06	6.398e-06	428.22	144	125.01	43.059	6.4361e-06	53.298	126.417	280.202	218.947	129.197	207.941	236.388	129.110	133.574	192.527	173.884	133.251	137.321	138.090	142.668	185.197	141.590	-8191	255	
2513.820	1	1	0	0	0.094476	0.24336	0.11751	0.13522	0.11018	0.087956	0.11643	0.093012	0.19034	0.095592	0.20992	0.25773	0.090157	0.21136	0.15436	0.061663	0.87292	-0.24375	-0.25208	0.2375	-0.39167	0.22708	0.010417	-0.62083	0.28542	-0.16458	-0.38958	0.125	-0.60625	-0.075	0.19375	-0.55625	345.327	353.527	364.828	438.765	330.385	123.945	371.702	313.290	393.559	355.733	415.010	439.500	372.334	434.476	410.075	392.142	0.0010051	0.00085425	0.0001898	1349.2	7.5595e-06	3.7068e-06	1350.6	363.78	6.2733e-06	2.7324e-06	414.81	140.06	121.02	41.404	5.5383e-06	51.179	0.00058518	0.00057511	0.00016052	1383.5	6.2841e-06	6.2429e-06	1380.1	373.65	6.2286e-06	6.2624e-06	427.27	143.46	124.52	42.947	6.3842e-06	53.18	116.175	136.361	324.953	129.320	303.197	170.047	128.875	133.683	281.365	214.167	133.130	137.385	137.851	142.862	205.651	141.774	-8191	255	
2513.941	1	1	0	0	0.15398	0.26047	0.20772	0.35001	0.019073	0.097218	0.17923	0.22203	0.11624	0.20769	0.17961	0.20283	0.29095	0.26569	0.2633	0.14363	0.6125	0.097917	-0.17292	0.27083	-0.20208	0.020833	0.14792	-0.80417	0.19375	-0.0125	-0.5625	0.24792	-0.575	-0.25417	0.33125	-0.67083	442.226	323.387	244.680	153.198	175.953	455.250	398.735	462.673	423.262	324.357	452.083	468.665	442.613	447.783	316.280	231.541	0.00097093	0.00035024	0.00016343	1353.2	2.1489e-06	6.6316e-06	1350.6	363.88	2.7972e-06	6.8064e-06	414.54	139.57	120.64	41.356	1.3906e-06	51.385	0.00058126	0.00058086	0.00016325	1383.3	6.3258e-06	6.3957e-06	1379.5	373.83	6.4166e-06	6.3718e-06	427.67	143.32	124.25	42.896	6.4367e-06	53.286	466.375	183.931	475.507	129.300	233.418	277.348	128.924	133.798	280.283	281.752	133.250	137.298	137.829	142.815	474.524	141.694	-8191	255	
2514.037	1	1	0	0	0.16684	0.21233	0.14391	0.27912	0.28142	0.12771	0.3113	0.12158	0.18943	0.21556	0.096591	0.29552	0.12597	0.17999	0.22908	0.1721	0.63125	-0.1375	-0.50208	0.2625	-0.4125	-0.2625	0.047917	-0.77083	0.14167	0.10625	-0.6	0.23333	-0.4375	-0.35	0.27292	-0.45	147.117	310.317	283.058	145.212	346.649	454.452	378.281	294.046	455.173	259.364	386.847	456.043	365.395	463.671	467.715	220.083	0.001027	0.00020586	0.00013737	1348.8	3.8532e-06	1.4239e-06	1348.5	366	2.0448e-06	5.3597e-06	415.27	139.09	121.47	41.224	2.6634e-06	51.151	0.0005898	0.00059026	0.00016633	1382.4	6.4314e-06	6.4913e-06	1382.1	374.89	6.3494e-06	6.405e-06	428.22	143.19	124.85	42.898	6.3669e-06	53.083	116.782	410.906	243.811	129.258	245.142	429.069	129.124	133.691	247.079	253.320	133.111	137.516	138.129	142.742	163.715	142.021	-8191	255	
2514.133	1	1	0	0	0.14673	0.10566	0.033448	0.060899	0.24881	0.22676	0.165	0.24654	0.016621	0.16724	0.13648	0.30117	0.10484	0.11008	0.089093	0.34747	0.38542	0.28542	-0.56042	0.13958	-0.18125	-0.14375	0.25417	-0.69583	0.2875	0.20625	-0.57708	0.32708	-0.12083	-0.47708	0.56667	-0.54375	212.424	328.660	409.969	369.036	432.827	151.221	438.767	145.487	423.764	259.461	379.598	392.614	424.647	449.976	270.502	432.939	0.00097964	0.00094916	0.00024897	1350.8	8.2399e-06	5.1076e-06	1348.6	364.68	4.3584e-06	5.2725e-06	414.97	139.13	121.49	41.412	1.5977e-06	50.916	0.0005749	0.00057328	0.0001589	1378.7	6.1959e-06	6.2092e-06	1377	372.97	6.1841e-06	6.3076e-06	427.18	142.83	124.48	42.926	6.3763e-06	53.095	120.898	165.206	462.967	129.341	227.532	230.427	129.124	133.971	276.410	258.772	133.297	137.487	138.144	143.182	201.662	142.015	-8191	255	
2514.229	1	1	0	0	0.18338	0.12406	0.054832	0.2922	0.082095	0.15701	0.12774	0.15183	0.21571	0.16735	0.063769	0.053095	0.10813	0.2935	0.2127	0.15938	0.26042	0.28958	-0.50417	0.060417	-0.04375	-0.27083	0.19167	-0.3875	0.00625	0.35	-0.57917	-0.08125	-0.066667	-0.55	0.29583	-0.35625	177.494	306.354	215.138	436.898	234.274	167.262	369.918	189.814	266.281	443.340	330.423	398.789	318.346	134.462	416.436	135.257	0.001273	8.3207e-05	0.00025906	1347.6	8.9255e-06	7.9107e-06	1348.4	364.76	7.7468e-06	5.8645e-06	413.66	139.65	121.75	41.397	4.6499e-06	51.372	0.00059125	0.00059253	0.00016422	1379.2	6.4898e-06	6.5477e-06	1379.9	374.46	6.5278e-06	6.5312e-06	427.58	143.36	124.99	43.015	6.4587e-06	53.298	121.500	268.989	212.124	129.264	307.035	266.506	128.941	133.804	243.833	190.954	133.355	137.342	138.259	142.901	192.977	142.043	-8191	255	
#DATA ENDS
