BOXY.EXE: ISS Imagent and Oximeter Data Acquisition Program Version 0.80
Ascii Record File

#ACQ INFORMATION
2  Detector Channels 
16  External MUX Channels 
1  Auxiliary Channels 
5000  Waveform (CCF) Frequency (Hz)
1  Waveforms Skipped 
30  Waveforms Averaged 
1  Cycles Averaged 
16  Acquisitions per Waveform 
10.0806  Updata Rate (Hz) 

#FILE INFORMATION
TRUE -- External MUX Channel results are PARSED.
FALSE -- AC DC and Phase are NOT grouped.
TRUE -- Companion Program Settings File CREATED.
FALSE -- AC data not excluded
FALSE -- DC data not excluded
FALSE -- Phase data not excluded
FALSE -- Auxillary Chn. data not excluded
Tab delimiters

#CALIBRATION STATE
TRUE -- Waveform Calibration Values APPLIED.


#AUX CALIBRATION VALUES
Val Type	aux-1	

Term	1.0000e+00	
Factor	0.0000e+00	


#WF CALIBRATION VALUES
A = Detector Channel
Val Type	A-AC1	A-AC2	A-AC3	A-AC4	A-AC5	A-AC6	A-AC7	A-AC8	A-AC9	A-AC10	A-AC11	A-AC12	A-AC13	A-AC14	A-AC15	A-AC16	A-DC1	A-DC2	A-DC3	A-DC4	A-DC5	A-DC6	A-DC7	A-DC8	A-DC9	A-DC10	A-DC11	A-DC12	A-DC13	A-DC14	A-DC15	A-DC16	A-Ph1	A-Ph2	A-Ph3	A-Ph4	A-Ph5	A-Ph6	A-Ph7	A-Ph8	A-Ph9	A-Ph10	A-Ph11	A-Ph12	A-Ph13	A-Ph14	A-Ph15	A-Ph16	

Term	0.00000e+00	0.00000e+00	0.00000e+00	0.00000e+00	0.00000e+00	0.00000e+00	0.00000e+00	0.00000e+00	0.00000e+00	0.00000e+00	0.00000e+00	0.00000e+00	0.00000e+00	0.00000e+00	0.00000e+00	0.00000e+00	0.00000e+00	0.00000e+00	0.00000e+00	0.00000e+00	0.00000e+00	0.00000e+00	0.00000e+00	0.00000e+00	0.00000e+00	0.00000e+00	0.00000e+00	0.00000e+00	0.00000e+00	0.00000e+00	0.00000e+00	0.00000e+00	0.00000e+00	0.00000e+00	0.00000e+00	0.00000e+00	0.00000e+00	0.00000e+00	0.00000e+00	0.00000e+00	0.00000e+00	0.00000e+00	0.00000e+00	0.00000e+00	0.00000e+00	0.00000e+00	0.00000e+00	0.00000e+00	
Factor	1.00000e+00	1.00000e+00	1.00000e+00	1.00000e+00	1.00000e+00	1.00000e+00	1.00000e+00	1.00000e+00	1.00000e+00	1.00000e+00	1.00000e+00	1.00000e+00	1.00000e+00	1.00000e+00	1.00000e+00	1.00000e+00	1.00000e+00	1.00000e+00	1.00000e+00	1.00000e+00	1.00000e+00	1.00000e+00	1.00000e+00	1.00000e+00	1.00000e+00	1.00000e+00	1.00000e+00	1.00000e+00	1.00000e+00	1.00000e+00	1.00000e+00	1.00000e+00	X	X	X	X	X	X	X	X	X	X	X	X	X	X	X	X	

B = Detector Channel
Val Type	B-AC1	B-AC2	B-AC3	B-AC4	B-AC5	B-AC6	B-AC7	B-AC8	B-AC9	B-AC10	B-AC11	B-AC12	B-AC13	B-AC14	B-AC15	B-AC16	B-DC1	B-DC2	B-DC3	B-DC4	B-DC5	B-DC6	B-DC7	B-DC8	B-DC9	B-DC10	B-DC11	B-DC12	B-DC13	B-DC14	B-DC15	B-DC16	B-Ph1	B-Ph2	B-Ph3	B-Ph4	B-Ph5	B-Ph6	B-Ph7	B-Ph8	B-Ph9	B-Ph10	B-Ph11	B-Ph12	B-Ph13	B-Ph14	B-Ph15	B-Ph16	

Term	0.00000e+00	0.00000e+00	0.00000e+00	0.00000e+00	0.00000e+00	0.00000e+00	0.00000e+00	0.00000e+00	0.00000e+00	0.00000e+00	0.00000e+00	0.00000e+00	0.00000e+00	0.00000e+00	0.00000e+00	0.00000e+00	0.00000e+00	0.00000e+00	0.00000e+00	0.00000e+00	0.00000e+00	0.00000e+00	0.00000e+00	0.00000e+00	0.00000e+00	0.00000e+00	0.00000e+00	0.00000e+00	0.00000e+00	0.00000e+00	0.00000e+00	0.00000e+00	-2.96995e+01	-1.33769e+02	-1.26516e+02	-1.84058e+02	-3.99527e+01	-6.47538e+01	-1.56688e+02	-1.62015e+02	-4.30249e+01	-7.73077e+01	-1.71935e+02	-1.70049e+02	-1.80086e+02	-1.77848e+02	-5.58511e+01	-1.50534e+02	
Factor	2.88775e-05	1.68689e-04	4.92294e-05	1.52286e-01	1.73567e-06	1.67541e-06	1.71212e-01	6.27324e-02	1.47108e-06	2.05293e-06	9.73605e-02	3.15056e-02	2.51475e-02	1.01407e-02	1.80213e-06	1.43710e-02	4.62138e-06	5.26198e-06	1.46997e-06	7.92126e-02	5.64241e-08	5.80173e-08	8.33705e-02	3.25776e-02	5.66462e-08	5.81525e-08	4.88203e-02	1.58724e-02	1.31955e-02	5.30411e-03	5.73294e-08	7.26215e-03	X	X	X	X	X	X	X	X	X	X	X	X	X	X	X	X	



#DISTANCE SETTINGS
A = Detector Channel
A-1	A-2	A-3	A-4	A-5	A-6	A-7	A-8	A-9	A-10	A-11	A-12	A-13	A-14	A-15	A-16	

2.5000e+00	3.0000e+00	2.5000e+00	3.0000e+00	2.0000e+00	3.0000e+00	1.5000e+00	3.0000e+00	3.0000e+00	3.0000e+00	3.0000e+00	3.0000e+00	3.0000e+00	3.0000e+00	1.5000e+00	3.0000e+00	

B = Detector Channel
B-1	B-2	B-3	B-4	B-5	B-6	B-7	B-8	B-9	B-10	B-11	B-12	B-13	B-14	B-15	B-16	

1.0000e+01	1.0000e+01	1.0000e+01	1.4400e+00	1.0000e+01	1.0000e+01	1.5100e+00	1.9400e+00	1.0000e+01	1.0000e+01	1.9900e+00	2.4900e+00	2.4100e+00	2.9000e+00	1.0000e+01	2.9800e+00	




#DATA BEGINS
time	group	step	mark	flag	A-AC1	A-AC2	A-AC3	A-AC4	A-AC5	A-AC6	A-AC7	A-AC8	A-AC9	A-AC10	A-AC11	A-AC12	A-AC13	A-AC14	A-AC15	A-AC16	A-DC1	A-DC2	A-DC3	A-DC4	A-DC5	A-DC6	A-DC7	A-DC8	A-DC9	A-DC10	A-DC11	A-DC12	A-DC13	A-DC14	A-DC15	A-DC16	A-Ph1	A-Ph2	A-Ph3	A-Ph4	A-Ph5	A-Ph6	A-Ph7	A-Ph8	A-Ph9	A-Ph10	A-Ph11	A-Ph12	A-Ph13	A-Ph14	A-Ph15	A-Ph16	B-AC1	B-AC2	B-AC3	B-AC4	B-AC5	B-AC6	B-AC7	B-AC8	B-AC9	B-AC10	B-AC11	B-AC12	B-AC13	B-AC14	B-AC15	B-AC16	B-DC1	B-DC2	B-DC3	B-DC4	B-DC5	B-DC6	B-DC7	B-DC8	B-DC9	B-DC10	B-DC11	B-DC12	B-DC13	B-DC14	B-DC15	B-DC16	B-Ph1	B-Ph2	B-Ph3	B-Ph4	B-Ph5	B-Ph6	B-Ph7	B-Ph8	B-Ph9	B-Ph10	B-Ph11	B-Ph12	B-Ph13	B-Ph14	B-Ph15	B-Ph16	aux-1	digaux	

1624.367	1	1	0	512	0.24312	0.21445	0.23882	0.29631	0.13069	0.32883	0.10301	0.32372	0.1465	0.45837	0.13388	0.26258	0.24357	0.12358	0.19252	0.4357	0.94792	-0.035417	0.016667	0.42292	-0.11458	0.39792	0.23542	-0.53958	0.5375	-0.06875	0.0875	0.47292	-0.21667	0.17917	0.5375	-0.36875	194.837	301.170	172.094	356.282	77.560	388.164	64.187	366.120	414.228	144.998	128.906	365.350	79.960	367.581	161.393	371.129	0.00090235	0.000333	0.00012189	649.93	1.0236e-05	1.1616e-05	659.88	243.29	7.5804e-06	8.3634e-06	277.61	142.36	130.78	69.345	9.594e-06	74.159	0.0014266	0.0015089	0.00041603	659.36	1.631e-05	1.6779e-05	663.83	247.72	1.6256e-05	1.6852e-05	284.18	143.54	132.42	70.253	1.6523e-05	74.862	254.978	202.667	101.354	72.627	259.677	207.149	71.093	77.833	231.047	189.952	74.850	78.494	81.495	85.235	198.115	81.314	-8191	255	
1624.486	1	1	0	0	0.084105	0.076995	0.13252	0.26591	0.13901	0.13364	0.21145	0.28109	0.24876	0.24176	0.060553	0.26524	0.16945	0.29481	0.16346	0.26569	0.77292	0.0875	0	0.46458	-0.10833	0.070833	0.16042	-0.34792	0.525	0.10417	-0.2375	0.61875	-0.35625	0.033333	0.56667	-0.27917	377.270	210.543	205.190	91.626	228.040	150.657	219.189	282.267	391.393	73.080	344.039	347.711	413.341	76.493	389.362	364.411	0.00088308	0.001019	5.4114e-05	652.08	5.6848e-06	8.3892e-06	659.52	243.28	4.039e-06	1.0509e-05	279.76	142.74	131.02	69.091	7.8989e-06	74.881	0.0014443	0.001528	0.00041787	658.69	1.6439e-05	1.6592e-05	665.69	248.29	1.6367e-05	1.6725e-05	285.92	144.1	132.57	70.258	1.6372e-05	75.407	253.509	137.367	392.798	73.134	272.602	167.368	71.658	78.565	220.419	76.837	75.868	79.131	82.232	85.812	302.310	81.777	-8191	255	
1624.582	1	1	0	0	0.17648	0.25399	0.20616	0.10135	0.188	0.17761	0.098966	0.19514	0.34037	0.032355	0.25323	0.29278	0.14773	0.23128	0.16427	0.20672	0.72083	0.24792	-0.275	0.38542	-0.0041667	0.054167	0.39167	-0.44792	0.41042	0.36667	-0.12917	0.33125	-0.16875	-0.1125	0.55208	-0.43125	347.583	402.940	119.360	68.571	239.769	216.064	257.753	313.942	238.790	289.377	344.921	85.249	141.545	385.103	101.222	187.547	0.00089149	0.00068145	0.00020792	652.72	6.5868e-06	9.1409e-06	663.02	243.89	4.4034e-06	1.6435e-06	278.09	142.24	130.96	69.766	1.0811e-05	75.308	0.001455	0.0015185	0.00042232	660.08	1.6177e-05	1.6933e-05	668.47	247.65	1.641e-05	1.6811e-05	285.41	144.05	132.43	70.536	1.6697e-05	75.865	252.789	174.439	184.155	72.776	229.484	253.761	71.431	78.545	245.567	256.093	75.133	79.125	81.932	85.832	230.589	81.825	-8191	255	
1624.678	1	1	0	0	0.26634	0.15249	0.064276	0.1852	0.12027	0.15299	0.28536	0.38197	0.41025	0.12858	0.17161	0.060041	0.53145	0.12232	0.18632	0.041476	0.6875	0.25417	-0.1875	0.34792	0.022917	-0.029167	0.52083	-0.375	0.17917	0.18542	-0.45625	0.47708	-0.12917	-0.27083	0.275	-0.23125	187.800	330.947	418.259	400.063	231.028	303.974	297.150	314.812	255.984	277.425	72.272	198.112	386.109	406.007	97.876	390.365	0.0010136	4.5095e-05	9.8636e-05	648.77	4.69e-06	2.7098e-06	663.46	242.39	3.8425e-06	1.0669e-05	277.77	142.38	131.11	70.058	6.6294e-06	75.111	0.0014586	0.001545	0.00042892	661.01	1.6519e-05	1.6796e-05	668.7	247.25	1.68e-05	1.6861e-05	284.22	143.74	132.35	70.76	1.672e-05	75.655	256.219	71.042	98.568	72.551	263.395	364.237	71.675	78.844	167.625	126.588	75.406	78.957	81.916	85.694	223.441	81.610	-8191	255	
1624.799	1	1	0	0	0.12182	0.12321	0.14189	0.34678	0.06093	0.053183	0.42935	0.44745	0.022663	0.11408	0.089694	0.20206	0.083925	0.21302	0.121	0.36989	0.45208	0.29792	-0.17083	0.36458	0.23125	-0.091667	0.50417	-0.29792	0.020833	0.41458	-0.30833	0.20625	0.1875	-0.025	0.625	-0.085417	354.789	88.692	210.631	354.867	417.017	184.999	100.621	345.383	124.200	360.864	261.378	86.555	404.782	70.044	165.644	376.426	0.00089613	0.0010378	0.00027864	649.45	4.0668e-06	3.7861e-06	653	243.12	6.4671e-06	1.3611e-05	277.95	141.62	130.59	69.661	2.1265e-06	74.662	0.00145	0.0015449	0.00042373	657.67	1.6448e-05	1.6679e-05	659.37	248.01	1.6402e-05	1.6635e-05	283.84	143.38	132.22	70.593	1.6575e-05	75.275	260.401	153.005	141.998	72.985	153.934	253.696	71.223	78.587	274.250	143.921	75.676	78.979	81.852	85.464	166.957	81.335	-8191	255	
1624.895	1	1	0	0	0.12969	0.052338	0.076688	0.22686	0.2163	0.17893	0.5205	0.25833	0.067311	0.10909	0.34122	0.11126	0.23729	0.057815	0.11589	0.16931	0.25833	0.575	-0.12708	0.26875	0.42917	-0.44583	0.38542	-0.15625	-0.0125	0.57708	-0.29375	0.43125	0.36875	-0.52083	0.59792	-0.13958	172.855	259.359	65.790	398.632	330.630	82.570	349.194	362.698	121.057	289.214	348.377	328.325	330.969	350.610	136.069	63.391	0.00088668	0.00067334	0.00011818	651.16	4.4509e-06	2.6973e-06	656.16	243.05	7.6911e-06	1.1144e-05	277.67	142.59	130.5	69.373	1.1294e-05	74.771	0.0014345	0.0015055	0.00042156	658.69	1.6258e-05	1.6487e-05	662.07	247.94	1.6249e-05	1.6269e-05	284.25	143.2	131.97	70.486	1.6542e-05	75.288	255.850	158.798	186.719	72.480	216.494	376.215	71.058	78.375	274.669	179.970	75.476	79.301	82.155	85.486	218.551	81.495	-8191	255	
1624.967	1	1	0	0	0.19191	0.25101	0.13511	0.23583	0.20306	0.25454	0.25399	0.20086	0.20981	0.10524	0.12257	0.1451	0.27183	0.25712	0.080254	0.42641	0.42917	0.62292	-0.12292	0.27292	0.30417	-0.27083	0.40625	0.0375	-0.1875	0.525	-0.11667	0.010417	0.47917	-0.3125	0.43333	-0.020833	245.891	405.954	192.252	376.216	339.346	363.396	368.416	271.665	278.095	418.051	336.828	380.494	320.474	383.582	110.263	374.032	0.00091572	0.00071704	0.00032603	649.34	1.1617e-05	3.2973e-06	661.49	242.08	5.6587e-06	1.0515e-05	276.04	140	128.89	69.309	5.3467e-06	74.108	0.001416	0.0014991	0.00042285	657.06	1.6021e-05	1.6403e-05	664.3	246.55	1.6043e-05	1.6655e-05	283.67	142.8	131.15	70.516	1.657e-05	75.286	253.402	141.686	124.821	72.810	272.079	202.870	71.345	78.604	300.266	139.821	76.093	79.561	82.370	86.092	228.662	82.080	-8191	255	
1625.088	1	1	0	0	0.21233	0.075331	0.20036	0.1578	0.17019	0.23034	0.1957	0.076237	0.19246	0.28719	0.2609	0.10051	0.093549	0.14094	0.09657	0.083741	0.097917	0.48125	-0.12917	-0.03125	0.41667	-0.44375	0.375	0.08125	-0.19792	0.47917	-0.079167	-0.01875	0.45833	-0.45	0.47708	0.19375	169.072	133.954	174.871	73.416	331.837	184.436	333.770	364.103	309.893	81.020	148.000	362.379	378.849	204.185	124.062	330.589	0.0010028	0.00091937	0.00024737	644.77	7.9945e-06	7.8851e-06	660.1	241.92	6.2086e-06	4.456e-06	276.6	141.08	129.2	69.843	8.3913e-06	74.535	0.0014139	0.0015027	0.00042653	656.84	1.6287e-05	1.6509e-05	664.75	245.42	1.6212e-05	1.6801e-05	282.56	142.55	130.7	70.435	1.6683e-05	75.159	262.191	157.290	203.869	73.211	227.879	191.162	71.693	78.672	260.454	263.264	75.548	78.705	81.888	85.475	183.092	81.169	-8191	255	
1625.182	1	1	0	0	0.30152	0.16237	0.11528	0.32653	0.0050298	0.12487	0.19164	0.25903	0.13566	0.24457	0.13442	0.2119	0.30762	0.24435	0.11589	0.28034	-0.0625	0.63958	0.033333	0.066667	0.6625	-0.26875	0.2625	0.32083	-0.38125	0.47917	0.025	-0.039583	0.50833	-0.275	0.20208	0.03125	257.234	300.972	295.702	377.098	78.075	155.509	263.770	398.757	356.193	402.603	88.935	396.028	365.218	373.747	244.353	98.324	0.00096304	0.0011383	0.00012783	644.61	3.2857e-06	5.9007e-06	648.91	240.01	5.9638e-06	7.6774e-06	272.81	140.79	128.49	69.432	7.2804e-06	74.384	0.0014236	0.001527	0.00042517	654.52	1.6237e-05	1.6639e-05	656.12	243.89	1.6271e-05	1.6837e-05	279.61	141.68	130.14	70.259	1.6565e-05	75.055	253.612	100.361	201.663	72.419	310.118	170.897	71.247	78.609	224.016	183.874	75.377	78.744	81.726	85.990	206.593	81.291	-8191	255	
1625.278	1	1	0	0	0.42494	0.091455	0.16732	0.20287	0.24816	0.23674	0.27382	0.074977	0.098757	0.18968	0.17702	0.090777	0.21119	0.34753	0.26815	0.050538	0.072917	0.49583	0.11667	-0.17292	0.69583	-0.42917	0.12292	0.43333	-0.34583	0.42292	0.13333	-0.25	0.37708	-0.2625	0.16042	0.45625	382.680	317.396	330.211	316.236	227.016	95.368	286.487	362.647	220.820	191.137	334.205	316.538	330.530	67.475	149.658	320.685	0.00081726	0.00054614	0.00028297	648.73	4.042e-06	5.1933e-06	659.12	239.48	1.5902e-06	8.2059e-06	273.85	141.56	128.34	69.317	1.9719e-06	74.518	0.0014377	0.0015279	0.00042779	656.72	1.6404e-05	1.6816e-05	662.27	243.72	1.6425e-05	1.6828e-05	280.81	142.51	130.34	70.429	1.6627e-05	75.165	261.775	124.390	163.594	72.731	197.046	182.312	71.584	78.549	327.838	231.997	75.997	79.217	82.258	85.870	276.762	81.805	-8191	255	
1625.374	1	1	0	0	0.13665	0.26203	0.21653	0.1318	0.036189	0.15049	0.056187	0.26771	0.11827	0.13811	0.13967	0.096176	0.3175	0.16632	0.26615	0.19717	0.14375	0.55	0.10208	-0.32083	0.47083	-0.10417	-0.18958	0.53125	-0.30208	0.36667	0.27292	-0.3125	0.31875	-0.11458	-0.054167	0.29375	351.375	322.647	348.812	105.414	124.649	389.628	111.107	322.779	277.562	168.841	270.582	339.006	67.167	361.074	86.457	96.700	0.00097384	0.00081722	0.00010027	643.29	5.0111e-06	5.1812e-06	659.92	240.87	9.1618e-06	1.1363e-05	276.72	141.82	129.43	69.726	8.2074e-06	74.674	0.0014616	0.0015232	0.00042469	655.4	1.6347e-05	1.6839e-05	664.19	244.76	1.6423e-05	1.6965e-05	283.01	143.19	131.05	70.697	1.6532e-05	75.71	256.134	164.310	231.635	72.953	169.800	265.923	71.495	78.350	235.295	212.186	75.343	79.077	81.826	86.095	220.889	82.262	-8191	255	
1625.495	1	1	0	0	0.25892	0.05771	0.10557	0.68735	0.099089	0.41301	0.13683	0.12933	0.062987	0.021405	0.066616	0.27849	0.15321	0.078828	0.29125	0.137	-0.072917	0.18125	0.39583	-0.29375	0.50417	-0.1125	-0.15	0.52083	-0.15417	0.13958	0.43542	-0.30208	0.53542	0.0375	-0.045833	0.37708	215.772	363.872	256.008	349.054	193.912	245.434	387.145	157.964	373.372	197.805	122.016	397.049	373.884	289.969	142.557	102.864	0.0009761	0.0010975	0.00031531	645.09	5.0164e-06	6.4493e-06	659.51	239.81	9.3349e-06	3.9735e-06	273.98	140.81	129.24	69.364	1.3321e-05	73.894	0.0014539	0.0015125	0.00042527	655.88	1.6427e-05	1.6626e-05	663.15	244.52	1.6623e-05	1.6643e-05	280.84	142.53	130.92	70.411	1.6428e-05	75.093	250.882	108.616	165.364	73.133	210.966	183.704	71.595	78.925	207.977	185.155	76.043	79.371	82.192	86.125	273.013	81.851	-8191	255	
1625.591	1	1	0	0	0.34407	0.06311	0.33655	0.34734	0.21679	0.18088	0.25105	0.27027	0.35141	0.26267	0.2222	0.14744	0.25079	0.3409	0.27591	0.30327	0.14375	0.16667	0.4125	-0.35625	0.42083	0.23958	-0.29167	0.63542	-0.0375	0.072917	0.43542	-0.49375	0.32292	0.12083	-0.36458	0.61458	194.060	418.970	95.670	180.198	67.944	72.140	350.542	207.681	397.365	202.581	388.395	390.958	380.206	91.103	343.828	346.557	0.00089401	0.00039021	0.00020913	645.66	6.6575e-06	7.5476e-06	652.57	239.95	6.9337e-06	1.0642e-05	276.75	141.42	129.32	69.365	4.9047e-06	74.651	0.001469	0.0015175	0.00042015	654.09	1.6367e-05	1.6797e-05	658.35	244.72	1.6509e-05	1.6724e-05	281.43	142.51	130.69	70.344	1.6395e-05	75.409	255.932	176.647	130.773	73.176	216.530	144.464	71.675	78.715	268.773	182.598	75.425	79.422	82.131	86.105	293.555	81.363	-8191	255	
1625.663	1	1	0	0	0.21257	0.099532	0.10328	0.17621	0.24571	0.047955	0.038355	0.18527	0.2734	0.22331	0.12013	0.065772	0.2949	0.28639	0.15706	0.28285	0.23125	0.072917	0.35625	-0.33333	0.31458	0.26667	-0.28542	0.47708	0.027083	-0.16667	0.475	-0.39375	-0.0020833	0.43125	-0.32292	0.39583	257.569	218.191	240.146	354.611	98.514	312.129	376.253	324.846	408.710	325.791	404.086	388.896	341.669	347.169	118.660	368.505	0.00092486	0.00027377	0.00010796	643.6	9.9101e-06	2.6744e-06	654.26	239.39	1.836e-06	9.0293e-06	274.25	141.59	129.22	69.561	7.9092e-06	75.462	0.0014602	0.001496	0.00042351	653.83	1.6292e-05	1.6507e-05	661.47	244.35	1.6319e-05	1.6579e-05	281.53	142.51	130.93	70.58	1.6544e-05	75.887	260.077	376.531	168.155	73.154	219.893	301.797	71.444	78.826	339.271	183.724	75.546	79.243	82.116	85.640	214.873	81.543	-8191	255	
1625.759	1	1	0	0	0.26864	0.042328	0.27832	0.41771	0.089804	0.22673	0.10573	0.16788	0.018541	0.21722	0.10241	0.40814	0.21728	0.15151	0.13698	0.31443	0.56042	0.054167	0.775	-0.24167	0.066667	0.35208	-0.51875	0.43125	0.12708	-0.16458	0.48333	-0.10417	-0.13333	0.34583	-0.15208	0.275	286.478	298.116	181.874	376.296	316.912	252.171	259.822	342.375	341.330	367.916	117.155	336.765	350.203	352.483	302.703	257.774	0.00091098	0.00074619	0.00024072	651.08	7.1655e-06	7.1481e-06	660.57	240.2	4.8408e-06	3.5098e-06	277.46	143.14	129.77	69.951	6.2491e-06	75.087	0.0014528	0.0014951	0.00042297	657.32	1.6171e-05	1.657e-05	665.38	245.17	1.6437e-05	1.6486e-05	283.61	143.87	131.16	70.762	1.6715e-05	75.86	252.342	149.578	101.316	72.810	299.880	243.126	71.406	78.846	291.206	113.664	75.287	79.448	81.881	85.691	251.653	81.601	-8191	255	
1625.879	1	1	0	0	0.18691	0.093539	0.29154	0.1288	0.31892	0.031053	0.19117	0.28659	0.16177	0.06941	0.20963	0.15765	0.07562	0.17944	0.15965	0.19084	0.61875	-0.11667	0.61875	-0.22917	0.12083	0.50417	-0.36875	0.32292	0.35625	-0.045833	0.42292	-0.16667	-0.039583	0.38542	-0.37083	0.14792	66.010	80.566	100.301	324.737	191.349	364.412	413.698	346.503	235.955	290.178	258.596	357.718	285.113	75.301	210.110	329.464	0.00082436	0.0005027	0.00012097	647.01	6.2501e-06	6.2714e-06	655.46	240.42	6.4567e-06	8.4925e-06	275.05	141	128.73	69.883	1.8972e-06	74.746	0.0014258	0.0015039	0.00042458	657.14	1.61e-05	1.6437e-05	664.06	244.42	1.612e-05	1.6607e-05	281.38	142.69	130.87	70.841	1.6762e-05	75.66	256.579	159.383	122.968	72.553	274.838	287.222	71.624	78.325	248.022	166.479	75.814	79.123	82.184	85.914	364.283	81.997	-8191	255	
1625.976	1	1	0	0	0.078766	0.083231	0.048762	0.13921	0.16389	0.20485	0.19781	0.085704	0.058788	0.19846	0.17125	0.14789	0.21167	0.096076	0.09522	0.23485	0.64792	-0.40417	0.68958	-0.10833	-0.022917	0.55833	-0.12292	0.047917	0.45208	-0.12917	0.4125	-0.08125	-0.18542	0.54583	-0.10417	0.075	351.109	126.964	214.521	401.641	237.299	172.314	320.195	278.587	364.725	73.088	306.610	372.337	92.451	410.213	134.931	372.538	0.0007335	0.00041733	0.00021833	646.64	2.7885e-06	6.235e-06	657.72	239.26	1.0386e-05	9.0458e-06	274.4	141.57	129.72	69.825	5.1268e-06	75.214	0.0014393	0.001509	0.00042527	654.76	1.6172e-05	1.6604e-05	661.86	243.9	1.6046e-05	1.6702e-05	281.1	142.87	130.92	70.798	1.6599e-05	75.949	261.392	191.347	134.752	72.993	151.469	268.789	71.551	78.505	229.154	230.231	75.719	79.248	81.886	85.418	273.042	81.337	-8191	255	
1626.072	1	1	0	0	0.15982	0.21053	0.19978	0.055597	0.010722	0.19228	0.16733	0.26989	0.19917	0.24492	0.19018	0.10002	0.12388	0.36116	0.071905	0.27097	0.69583	-0.1875	0.49375	0.13958	-0.22917	0.52917	-0.32917	0.04375	0.49375	-0.375	0.2625	0.20208	-0.24583	0.62083	-0.14792	-0.13542	268.550	395.994	175.227	230.869	310.391	416.943	109.141	299.906	210.975	268.316	207.974	371.710	166.576	92.518	376.188	344.857	0.00089238	0.00079967	0.00035268	642.7	1.6389e-06	5.2835e-06	657.78	240.7	6.4261e-06	5.8421e-06	273.28	141.41	128.88	70.163	1.3464e-05	75.513	0.0014226	0.001517	0.00042234	653.17	1.6011e-05	1.6587e-05	660.88	244.44	1.6071e-05	1.6803e-05	280.73	142.71	130.14	70.961	1.6613e-05	76.102	259.127	154.201	151.872	72.683	229.254	199.797	71.495	78.801	196.135	181.175	75.241	78.875	81.755	85.109	198.765	81.334	-8191	255	
1626.168	1	1	0	0	0.17119	0.25033	0.2001	0.088719	0.17849	0.049491	0.060774	0.05597	0.080836	0.096621	0.030045	0.23084	0.18002	0.22513	0.31606	0.34953	1	-0.31042	0.45	0.30625	-0.079167	0.3875	-0.25833	-0.066667	0.57917	-0.31042	0.089583	0.34583	-0.40208	0.30208	-0.041667	-0.19375	89.641	379.220	314.601	274.698	407.454	95.287	349.870	288.333	236.397	280.905	253.749	289.733	67.704	386.136	235.793	342.000	0.00080779	0.00040536	0.00023471	644.61	5.1145e-06	1.0576e-05	660.47	238.83	5.5056e-06	1.2899e-05	273.44	141.31	128.05	69.996	5.2152e-06	75.769	0.0014205	0.001503	0.00041692	652.51	1.6023e-05	1.6628e-05	663.35	243.79	1.6259e-05	1.6616e-05	281.87	142.81	130.22	71.142	1.6447e-05	76.34	259.998	369.266	98.852	72.993	266.979	194.258	71.639	78.479	209.941	150.810	75.713	79.813	82.261	85.953	165.984	81.619	-8191	255	
1626.262	1	1	0	0	0.23726	0.12574	0.13406	0.1551	0.12571	0.13097	0.22821	0.19041	0.1363	0.2811	0.3519	0.19591	0.15604	0.35618	0.0798	0.29972	0.95417	-0.27917	0.0083333	0.16042	-0.275	0.4125	0.0083333	-0.1	0.53958	-0.13333	0.11667	0.48333	-0.42083	0.34792	0.27917	-0.30833	181.653	207.930	70.791	74.185	333.264	138.818	232.878	378.370	103.239	396.450	127.192	376.857	387.695	346.090	326.287	378.836	0.00092308	0.00050711	0.00019874	638.23	2.292e-06	7.3484e-06	645.39	237.64	2.2279e-06	1.2193e-05	270.6	140.87	128.12	69.834	1.2936e-05	75.315	0.0014294	0.0015176	0.00041999	650.28	1.6474e-05	1.6509e-05	657.41	242.69	1.6312e-05	1.6432e-05	278.79	141.84	129.62	70.745	1.6269e-05	75.874	261.567	167.648	155.733	73.249	298.404	290.491	71.629	78.779	323.581	194.884	75.995	79.559	82.160	85.440	214.735	81.017	-8191	255	
1626.360	1	1	0	0	0.05997	0.056999	0.097968	0.18749	0.16009	0.21947	0.15675	0.11343	0.34214	0.13428	0.26888	0.12825	0.30139	0.40332	0.099062	0.2616	0.73333	-0.05625	0.18125	0.31875	-0.15417	0.24792	0.052083	-0.25625	0.42917	-0.27917	0.075	0.40833	-0.30208	0.28958	0.30625	-0.24375	67.285	391.085	293.702	380.803	91.005	233.682	216.033	311.621	419.591	405.820	398.799	322.787	399.979	364.612	182.272	255.974	0.00088585	0.00032588	7.3153e-05	643.28	1.1988e-05	9.667e-06	655.15	238.3	9.3908e-06	1.0789e-05	272.13	140.49	128.22	70.463	1.2376e-05	76.037	0.0014298	0.0015366	0.00041389	650.75	1.6129e-05	1.6538e-05	658.18	242.93	1.6227e-05	1.6594e-05	279.39	141.91	129.73	71.076	1.6375e-05	76.355	260.782	189.545	388.684	72.485	249.297	201.631	70.927	78.082	240.913	143.822	75.344	78.907	81.466	85.408	206.756	81.203	-8191	255	
1626.479	1	1	0	0	0.27357	0.25143	0.10291	0.28437	0.14749	0.16319	0.087535	0.24559	0.28486	0.16829	0.070915	0.033365	0.29916	0.13167	0.24454	0.09291	0.91042	-0.19792	0.00625	0.54167	-0.38958	0.24792	0.15	-0.27917	0.5375	0.054167	-0.29792	0.52292	-0.2	-0.04375	0.425	-0.25	273.478	122.297	203.386	354.777	172.606	262.273	405.984	353.151	286.068	79.577	304.975	113.066	376.673	66.893	346.945	332.227	0.0009686	0.0011898	0.00017568	642.75	6.1283e-06	6.3743e-06	656.6	239.5	6.6676e-06	4.6142e-06	274.32	140.9	128.6	70.374	4.557e-06	76.537	0.001426	0.0014987	0.00041745	650.8	1.6141e-05	1.6325e-05	659.75	243.54	1.6053e-05	1.6541e-05	280.68	142.46	130.26	71.272	1.6194e-05	76.856	268.985	174.651	106.847	72.567	200.092	163.090	71.396	77.985	170.198	287.108	75.401	79.023	81.722	85.512	153.622	81.203	-8191	255	
1626.575	1	1	0	0	0.10244	0.1679	0.22398	0.094196	0.33908	0.091767	0.35751	0.044697	0.33983	0.30317	0.28031	0.31737	0.079894	0.2107	0.23777	0.35892	0.83125	0.13125	0.070833	0.50417	-0.21458	0.058333	0.21458	-0.22083	0.41667	0.24167	-0.38333	0.49792	-0.29583	-0.26042	0.575	-0.46667	114.183	272.920	319.175	278.680	191.394	243.643	362.187	79.652	389.805	192.582	367.240	321.051	301.611	322.503	295.320	313.636	0.00092079	0.00021555	0.00010784	645.28	1.9097e-06	7.3758e-06	656.69	240.54	6.1947e-06	3.4833e-06	275.41	142.07	129.33	70.248	9.1009e-06	76.265	0.0014308	0.0014771	0.0004157	652.32	1.6049e-05	1.6228e-05	662.34	243.97	1.6247e-05	1.6362e-05	282.2	143.04	130.48	71.244	1.6054e-05	76.812	265.790	180.329	200.467	72.485	192.166	418.598	71.171	78.214	235.891	224.372	75.135	78.860	81.731	85.295	295.868	81.238	-8191	255	
1626.671	1	1	0	0	0.066432	0.24568	0.19854	0.20394	0.15266	0.22322	0.15606	0.13217	0.090952	0.086239	0.34816	0.19494	0.055078	0.15496	0.095243	0.13193	0.7375	0.091667	-0.23125	0.3375	-0.025	0.06875	0.33958	-0.33333	0.45208	0.35417	-0.29375	0.53958	-0.016667	-0.12083	0.48958	-0.27917	180.759	199.140	262.310	73.843	339.284	336.483	384.604	285.218	103.617	395.748	302.052	352.525	270.919	333.013	143.144	355.328	0.00097968	0.00032731	0.00015102	641.11	9.1815e-06	6.7006e-06	654.6	239.84	5.2798e-06	6.8414e-06	274.9	141.27	129.16	70.564	5.815e-06	76.182	0.0014158	0.0014794	0.00041492	650.74	1.6077e-05	1.6035e-05	659.43	243.59	1.6075e-05	1.6288e-05	281.27	142.32	130.64	71.344	1.6262e-05	76.776	255.148	65.497	85.950	72.257	249.684	224.188	71.387	78.012	174.994	142.849	75.203	78.688	81.750	85.329	191.704	81.206	-8191	255	
1626.768	1	1	0	0	0.32882	0.18598	0.33783	0.28927	0.11063	0.073667	0.31885	0.2281	0.15814	0.22739	0.38333	0.10737	0.1183	0.27017	0.12965	0.31115	0.59167	0.28542	-0.26875	0.24583	0.11667	-0.24167	0.60625	-0.31667	0.14167	0.44583	-0.54583	0.4	0.1	-0.42708	0.57917	-0.43333	405.143	270.434	202.216	408.175	361.373	333.320	83.557	261.519	75.836	251.920	334.314	160.232	376.626	415.262	333.423	336.291	0.00084046	0.00062452	0.00011406	642.93	9.4379e-06	2.3785e-06	656.42	239.9	7.4715e-06	9.1039e-06	275.91	141.74	129.47	70.873	2.5116e-06	76.57	0.0014095	0.001477	0.00042248	650.85	1.5979e-05	1.6179e-05	659.37	244.36	1.5925e-05	1.6238e-05	281.75	143.23	130.85	71.585	1.6396e-05	77.139	248.096	138.117	156.989	72.524	215.126	65.967	70.974	78.228	190.286	232.417	75.040	78.448	81.665	85.109	226.455	81.336	-8191	255	
1626.864	1	1	0	0	0.21526	0.19747	0.19974	0.3441	0.20715	0.25474	0.18488	0.27744	0.19913	0.06952	0.35934	0.21773	0.15431	0.10859	0.17986	0.34213	0.4875	0.47292	-0.24167	0.37917	0.10833	-0.11042	0.56458	-0.33958	-0.03125	0.39583	-0.47917	0.15	0.24583	-0.54375	0.54792	-0.25833	370.949	137.630	114.577	359.024	145.818	344.813	276.426	391.119	153.522	417.409	81.600	124.501	317.235	345.193	136.214	404.943	0.00089663	0.00046034	0.00030432	638.43	2.978e-06	1.0039e-05	655.96	239.37	8.1426e-06	1.1592e-05	277.63	141.7	129.29	70.845	4.9663e-06	76.683	0.0013981	0.0014802	0.0004163	649.87	1.584e-05	1.6313e-05	660.08	244.22	1.5728e-05	1.6241e-05	283.81	143.29	130.84	71.791	1.6336e-05	77.43	257.272	78.157	114.974	72.282	394.704	203.687	71.336	78.347	111.924	141.823	75.646	78.901	81.740	85.641	176.633	81.598	-8191	255	
1626.960	1	1	0	0	0.19291	0.176	0.15923	0.018522	0.097817	0.27539	0.18364	0.16668	0.12074	0.39681	0.39417	0.31224	0.20025	0.5447	0.15728	0.19105	0.43125	0.47708	-0.10833	0.30833	0.38958	-0.28542	0.57083	-0.09375	-0.0875	0.42917	-0.20417	0.20625	0.23542	-0.65833	0.45208	-0.12917	168.828	126.715	107.885	110.103	327.035	269.729	174.477	122.776	181.030	71.949	102.426	357.356	119.274	66.976	86.476	171.484	0.00083334	0.00027835	0.00029146	645.27	1.0023e-05	5.9551e-06	652.17	240.96	5.2601e-06	2.4086e-06	276.48	142.96	129.41	70.997	9.3771e-06	77.033	0.0013994	0.0015054	0.00041267	649.98	1.5946e-05	1.6627e-05	659.77	245.13	1.6011e-05	1.6489e-05	283.76	143.97	131.07	71.949	1.6372e-05	77.447	262.231	418.787	169.376	72.559	246.492	216.246	71.258	77.865	163.972	291.670	75.091	78.446	81.646	85.340	182.872	81.501	-8191	255	
1627.056	1	1	0	0	0.18176	0.17794	0.08997	0.22637	0.124	0.14558	0.36502	0.16435	0.17902	0.042348	0.15779	0.18549	0.12543	0.39112	0.27823	0.43023	0.25625	0.47083	-0.11042	0.19792	0.34167	-0.35	0.28542	-0.075	-0.24167	0.51458	-0.31042	0.10625	0.24583	-0.43542	0.28958	-0.10833	66.052	277.375	373.846	76.207	303.502	82.796	286.734	389.287	128.641	86.875	158.670	327.149	280.453	385.843	199.918	358.003	0.00087926	0.00066458	0.00017242	637.24	1.0706e-05	9.2101e-06	653.51	241.57	7.6871e-06	1.2787e-05	279	143.68	130.56	71.115	8.1999e-06	76.986	0.0014075	0.0014877	0.00041347	647.16	1.5714e-05	1.6315e-05	658.28	245.58	1.5884e-05	1.6461e-05	284.72	144.06	132.15	71.9	1.6141e-05	77.596	255.028	130.538	158.585	72.441	227.038	212.281	71.488	78.537	300.938	189.107	75.544	79.225	81.912	85.624	168.254	81.448	-8191	255	
1627.175	1	1	0	0	0.11613	0.10656	0.079728	0.11238	0.13586	0.29703	0.37479	0.2728	0.094889	0.19943	0.41785	0.30823	0.19788	0.20478	0.17552	0.022561	0.2125	0.57292	-0.091667	-0.052083	0.49167	-0.3125	0.33333	0.027083	-0.36875	0.47917	-0.19167	-0.14583	0.32708	-0.51875	0.35833	0.05625	222.791	390.044	318.339	408.170	237.671	413.656	346.942	334.773	215.915	344.872	339.855	275.028	406.703	369.831	78.802	298.278	0.00083948	0.00072145	7.7241e-05	639.9	1.4538e-05	5.3178e-06	654.79	244.09	7.1052e-06	2.6239e-06	280.2	145.01	132.47	71.326	6.192e-06	77.038	0.0014232	0.0014951	0.00041224	648.22	1.5844e-05	1.6363e-05	660.66	247.5	1.5956e-05	1.633e-05	287.25	145.84	133.46	72.023	1.5959e-05	77.643	251.381	150.068	168.912	72.526	252.448	190.490	71.637	78.747	263.382	314.269	75.917	78.863	81.926	85.575	204.076	81.837	-8191	255	
1627.271	1	1	0	0	0.23043	0.14057	0.12808	0.15086	0.14498	0.17869	0.15941	0.12229	0.1362	0.12275	0.038127	0.20852	0.22675	0.20482	0.13862	0.37076	0.041667	0.53125	-0.15417	-0.010417	0.51667	-0.22708	0.14375	0.22708	-0.27083	0.37708	0.12708	-0.425	0.48958	-0.39792	0.23333	0.26042	221.559	192.907	369.739	191.010	253.801	209.247	412.246	197.464	363.320	229.629	65.466	402.724	401.541	376.018	92.022	368.360	0.0010138	0.00059856	0.00013875	643.3	2.5402e-06	7.0904e-06	661.93	247.38	4.5529e-06	1.2178e-05	286.47	146.04	132.81	71.275	7.466e-06	77.766	0.001419	0.0014696	0.00041206	650.75	1.5918e-05	1.6377e-05	664.95	250.21	1.5878e-05	1.6147e-05	291.3	146.83	134.42	71.99	1.5995e-05	78.059	256.972	179.142	150.220	72.641	285.334	144.964	71.551	78.824	196.324	213.678	75.502	79.328	82.042	85.639	160.922	81.656	-8191	255	
1627.367	1	1	0	0	0.12615	0.053482	0.20467	0.16911	0.085276	0.17111	0.25582	0.42885	0.29359	0.050037	0.14058	0.22529	0.27343	0.34332	0.1492	0.32727	0.16875	0.57083	0.28542	-0.18958	0.53542	-0.39167	0.0041667	0.19167	-0.32708	0.21458	0.039583	-0.29792	0.38542	-0.22292	0.095833	0.34375	157.771	170.737	420.635	308.601	66.552	90.404	335.799	284.616	210.281	78.083	262.033	91.167	85.989	408.872	133.613	361.147	0.00090338	0.00051479	0.00028286	644.63	6.8456e-06	7.2218e-06	660.1	245.44	2.2006e-06	8.7316e-06	283.26	144.94	132.59	71.078	2.5508e-06	76.879	0.0014271	0.0014734	0.00041074	651.83	1.5926e-05	1.6229e-05	664.22	250.06	1.5978e-05	1.6264e-05	289.71	146.15	133.64	72.023	1.6163e-05	77.779	262.032	82.615	138.440	72.857	213.537	218.858	71.572	78.802	136.526	173.871	75.601	79.025	81.930	85.678	246.564	81.650	-8191	255	
1627.463	1	1	0	0	0.14992	0.17236	0.20445	0.16467	0.20976	0.068854	0.080158	0.062482	0.25482	0.19299	0.19785	0.38524	0.33839	0.18586	0.27174	0.44717	0.070833	0.43958	0.38333	-0.47917	0.57917	-0.23333	-0.058333	0.49167	-0.25417	0.41042	0.25833	-0.38125	0.4375	-0.20625	-0.00625	0.42083	244.189	398.034	315.901	318.601	177.939	110.612	89.993	285.468	273.591	102.316	245.949	364.644	397.644	394.643	355.960	352.849	0.00086838	0.00020832	0.00018302	644.44	8.3529e-06	6.7423e-06	654.53	245.28	7.2161e-06	7.6879e-06	282.9	145.79	132.55	71.274	1.4694e-05	77.238	0.0014271	0.0014682	0.00041081	650.34	1.5975e-05	1.6321e-05	661.98	249.27	1.5964e-05	1.611e-05	290.15	146.5	134.07	72.147	1.6026e-05	77.774	258.457	218.351	242.109	72.794	249.431	193.971	71.942	78.988	218.530	263.278	75.617	78.929	81.239	85.331	211.599	80.895	-8191	255	
1627.559	1	1	0	0	0.10417	0.23064	0.03939	0.28956	0.060856	0.126	0.20592	0.24198	0.18081	0.047857	0.18796	0.22473	0.26635	0.12701	0.18882	0.24646	0.10833	0.38542	0.56667	-0.19167	0.58333	-0.035417	-0.3125	0.51875	-0.39375	0.18958	0.45417	-0.4375	0.45417	-0.052083	-0.25208	0.34583	318.525	247.363	213.855	329.360	184.445	121.813	144.190	153.049	102.145	122.192	276.791	359.416	418.763	380.422	320.284	78.016	0.0009283	0.0011632	0.0002924	642.09	1.2021e-05	8.192e-06	660.51	244.7	3.4698e-06	7.6962e-06	285.48	145.57	133.27	71.321	9.6203e-06	77.673	0.0014042	0.0014586	0.00041021	651.63	1.5943e-05	1.6147e-05	666.09	249.22	1.6009e-05	1.6069e-05	290.84	147.13	134.57	72.221	1.6174e-05	78.095	257.849	162.344	176.852	72.430	197.974	243.245	71.060	78.134	283.696	202.105	75.413	79.087	81.500	85.525	211.722	81.323	-8191	255	
1627.656	1	1	0	0	0.18712	0.081365	0.22142	0.16788	0.30949	0.1663	0.13432	0.22895	0.16562	0.12595	0.17026	0.26524	0.15071	0.36656	0.22774	0.21107	0.35	0.066667	0.5375	-0.44583	0.38333	0.12083	-0.25833	0.40625	-0.12708	-0.054167	0.42292	-0.40417	0.24792	0.11042	-0.24375	0.54167	162.214	397.790	419.667	184.871	339.312	144.715	290.026	264.736	166.584	346.059	353.144	303.420	75.965	98.952	352.690	378.739	0.00092706	0.00035193	0.00014045	638.76	8.0173e-06	7.0652e-06	660.43	244.99	6.3177e-06	7.7332e-06	286.2	146.02	132.85	71.565	4.2455e-06	77.882	0.0013894	0.0014564	0.00041252	648.89	1.554e-05	1.6094e-05	667.11	249.48	1.5957e-05	1.6225e-05	291.57	147.48	134.59	72.194	1.6304e-05	78.351	257.011	366.318	379.974	73.332	211.718	271.757	71.591	78.897	245.031	223.166	75.364	79.259	81.688	85.802	226.824	81.794	-8191	255	
1627.752	1	1	0	0	0.12546	0.2296	0.17039	0.4125	0.07708	0.17287	0.099564	0.1426	0.18132	0.18573	0.066211	0.050236	0.14599	0.4197	0.24858	0.16061	0.10208	0.12917	0.59375	-0.24583	0.30208	0.375	-0.25833	0.4875	-0.04375	-0.15625	0.47708	-0.54375	0.16042	0.085417	-0.42083	0.46458	78.087	414.021	128.332	385.954	109.578	322.725	333.370	314.425	209.003	99.765	103.565	97.116	93.954	349.562	114.625	320.216	0.0008369	0.00026439	0.00021436	640.84	7.7008e-06	1.066e-05	658.6	246.18	6.5593e-06	1.115e-05	284.45	146.74	132.7	71.053	1.2948e-05	77.28	0.0014087	0.001464	0.00041158	651.08	1.5639e-05	1.6019e-05	665.98	250.12	1.5738e-05	1.6146e-05	291.34	147.54	134.38	72.075	1.6188e-05	77.91	260.258	156.202	186.713	72.887	236.235	158.003	71.574	78.662	252.814	156.264	75.149	79.218	81.853	85.880	233.981	81.776	-8191	255	
1627.848	1	1	0	0	0.094253	0.20366	0.016727	0.33049	0.17531	0.20004	0.19781	0.20179	0.092493	0.29044	0.35619	0.19375	0.17891	0.13856	0.064596	0.17908	0.53333	-0.041667	0.53542	-0.225	0.19583	0.42083	-0.41875	0.425	0.066667	-0.23958	0.43333	-0.28958	0.064583	0.14792	-0.44375	0.23542	146.042	397.085	345.616	162.630	60.896	136.255	156.538	317.006	303.116	382.898	70.693	237.127	120.676	417.687	111.051	384.861	0.00094999	0.0009163	0.00031159	641.42	6.6119e-06	1.1476e-05	655.51	245.64	7.4837e-06	4.4621e-06	283.5	146.19	132.69	71.033	6.7364e-06	76.762	0.0013916	0.0014646	0.00041378	650.4	1.5454e-05	1.6217e-05	662.58	249.82	1.5629e-05	1.6326e-05	290.26	146.9	133.93	72.015	1.6191e-05	77.687	256.618	111.057	128.125	73.161	250.777	234.530	71.640	78.408	307.760	201.044	75.819	79.213	81.958	85.888	229.188	81.643	-8191	255	
1627.969	1	1	0	0	0.24269	0.16705	0.22341	0.061762	0.26454	0.20265	0.070814	0.17748	0.14398	0.32284	0.18445	0.12661	0.31941	0.12103	0.24241	0.066395	0.42708	-0.41458	0.64375	-0.15833	0.054167	0.35	-0.38958	0.32292	0.18333	-0.49792	0.35833	-0.40208	-0.28542	0.25208	-0.41667	0.14167	164.906	319.838	304.840	190.454	214.160	356.904	198.010	354.743	363.653	292.600	70.848	141.671	372.011	335.753	387.648	350.676	0.00096915	0.00085496	0.0001153	643.38	3.4618e-06	5.8052e-06	658.37	244.48	3.8557e-06	6.7321e-06	282.27	145.24	131.94	70.825	7.251e-06	77.752	0.0013891	0.0014641	0.00040835	650.44	1.5564e-05	1.5929e-05	665.19	248.62	1.5611e-05	1.6065e-05	289.11	146.2	133.18	71.88	1.5823e-05	78.003	255.402	165.063	154.160	72.960	123.960	175.979	71.092	77.985	260.771	227.110	75.025	79.079	81.323	85.304	255.415	80.867	-8191	255	
1628.063	1	1	0	0	0.080693	0.022478	0.26287	0.17641	0.39703	0.29085	0.31229	0.28848	0.17949	0.086397	0.24609	0.19554	0.32203	0.14896	0.1587	0.16906	0.69792	-0.24167	0.52083	-0.0375	-0.014583	0.50833	-0.16458	0.31042	0.32708	-0.225	0.29792	-0.12917	-0.29583	0.51042	-0.29583	0.0875	198.701	301.475	201.092	213.010	418.398	201.667	395.969	365.255	361.025	86.410	75.548	256.895	354.745	295.759	179.385	111.011	0.00092545	0.00071178	0.0002204	643.67	3.9439e-06	5.2854e-06	664.2	244.9	7.3717e-06	4.4518e-06	284.62	146.15	132.31	71.217	8.109e-06	78.362	0.0014044	0.0014509	0.00040896	652.25	1.5603e-05	1.6039e-05	667.96	249.23	1.5681e-05	1.6141e-05	291.72	147	133.67	72.013	1.6019e-05	78.494	261.972	93.890	200.049	72.378	231.698	178.860	71.605	78.322	243.620	196.522	75.378	78.911	81.746	85.439	252.622	81.432	-8191	255	
1628.161	1	1	0	0	0.26564	0.14482	0.14233	0.098308	0.19663	0.094921	0.15012	0.1641	0.41811	0.0403	0.21006	0.23031	0.18973	0.044766	0.22434	0.3534	0.68333	-0.33958	0.27083	0.054167	-0.1875	0.48333	-0.325	0.022917	0.40417	-0.37083	0.325	0.029167	-0.39792	0.45625	-0.23542	-0.060417	290.972	357.661	353.915	64.498	190.839	114.169	351.656	256.910	208.061	396.343	162.010	313.210	124.205	185.833	161.226	295.030	0.00091506	0.00074069	0.00029261	642.89	1.1111e-05	4.3348e-06	666.46	246.4	5.848e-06	3.5281e-06	285.07	146.24	132.39	71.426	8.7641e-06	77.674	0.0013863	0.0014747	0.00040581	652.59	1.5718e-05	1.6271e-05	668.7	250.54	1.571e-05	1.6046e-05	291.63	146.66	133.63	72.211	1.5654e-05	78.128	255.366	206.402	156.786	72.751	226.714	278.888	71.526	78.243	182.462	159.842	75.442	78.618	81.613	85.509	207.180	81.536	-8191	255	
1628.255	1	1	0	0	0.27917	0.10412	0.10717	0.34904	0.192	0.11165	0.089277	0.20203	0.1772	0.091643	0.21769	0.29755	0.31821	0.3096	0.11614	0.34207	0.73958	-0.32708	0.25417	0.14792	-0.21875	0.62917	-0.089583	-0.32292	0.48542	-0.19375	0.17917	0.26042	-0.30625	0.50625	0.0375	-0.35833	303.701	281.618	283.959	333.363	210.848	242.959	326.301	287.177	390.633	340.929	118.286	397.362	382.657	403.818	254.258	332.838	0.00094854	0.00091234	0.00024632	643.69	8.9838e-06	1.1697e-05	662.51	246.64	2.3925e-06	1.0283e-05	285.13	146.21	132.32	71.278	8.6408e-06	78.067	0.001393	0.0014404	0.00040309	652.69	1.5817e-05	1.5966e-05	665.53	249.74	1.5738e-05	1.5884e-05	290.79	146.39	133.64	72.096	1.5896e-05	78.272	255.029	140.048	123.140	72.565	224.943	239.456	71.161	78.067	124.769	248.598	74.796	78.707	81.418	85.087	222.398	81.015	-8191	255	
1628.351	1	1	0	0	0.14866	0.18427	0.16096	0.28723	0.16976	0.041267	0.29173	0.20832	0.18556	0.23833	0.23675	0.16952	0.35539	0.39582	0.089505	0.21903	0.91458	-0.42292	0.1875	0.38333	-0.40833	0.51875	-0.066667	-0.26458	0.5	-0.13958	0.029167	0.46042	-0.41667	0.43333	0.21875	-0.43958	392.462	394.059	162.760	377.611	228.138	104.208	384.060	364.370	307.784	353.209	382.846	309.456	402.634	84.736	348.839	381.168	0.00093282	0.00083744	0.0001591	645.14	3.44e-06	5.3613e-06	659.31	246.49	5.1439e-06	1.002e-05	285.91	145.63	132.35	71.153	6.4499e-06	77.875	0.0013943	0.0014488	0.00040231	651.45	1.5673e-05	1.5762e-05	666.48	250.23	1.568e-05	1.5895e-05	291.1	146.76	133.57	72.149	1.5851e-05	78.409	260.094	203.417	160.804	72.693	250.475	185.929	71.604	78.630	170.055	183.788	75.753	79.077	81.700	85.382	209.015	81.248	-8191	255	
1628.448	1	1	0	0	0.26163	0.19966	0.19591	0.19543	0.11699	0.22755	0.23358	0.15482	0.17775	0.1819	0.18108	0.2094	0.16469	0.34373	0.22426	0.29212	0.92292	-0.24375	-0.014583	0.14792	-0.27292	0.35	0.22708	-0.3625	0.33333	-0.035417	-0.0875	0.51667	-0.60208	0.325	0.13333	-0.47708	67.134	112.463	373.183	354.918	158.954	396.673	94.953	353.692	160.719	69.575	411.903	406.242	333.727	414.818	160.052	329.857	0.00092206	0.0011679	0.00024914	643.44	6.5851e-06	7.274e-06	662.59	244.93	8.8437e-06	7.8622e-06	286.3	145.42	133.1	71.28	1.3908e-05	77.98	0.0013835	0.0014384	0.00039627	651.25	1.5603e-05	1.5795e-05	667.74	249.87	1.5663e-05	1.5769e-05	291.62	146.91	133.87	72.057	1.5828e-05	78.527	258.958	138.187	128.290	73.004	249.055	203.691	71.634	78.816	191.962	184.248	74.977	78.767	81.613	85.395	229.062	81.584	-8191	255	
1628.568	1	1	0	0	0.13798	0.1774	0.23165	0.14428	0.20598	0.36163	0.054735	0.24959	0.11456	0.14436	0.21603	0.13975	0.15346	0.30673	0.19932	0.2334	0.88125	0.0375	0.054167	0.58958	-0.175	0.39167	0.13542	-0.275	0.48125	-0.022917	-0.34167	0.53333	-0.275	0.11458	0.425	-0.31875	236.731	348.316	81.955	145.922	196.902	407.936	398.833	407.470	143.775	418.622	360.489	84.025	118.316	391.527	278.938	60.692	0.00091016	0.0010239	0.00022263	643.74	4.4818e-06	3.858e-06	663.37	247.84	7.6354e-06	1.0046e-05	286.79	145.88	132.11	71.183	6.9875e-06	77.937	0.0013908	0.001444	0.0003985	650.59	1.5431e-05	1.5775e-05	667.36	251.26	1.5586e-05	1.5707e-05	292.39	146.75	133.83	71.975	1.5767e-05	78.241	255.693	175.312	140.980	72.037	293.179	166.306	71.407	78.573	259.066	151.839	75.258	78.845	81.627	85.463	242.410	81.726	-8191	255	
1628.664	1	1	0	0	0.07438	0.07042	0.070982	0.27917	0.31197	0.15805	0.070416	0.040182	0.072045	0.079656	0.32104	0.20131	0.24633	0.20658	0.18135	0.10227	0.81875	0.020833	-0.12708	0.39375	-0.125	0.13542	0.43125	-0.41042	0.31875	0.0625	-0.32083	0.52917	-0.29792	-0.19792	0.50208	-0.38125	235.714	406.946	398.076	138.435	343.451	93.908	392.628	299.995	312.459	221.799	130.911	368.811	78.240	354.282	219.087	252.037	0.00088105	0.00023747	0.00014205	643.38	7.5172e-06	8.6006e-06	663.27	247.29	2.1179e-06	1.3179e-05	284.5	144.45	132.03	71.167	1.33e-05	77.747	0.0013618	0.0014456	0.00040352	651.57	1.5422e-05	1.5801e-05	666.59	250.2	1.5652e-05	1.5975e-05	291.85	146.1	133.36	71.941	1.5949e-05	78.229	256.482	69.995	168.367	72.653	252.020	217.593	71.537	78.709	273.587	136.896	75.333	79.208	81.636	85.601	229.845	81.724	-8191	255	
1628.761	1	1	0	0	0.1078	0.13761	0.27671	0.20153	0.1214	0.024835	0.25192	0.056091	0.25668	0.18392	0.03585	0.21548	0.29024	0.16592	0.11853	0.17982	0.79167	0.18958	-0.25833	0.4125	-0.12292	0.020833	0.3	-0.18542	0.29792	0.2875	-0.29375	0.45833	-0.24375	-0.12917	0.52917	-0.32708	342.960	99.821	140.124	364.644	284.004	177.480	239.502	299.765	204.428	361.833	294.205	363.411	327.728	396.495	383.381	308.028	0.00097492	0.00058008	0.00017921	641.68	7.6446e-06	3.4894e-06	661.52	246.75	3.9547e-06	1.2504e-05	286.05	144.57	131.38	71.076	9.9986e-06	77.949	0.0013761	0.0014458	0.00041209	650.41	1.5509e-05	1.6078e-05	666.52	250.75	1.5629e-05	1.6056e-05	292.54	145.62	133.04	71.826	1.594e-05	78.383	261.293	167.792	146.028	73.121	261.810	193.932	71.969	78.542	252.937	181.211	75.663	79.266	82.044	85.717	234.230	81.619	-8191	255	
1628.832	1	1	0	0	0.096343	0.10903	0.062634	0.33293	0.2274	0.1257	0.26054	0.1411	0.18567	0.34624	0.041613	0.15069	0.34307	0.18451	0.095315	0.091209	0.6375	0.32917	-0.15833	0.48125	0.18542	-0.23958	0.41875	-0.38125	0.17708	0.26875	-0.52083	0.41042	-0.125	-0.10625	0.37708	-0.16458	136.905	322.336	104.923	357.544	156.267	173.064	357.901	335.433	136.679	225.163	331.971	366.246	404.592	416.473	88.572	88.414	0.00083342	0.0011692	0.00010962	645.38	5.1724e-06	3.4692e-06	667.71	248.51	9.8873e-06	6.5378e-06	291.68	146.17	133.25	71.532	1.6215e-05	78.204	0.0014044	0.0014731	0.00041383	653.32	1.5495e-05	1.6314e-05	670.84	252.76	1.5778e-05	1.6393e-05	296.91	147.39	134.56	72.211	1.6102e-05	78.68	262.791	200.144	76.535	72.409	238.640	201.923	71.012	77.725	267.592	136.613	75.244	78.968	81.444	85.445	194.992	81.348	-8191	255	
1628.953	1	1	0	0	0.11579	0.17127	0.14971	0.15875	0.12412	0.1627	0.094009	0.20866	0.13025	0.15579	0.085377	0.21986	0.20086	0.060501	0.21539	0.067396	0.51042	0.39583	-0.36042	0.38958	0.15	-0.20417	0.39167	-0.20833	-0.0041667	0.57292	-0.48333	0.34375	0.075	-0.36667	0.56458	-0.5125	298.973	191.443	345.668	414.380	409.843	144.843	195.919	115.894	121.980	232.980	356.382	139.187	311.669	90.667	180.169	379.130	0.00083473	0.00052206	0.00036985	646.28	5.8247e-06	6.6425e-06	665.99	250.36	7.5072e-06	8.1969e-06	288.86	146.42	134.17	70.953	3.5068e-06	77.792	0.0013976	0.0014607	0.00040335	654.8	1.5623e-05	1.6306e-05	671.71	254.46	1.5653e-05	1.6218e-05	296.53	147.32	135.34	71.777	1.582e-05	78.28	259.513	182.733	155.264	72.501	212.582	232.740	71.439	78.048	210.753	171.697	75.216	79.065	81.641	85.248	179.674	81.530	-8191	255	
1629.049	1	1	0	0	0.1047	0.10943	0.17335	0.1791	0.098579	0.24415	0.35545	0.094451	0.14278	0.25783	0.22463	0.039591	0.30411	0.38702	0.2353	0.23798	0.42083	0.475	-0.49375	0.027083	0.31875	-0.3375	0.29792	-0.1375	-0.12292	0.43125	-0.40625	0.13958	0.24375	-0.48958	0.34375	-0.0625	361.296	192.868	270.500	336.019	185.539	240.462	378.520	63.949	109.041	400.740	132.587	100.705	391.331	62.059	369.730	193.034	0.00097547	0.00076044	0.00022583	647.66	1.3549e-05	3.5949e-06	664.33	251.43	2.2069e-06	6.9386e-06	292.16	145.47	132.19	70.675	5.8604e-06	77.449	0.0013978	0.0014662	0.00040814	653.89	1.5709e-05	1.6224e-05	670.35	254.17	1.5768e-05	1.6256e-05	296.78	146.26	133.67	71.431	1.5885e-05	77.837	255.308	190.962	162.271	72.679	272.828	137.032	71.848	78.705	273.361	195.481	75.337	78.944	81.922	85.589	198.775	81.808	-8191	255	
1629.145	1	1	0	0	0.15707	0.17848	0.21182	0.13949	0.18879	0.30898	0.17578	0.14209	0.2457	0.24826	0.32182	0.18863	0.23979	0.11386	0.17375	0.073172	0.17708	0.7125	-0.24167	0.17292	0.525	-0.34583	0.42292	-0.052083	-0.19167	0.49792	-0.014583	-0.077083	0.38542	-0.375	0.54375	0.089583	250.618	201.353	278.149	381.731	337.109	197.964	161.601	375.135	104.018	95.689	257.895	415.114	93.143	70.347	323.688	150.158	0.00081833	0.0013215	0.00017496	647.25	7.2349e-06	1.0813e-05	664.19	248.96	1.0367e-05	8.6654e-06	290.85	143.8	130.41	70.435	1.005e-05	77.446	0.0014116	0.0014619	0.0004098	653.74	1.5775e-05	1.6036e-05	670.06	252.5	1.5959e-05	1.6356e-05	295.39	144.82	132.15	71.345	1.6084e-05	77.931	254.815	164.423	109.663	73.097	177.371	239.936	71.115	78.089	227.378	237.941	74.978	78.482	81.533	85.116	230.519	81.075	-8191	255	
1629.241	1	1	0	0	0.13195	0.27481	0.069965	0.11218	0.054066	0.25036	0.1293	0.16351	0.10205	0.21949	0.145	0.14945	0.41845	0.34174	0.025223	0.19463	0.1375	0.60208	-0.13958	0.19375	0.4875	-0.2625	0.29792	0.10208	-0.29167	0.39375	-0.24583	-0.08125	0.68333	-0.48542	0.27708	0.18542	153.737	71.274	371.269	71.833	138.968	308.240	412.205	274.318	147.964	302.131	345.792	90.552	401.859	385.476	411.431	370.736	0.00094961	0.00035736	8.3491e-05	642.74	5.8143e-06	5.4795e-06	669.08	248.88	4.41e-06	9.3109e-06	290.6	144.38	131.76	70.46	6.4306e-06	77.442	0.0014202	0.0014801	0.00041135	653.39	1.6085e-05	1.6252e-05	671.32	252.63	1.5942e-05	1.6288e-05	296.36	145.59	132.87	71.419	1.6103e-05	78.186	256.539	182.838	138.808	72.300	284.428	220.137	70.880	77.966	254.997	188.847	75.448	78.744	81.549	85.204	233.080	81.311	-8191	255	
1629.360	1	1	0	0	0.1328	0.26154	0.092282	0.20299	0.21919	0.28553	0.18368	0.14231	0.10696	0.18658	0.28657	0.13019	0.36267	0.11505	0.26171	0.16862	-0.066667	0.44583	0.052083	-0.08125	0.50625	-0.39583	-0.0041667	0.025	-0.26667	0.35208	0.045833	-0.13125	0.52292	-0.47708	-0.01875	0.17083	255.607	267.969	369.803	69.319	301.965	297.696	189.728	246.711	107.704	252.470	417.935	105.383	362.649	163.443	234.259	363.399	0.00080728	0.00071011	0.0001714	642.98	1.3492e-05	1.1365e-05	668.2	249.11	1.1129e-05	9.3076e-06	289.66	145.24	132.55	70.628	8.3009e-06	77.876	0.0014075	0.0014709	0.00040597	652.99	1.6098e-05	1.6218e-05	671.98	252.7	1.5885e-05	1.6065e-05	296.36	146.19	133.58	71.414	1.6205e-05	78.136	255.584	262.126	205.684	72.380	279.903	215.546	71.030	78.105	245.667	232.050	75.235	78.357	81.310	85.210	260.535	81.323	-8191	255	
1629.432	1	1	0	0	0.042434	0.16888	0.15322	0.18175	0.1744	0.082698	0.16085	0.25533	0.17143	0.27432	0.14463	0.15995	0.19681	0.099772	0.2756	0.2028	0.0020833	0.42083	0.10208	-0.53125	0.47083	-0.22917	-0.10208	0.25	-0.18542	0.48542	0.42083	-0.39792	0.47708	-0.26875	0.04375	0.17917	112.851	201.493	112.761	401.384	355.729	294.702	62.150	246.563	259.119	178.154	340.510	76.189	363.513	113.027	119.843	338.652	0.00091273	0.0012191	0.00014331	645.67	1.2708e-05	5.4657e-06	669.19	248.5	7.6836e-06	1.5772e-05	290.59	145.63	132.98	70.769	7.4673e-06	77.731	0.0014195	0.0014764	0.00041014	655.04	1.6034e-05	1.5946e-05	673.36	253.41	1.5983e-05	1.6106e-05	297.76	147.1	134.11	71.671	1.6161e-05	78.421	260.921	129.126	123.140	72.239	282.137	228.429	71.049	78.166	268.026	122.173	75.287	78.789	81.682	85.613	229.045	81.340	-8191	255	
1629.528	1	1	0	0	0.27632	0.28388	0.084276	0.077715	0.16328	0.17724	0.12658	0.078113	0.16513	0.19982	0.33596	0.31539	0.23149	0.26237	0.21193	0.26167	-0.0020833	0.47083	0.19583	-0.38958	0.625	-0.04375	-0.097917	0.52708	-0.18542	0.11875	0.24792	-0.375	0.38542	-0.11875	0.016667	0.33333	196.161	80.747	140.661	73.106	406.937	394.063	189.303	283.508	64.886	330.396	322.035	270.964	301.487	371.093	317.445	407.247	0.0010275	0.00057224	0.00026991	647.79	1.3744e-05	1.0387e-06	670.14	251.19	7.0417e-06	1.6552e-06	293.35	146.91	133.58	70.706	6.0031e-06	77.941	0.0014112	0.0014638	0.00041494	655.29	1.5882e-05	1.616e-05	673.93	255.5	1.5758e-05	1.6233e-05	300.27	148.09	135.07	71.62	1.629e-05	78.553	264.107	148.454	139.419	72.028	238.735	353.749	71.233	78.179	249.816	205.970	75.162	78.782	81.205	85.200	263.205	80.921	-8191	255	
1629.649	1	1	0	0	0.074333	0.20266	0.25656	0.10555	0.12483	0.21955	0.17741	0.27963	0.24756	0.14808	0.19549	0.33548	0.2225	0.16232	0.11755	0.2124	0.23958	0.23958	0.48125	-0.23333	0.52917	0.060417	-0.35208	0.52292	-0.23542	0.064583	0.36042	-0.31042	0.51458	0.054167	-0.058333	0.32292	309.398	82.474	254.612	200.070	401.466	111.025	260.115	365.689	242.320	338.733	399.238	376.519	219.726	90.358	109.609	362.477	0.00096506	0.00041886	0.00019514	646.24	4.9753e-06	8.7302e-06	672.14	250.77	4.5501e-06	5.4701e-06	291.16	145.43	132.43	70.571	1.3525e-06	77.695	0.0014145	0.0014932	0.00042251	654.78	1.5683e-05	1.6295e-05	674.77	254.78	1.5931e-05	1.6531e-05	298.77	147.13	133.52	71.375	1.6411e-05	78.191	255.532	116.506	148.656	72.015	244.274	237.369	71.156	77.912	252.034	263.789	74.931	78.567	81.204	85.362	253.555	81.066	-8191	255	
1629.745	1	1	0	0	0.26282	0.34671	0.21258	0.31062	0.051149	0.18313	0.15876	0.28464	0.039659	0.21226	0.11213	0.20443	0.17249	0.14525	0.14457	0.34273	0.21667	0.20208	0.53958	-0.425	0.425	0.21667	-0.26875	0.27917	-0.095833	-0.047917	0.40208	-0.21042	0.29375	0.1375	-0.16875	0.525	390.602	168.749	242.492	82.378	237.719	235.509	316.086	345.990	329.139	62.770	363.070	128.292	373.128	360.808	374.610	319.890	0.00088484	0.00038562	0.00012606	646.2	4.132e-06	8.5112e-06	664.78	248.81	5.3072e-06	1.2932e-05	291.89	144.29	130.08	69.624	1.213e-05	76.827	0.0014249	0.0015096	0.00042562	653.57	1.6046e-05	1.6668e-05	671.81	252.95	1.6128e-05	1.654e-05	296.88	144.78	131.68	70.687	1.6397e-05	77.51	255.289	158.691	366.682	72.456	178.906	254.272	70.549	77.639	318.652	197.791	74.958	78.486	81.093	85.159	220.737	81.059	-8191	255	
1629.841	1	1	0	0	0.1382	0.28022	0.28635	0.025834	0.17507	0.36537	0.21892	0.31356	0.119	0.046496	0.39925	0.080794	0.19997	0.11564	0.042882	0.12855	0.3375	-0.047917	0.46875	-0.43333	0.089583	0.47708	-0.41875	0.60208	0.033333	-0.14583	0.50417	-0.44375	0.05625	0.30625	-0.2	0.39583	241.735	169.994	402.744	76.841	106.250	335.720	418.637	378.083	169.898	327.710	363.608	373.556	291.569	193.605	289.988	362.966	0.00089796	0.00091109	0.00042038	647.47	2.946e-06	1.2601e-05	668.97	248.34	8.6332e-06	5.3811e-06	292.02	144.9	130.86	69.968	8.3192e-06	77.487	0.0014351	0.0015016	0.00041907	655.43	1.6063e-05	1.669e-05	673.43	253.4	1.6105e-05	1.6723e-05	298.59	145.39	132.33	70.809	1.6339e-05	77.845	258.204	149.006	135.822	72.201	335.153	243.434	71.390	78.151	248.872	91.954	75.013	79.056	81.177	85.353	238.776	81.471	-8191	255	
1629.962	1	1	0	0	0.19086	0.034013	0.18803	0.25311	0.33316	0.25102	0.092007	0.22388	0.31225	0.085286	0.16018	0.075872	0.33349	0.05031	0.096227	0.06393	0.49167	-0.18542	0.63333	-0.4375	0.1375	0.61042	-0.61667	0.45208	0.0083333	-0.18125	0.55625	-0.29375	0.04375	0.31667	-0.24375	0.21875	319.496	110.571	110.094	334.315	149.307	139.057	374.655	85.533	119.840	283.247	285.085	350.735	407.357	396.578	327.428	266.677	0.00095567	0.00047652	0.0003263	649.3	8.0031e-06	6.4549e-06	674.01	250.43	4.7258e-06	1.0465e-05	293.23	144.16	130.75	69.979	2.0482e-06	77.357	0.0014295	0.0015104	0.00041941	657.37	1.6452e-05	1.6631e-05	677.24	254.03	1.6322e-05	1.6794e-05	299.97	145.67	132.39	70.861	1.6489e-05	78.038	252.929	198.429	143.731	72.463	231.883	211.643	70.969	77.844	227.321	177.639	75.431	79.131	81.826	86.021	194.269	81.992	-8191	255	
1630.033	1	1	0	0	0.16194	0.14067	0.21741	0.26201	0.067574	0.078038	0.22273	0.080018	0.2095	0.19854	0.063271	0.084525	0.18968	0.17454	0.081633	0.076992	0.67083	-0.33333	0.69583	-0.16458	-0.10417	0.65833	-0.38333	0.25208	0.28958	-0.20625	0.45417	-0.041667	-0.14375	0.44167	-0.16458	0.27917	399.194	127.054	82.695	374.068	119.758	415.143	342.135	312.805	98.345	362.478	375.481	235.493	357.663	66.326	384.485	183.571	0.00095971	0.00058382	0.00019026	647.15	9.5808e-06	5.1357e-06	676.68	249.67	5.9319e-06	1.2665e-05	293.55	144.33	130.09	69.823	7.4392e-06	76.961	0.0014482	0.0015272	0.00042141	658.09	1.6445e-05	1.6732e-05	678.9	253.65	1.6403e-05	1.6651e-05	299.39	145.37	131.57	70.784	1.6475e-05	77.646	261.048	103.635	157.734	73.148	260.994	230.970	71.639	78.402	210.867	149.326	75.380	79.082	81.979	85.642	211.985	81.343	-8191	255	
1630.129	1	1	0	0	0.1408	0.093874	0.25663	0.18241	0.083166	0.22405	0.19907	0.16735	0.18295	0.13809	0.20007	0.16732	0.264	0.037116	0.16161	0.059678	0.66667	-0.20208	0.41042	-0.12083	-0.029167	0.63958	-0.0083333	0.22708	0.46042	-0.26458	0.43542	0.13958	-0.13542	0.51667	-0.01875	-0.025	295.521	313.922	268.719	99.874	208.786	243.280	367.536	297.619	382.196	337.818	102.625	335.382	60.846	281.860	175.666	82.505	0.00087653	0.0013327	0.00033237	647.14	7.485e-06	3.6538e-06	676.33	249.08	1.0488e-05	8.7534e-06	293.16	143.92	130.26	69.661	7.0542e-06	76.911	0.0014416	0.0015151	0.00041929	657.44	1.6327e-05	1.6562e-05	678.05	253.68	1.6523e-05	1.6728e-05	299.23	144.9	131.77	70.645	1.6527e-05	77.487	263.195	138.186	137.324	72.584	201.415	270.457	71.202	77.949	304.341	179.646	75.451	78.973	81.745	85.508	223.007	81.336	-8191	255	
1630.248	1	1	0	0	0.12483	0.060674	0.038953	0.14977	0.11484	0.050017	0.29232	0.37229	0.086959	0.11915	0.31153	0.23856	0.15182	0.035998	0.21699	0.20701	0.75	-0.15208	0.44583	0.066667	-0.11042	0.48333	-0.12083	0.1125	0.675	-0.125	0.29167	-0.022917	-0.20625	0.29792	-0.24167	0.1125	380.500	260.059	165.858	340.100	180.463	348.109	279.024	356.642	199.703	118.563	348.933	77.527	63.098	77.510	353.249	112.684	0.00084357	0.00070305	0.00020546	648.97	6.3873e-06	8.9167e-06	675.71	249.7	3.0252e-06	6.2065e-06	293.79	144.81	131.5	69.984	3.1379e-06	77.262	0.0014389	0.0015073	0.00042235	658.58	1.6398e-05	1.6328e-05	679.97	254.51	1.6249e-05	1.6411e-05	299.91	145.92	132.77	70.742	1.66e-05	77.778	258.968	140.669	117.641	72.211	240.575	222.940	70.747	77.590	259.982	299.259	74.541	78.367	81.250	84.958	233.667	80.399	-8191	255	
1630.344	1	1	0	0	0.22313	0.097243	0.21442	0.12549	0.11578	0.16716	0.37694	0.0559	0.26584	0.15393	0.19954	0.18473	0.28126	0.15204	0.23051	0.18309	1.0458	-0.13958	0.36875	0.24792	-0.42292	0.49583	0.0875	-0.05625	0.50417	-0.31458	0.37708	0.39792	-0.475	0.51667	0.0375	-0.17083	130.510	61.185	257.995	372.926	265.703	67.517	375.309	118.179	70.128	419.445	113.995	379.411	346.540	357.501	347.546	303.439	0.00099189	0.0010875	0.00019738	654.11	2.6041e-06	7.6934e-06	674.92	251.4	4.6714e-06	7.7156e-06	293.75	145.05	130.86	69.748	3.2774e-06	77.225	0.0014406	0.0015087	0.00042185	660.01	1.5965e-05	1.6436e-05	679.58	254.85	1.6237e-05	1.6425e-05	300.76	146.13	132.5	70.649	1.6664e-05	77.931	260.694	114.039	165.140	72.164	262.502	207.079	70.824	77.510	210.990	193.120	74.816	78.347	81.146	84.781	176.588	80.811	-8191	255	
1630.441	1	1	0	0	0.13402	0.0017578	0.19352	0.3313	0.1265	0.27382	0.33971	0.17167	0.11416	0.089984	0.15407	0.1592	0.13769	0.44358	0.17043	0.34592	0.875	-0.06875	0.31042	0.33125	-0.19375	0.51667	-0.052083	-0.25833	0.49792	-0.066667	0.21042	0.175	-0.42083	0.30833	0.25625	-0.31458	275.930	180.000	204.923	343.778	369.058	183.665	400.819	386.507	95.341	279.618	305.573	84.418	322.743	377.951	201.240	380.863	0.00086525	0.0010499	0.0001882	647.7	2.9122e-06	7.4694e-06	674.56	251.59	5.6148e-06	6.9626e-06	291.8	144.93	131.44	69.642	6.7237e-06	77.149	0.0014258	0.0014868	0.00041982	656.41	1.6078e-05	1.6387e-05	677.59	254.02	1.6085e-05	1.666e-05	298.74	146.17	132.44	70.511	1.6426e-05	77.648	256.207	138.798	231.031	71.727	316.249	222.865	70.876	77.721	260.881	238.203	74.672	78.306	81.189	84.870	265.447	80.664	-8191	255	
1630.537	1	1	0	0	0.12451	0.079508	0.011496	0.2253	0.16017	0.2012	0.11572	0.071633	0.17581	0.023869	0.25683	0.29983	0.49334	0.16995	0.14127	0.10205	0.81667	-0.13333	0.19583	0.30833	-0.19583	0.425	0.36458	-0.29375	0.7625	-0.10833	-0.15208	0.47292	-0.35417	0.34167	0.5375	-0.25	378.386	315.906	311.773	409.530	333.688	83.442	115.328	295.781	104.017	148.656	351.036	267.347	403.412	396.604	359.221	323.620	0.0010089	0.00071219	4.7414e-05	644.31	3.1215e-06	7.129e-06	667.96	247.7	1.1633e-05	9.159e-06	290.81	144.21	130.76	69.639	1.23e-05	76.794	0.0014151	0.001503	0.00042197	654.41	1.6034e-05	1.6521e-05	672.77	252.1	1.591e-05	1.6591e-05	297.32	145.4	132.17	70.455	1.646e-05	77.656	254.566	225.136	285.598	72.123	92.066	242.275	70.941	77.509	270.968	221.455	75.167	78.293	81.273	84.914	230.696	80.739	-8191	255	
1630.657	1	1	0	0	0.21682	0.16996	0.051207	0.35474	0.18329	0.28088	0.1079	0.17062	0.10455	0.093173	0.18561	0.11718	0.1703	0.32011	0.16388	0.081525	0.98333	-0.06875	0.23542	0.43125	-0.26458	0.44792	0.28542	-0.3125	0.65417	0.12708	-0.14583	0.46458	-0.22292	0.13125	0.44375	-0.53333	326.987	217.576	316.808	327.764	91.087	86.396	162.975	382.714	75.285	341.087	403.549	281.434	123.326	393.872	232.643	306.611	0.00082455	0.00029119	0.00013123	647	7.3343e-06	7.2601e-06	667.15	247.26	3.343e-06	1.5027e-05	290.92	145	131.02	69.602	1.467e-05	77.144	0.0014051	0.0014968	0.00042392	655.05	1.5922e-05	1.647e-05	673.99	252.27	1.5973e-05	1.6592e-05	299.01	145.33	132.1	70.444	1.6451e-05	77.656	260.345	145.381	143.959	72.266	292.690	285.011	71.129	77.755	368.492	181.139	74.861	78.360	81.258	85.000	221.189	81.243	-8191	255	
1630.729	1	1	0	0	0.025432	0.26342	0.22126	0.38157	0.10714	0.1065	0.18569	0.17249	0.33861	0.17908	0.31431	0.13127	0.092563	0.49591	0.13384	0.23521	0.99792	0.125	-0.077083	0.53125	-0.047917	0.11042	0.32708	-0.14375	0.51042	0.25417	-0.34375	0.35	-0.064583	0.095833	0.59583	-0.45	160.452	274.905	83.089	357.625	274.699	332.971	356.261	354.490	292.323	185.002	339.920	382.025	136.650	408.236	232.747	309.404	0.00087851	0.00059855	0.00023889	647.98	2.7062e-06	3.3201e-06	675.18	249.89	6.1104e-06	3.5456e-06	294.11	143.74	129.61	69.403	9.353e-06	77.176	0.0014239	0.001502	0.00042065	656.96	1.6141e-05	1.6708e-05	678.55	253.78	1.6142e-05	1.6691e-05	300.25	145.02	131.24	70.466	1.6341e-05	77.809	263.959	177.588	159.279	72.160	293.037	121.692	70.993	77.911	202.729	117.824	74.884	78.964	81.122	85.227	251.415	81.484	-8191	255	
1630.825	1	1	0	0	0.33261	0.13701	0.12151	0.24607	0.31386	0.20429	0.21709	0.22265	0.059485	0.11537	0.1085	0.26717	0.086675	0.17003	0.13548	0.10229	0.73958	0.26458	-0.26458	0.49583	-0.175	0.025	0.48958	-0.3	0.39167	0.16042	-0.42917	0.6	0.05625	-0.40833	0.67917	-0.54167	225.672	94.274	398.197	67.471	143.972	118.606	356.621	101.425	105.118	302.894	159.045	396.232	307.423	406.020	306.948	310.407	0.00093068	0.00031288	0.00016026	648.2	8.0196e-06	2.7824e-06	677.04	252.05	8.3544e-06	7.4025e-06	295.57	144.42	131.13	69.345	8.5084e-06	77.743	0.0014229	0.0015026	0.00041483	657.47	1.624e-05	1.6614e-05	680.58	255.54	1.6269e-05	1.6411e-05	301.78	145.81	132.56	70.398	1.6141e-05	77.967	265.663	155.335	172.008	72.330	268.129	190.539	70.964	77.590	225.807	188.632	75.218	78.687	81.633	85.278	214.405	81.449	-8191	255	
1630.921	1	1	0	0	0.15764	0.29515	0.23183	0.26151	0.055443	0.16391	0.16389	0.082456	0.20973	0.10601	0.27325	0.19982	0.060864	0.29858	0.28104	0.058619	0.56875	0.6	-0.33958	0.41042	-0.083333	-0.13958	0.41458	-0.42708	0.17292	0.46875	-0.31042	0.37083	-0.072917	-0.39792	0.725	-0.25	395.942	206.966	114.521	300.895	412.849	121.887	367.864	107.037	238.925	313.081	232.786	358.452	383.074	80.281	375.147	305.020	0.00088011	0.0014682	0.0001398	647.01	6.3414e-06	8.8472e-06	672.73	252.84	3.623e-06	5.5689e-06	296.23	146.36	132.69	70.328	9.2145e-06	77.787	0.0014186	0.0014874	0.00041832	656.92	1.5992e-05	1.6392e-05	678.02	256.7	1.6297e-05	1.6475e-05	302.57	147.74	133.95	71.067	1.6237e-05	78.435	253.554	123.377	187.064	72.538	208.676	174.547	71.252	78.143	195.388	291.170	75.357	78.850	81.753	85.392	232.486	81.934	-8191	255	
1631.040	1	1	0	0	0.12174	0.086433	0.23666	0.32723	0.17447	0.14133	0.064926	0.31444	0.21822	0.2686	0.37448	0.20325	0.43154	0.28941	0.040231	0.10967	0.58333	0.40625	-0.375	0.35	0.21667	-0.29167	0.38125	-0.39167	0.17708	0.32708	-0.40208	0.275	0.13958	-0.15417	0.60208	-0.1625	272.706	340.345	381.268	338.356	236.228	248.231	411.969	332.378	384.420	351.197	141.007	350.716	75.020	403.600	213.145	121.604	0.0008833	0.00095166	0.00019898	651.39	1.0757e-05	5.4092e-06	673.49	250.27	2.9475e-06	9.0533e-06	296.38	146.74	133.17	70.246	7.6574e-06	78.254	0.001432	0.0014997	0.00041533	656.99	1.589e-05	1.6578e-05	678.56	255	1.6176e-05	1.6433e-05	302	148.12	134.2	70.975	1.6276e-05	78.667	255.925	123.072	132.840	72.500	279.695	274.750	71.909	78.410	270.036	209.222	75.705	79.415	81.805	85.823	254.581	81.469	-8191	255	
1631.136	1	1	0	0	0.14981	0.17488	0.2038	0.28488	0.055844	0.19886	0.18182	0.26824	0.066729	0.03385	0.09711	0.059352	0.069772	0.37568	0.32899	0.13709	0.4875	0.54375	-0.26875	0.18333	0.26458	-0.39375	0.57292	0.077083	0.079167	0.625	-0.25625	0.16458	0.29792	-0.4625	0.69375	-0.28542	349.676	212.856	151.194	360.196	285.344	129.474	392.227	337.999	155.624	304.451	393.859	147.325	188.755	373.035	309.407	393.343	0.00096055	0.00020776	0.00015859	649.94	8.5465e-06	4.2484e-06	673.64	252.85	9.1404e-06	1.6537e-05	298.14	146.15	130.51	69.879	1.2092e-05	77.925	0.0014358	0.0015119	0.00041771	659.03	1.6396e-05	1.6472e-05	679.6	256.63	1.633e-05	1.6448e-05	303.86	147.25	132.66	70.742	1.641e-05	78.482	256.010	405.394	189.053	72.299	221.139	235.953	71.281	78.107	253.095	168.316	75.506	79.256	82.104	85.697	214.957	81.885	-8191	255	
1631.232	1	1	0	0	0.25806	0.10907	0.17398	0.093596	0.29999	0.19406	0.13855	0.16341	0.26089	0.18257	0.21374	0.20871	0.32435	0.3911	0.092351	0.16702	0.27083	0.62083	-0.21458	0.089583	0.55208	-0.27708	0.23333	0.097917	-0.15208	0.6125	-0.1625	0.016667	0.47708	-0.425	0.24792	0.20208	108.922	326.596	149.484	113.377	253.551	308.046	316.091	329.976	198.435	198.036	269.158	352.400	60.952	364.812	228.535	375.268	0.00094048	0.0005333	0.00010636	652.96	1.0446e-05	1.1415e-05	673.79	252.49	8.65e-06	5.4173e-06	298.74	145.63	131.78	69.569	1.4647e-05	77.205	0.0014392	0.0014839	0.00041705	659.65	1.5906e-05	1.6236e-05	680.16	255.87	1.587e-05	1.6206e-05	303.04	147.08	132.79	70.408	1.6294e-05	77.965	257.668	162.740	193.056	72.203	232.265	231.298	70.960	78.134	202.669	147.848	74.931	78.477	81.503	85.045	231.563	81.021	-8191	255	
1631.330	1	1	0	0	0.086239	0.1106	0.10286	0.23285	0.33385	0.15296	0.22663	0.055067	0.20746	0.3705	0.053786	0.11391	0.34684	0.29007	0.06541	0.38756	0.2125	0.70417	-0.022917	0.016667	0.55	-0.10625	0.37083	0.35	-0.24167	0.4625	-0.13125	-0.01875	0.29792	-0.4	0.47083	0.225	68.420	322.760	106.681	379.854	360.445	78.666	338.465	106.820	415.068	184.686	310.410	397.010	132.307	373.801	158.579	390.701	0.00093222	0.00035716	0.00014883	648.43	7.2727e-06	3.579e-06	676.47	251.13	8.7723e-06	6.7556e-06	297	146.42	132.04	69.518	7.4085e-06	77.257	0.0014129	0.0014583	0.00041723	656.27	1.58e-05	1.6318e-05	678.56	255.6	1.6039e-05	1.6187e-05	303.26	147.09	133.11	70.376	1.6474e-05	77.851	260.368	62.103	173.336	72.278	194.999	141.721	71.633	78.424	306.120	197.183	75.436	79.138	81.985	85.928	195.683	81.321	-8191	255	
1631.425	1	1	0	0	0.135	0.26455	0.31105	0.2576	0.1537	0.11543	0.3229	0.12275	0.16805	0.14819	0.21027	0.20539	0.12006	0.016187	0.12624	0.39064	0.33958	0.43333	0.25208	-0.0020833	0.67708	-0.13333	0.17708	0.3375	-0.25208	0.45417	-0.060417	-0.31667	0.51042	-0.38958	0.03125	0.4375	305.039	302.838	183.180	325.442	400.312	156.051	412.131	302.979	69.621	110.279	374.517	61.134	418.033	200.931	99.534	409.293	0.00092334	0.00015634	0.00029209	652.28	7.7798e-06	1.0415e-05	676.23	251.21	9.4775e-06	2.9414e-06	296.48	147.5	131.91	70.118	8.7714e-06	78.099	0.0014088	0.0014891	0.00041686	656.84	1.5892e-05	1.638e-05	680.13	255.03	1.5965e-05	1.6656e-05	302.9	148.21	133.34	70.729	1.6562e-05	78.572	259.139	237.979	154.681	72.325	197.453	217.109	71.517	78.387	206.486	195.671	75.737	79.060	81.752	85.830	203.714	81.691	-8191	255	
1631.521	1	1	0	0	0.13287	0.11599	0.22096	0.39662	0.14342	0.1848	0.34713	0.15545	0.14458	0.16036	0.24496	0.05311	0.083861	0.25543	0.19964	0.056528	-0.01875	0.52292	0.27708	-0.35	0.63542	-0.10833	-0.10208	0.64583	-0.26667	0.41042	0.24792	-0.51667	0.45833	-0.46042	0.12292	0.38542	302.272	219.506	174.638	356.640	323.789	142.086	369.117	127.407	88.594	158.521	382.321	340.590	207.949	322.129	192.837	85.197	0.0008704	0.0012637	0.00012863	650.12	1.2014e-05	9.2479e-06	677.5	250.05	7.3817e-06	6.693e-06	296.25	147.7	131.6	69.588	1.1967e-05	78.012	0.0014317	0.00152	0.00042244	655.67	1.613e-05	1.6622e-05	681.37	254.63	1.6269e-05	1.6688e-05	303.29	148.4	132.95	70.561	1.6427e-05	78.479	257.739	174.240	93.162	72.494	238.592	194.631	71.526	78.068	243.883	244.128	75.055	78.871	81.407	85.861	208.043	81.322	-8191	255	
1631.642	1	1	0	0	0.18106	0.11785	0.1448	0.075697	0.22513	0.089126	0.065628	0.15533	0.14256	0.045792	0.22688	0.08573	0.14088	0.3926	0.096237	0.1923	-0.0375	0.38125	0.3	-0.34792	0.6625	-0.052083	-0.12083	0.55625	-0.12917	0.43542	0.3875	-0.18333	0.58542	-0.2625	-0.022917	0.50625	229.161	216.909	380.385	70.876	362.003	369.183	208.295	101.693	361.163	98.034	398.974	367.756	392.905	381.402	185.038	88.618	0.00092993	0.00030791	0.00017971	650.29	1.6055e-05	4.4971e-06	679.76	251.55	9.4857e-06	8.1708e-06	298.75	146.39	131.15	69.552	4.347e-06	77.334	0.0014438	0.0015142	0.00042522	658.86	1.6128e-05	1.6766e-05	683.97	255.93	1.6188e-05	1.6558e-05	304.4	147.24	132.46	70.379	1.6321e-05	78.001	258.393	120.269	117.296	72.519	259.738	284.861	71.392	78.392	261.603	169.282	75.512	78.960	81.443	85.619	292.045	81.253	-8191	255	
1631.738	1	1	0	0	0.19387	0.11823	0.19417	0.17806	0.096572	0.15484	0.086279	0.14	0.029926	0.10863	0.16574	0.30002	0.061312	0.12418	0.26361	0.15496	0.3125	0.3125	0.47708	-0.35208	0.44792	0.010417	-0.3375	0.575	-0.22917	0.31042	0.60417	-0.52917	0.37292	-0.041667	-0.31875	0.53542	104.804	72.269	283.992	205.478	249.957	211.778	332.147	213.271	174.884	89.600	259.447	360.107	191.917	82.078	321.342	276.001	0.00083768	0.0004228	0.00027888	648.53	7.4374e-06	6.6862e-06	678.82	252.11	7.5464e-06	7.4646e-06	297.96	146.75	131.57	69.414	2.9235e-06	77.317	0.00143	0.0014963	0.00041647	656.28	1.6063e-05	1.6376e-05	683.48	255.53	1.6219e-05	1.6782e-05	304.01	147.74	132.75	70.343	1.6339e-05	77.92	250.094	156.039	174.815	72.588	275.958	150.262	71.468	78.310	194.261	252.777	75.269	79.227	81.888	85.295	123.731	81.265	-8191	255	
1631.834	1	1	0	0	0.25724	0.079512	0.11627	0.19489	0.20515	0.23572	0.12534	0.2208	0.21129	0.32561	0.15086	0.23417	0.22239	0.15808	0.11513	0.44597	0.225	0.21042	0.65208	-0.28125	0.48958	0.075	-0.35833	0.37917	-0.1	0.13958	0.38542	-0.35625	0.26667	0.23125	-0.24167	0.32083	74.714	407.192	362.291	112.869	111.324	195.916	365.696	336.515	322.572	405.631	98.169	333.545	86.943	343.780	415.595	314.474	0.00094703	0.00031193	0.00028921	647.47	8.1281e-06	1.0909e-05	674.48	251.69	7.2434e-06	7.0182e-06	297.56	147.1	131.85	69.61	9.0344e-06	77.939	0.001439	0.0015171	0.00041119	655.99	1.6123e-05	1.6663e-05	680.45	255.59	1.6219e-05	1.651e-05	303.6	148.19	133.01	70.509	1.6419e-05	78.449	264.737	215.676	155.756	72.738	281.885	193.532	71.457	77.826	203.594	249.259	75.341	78.960	81.216	85.529	222.265	81.396	-8191	255	
1631.930	1	1	0	0	0.1938	0.11256	0.19692	0.13303	0.11118	0.11313	0.25439	0.12915	0.047623	0.16691	0.2353	0.32756	0.10545	0.046133	0.067214	0.18713	0.26458	0.016667	0.65625	-0.175	0.36875	0.3375	-0.24792	0.15833	-0.027083	-0.033333	0.36875	-0.41458	0.095833	0.32083	-0.4125	0.3625	299.492	270.058	132.238	79.139	303.625	165.508	331.181	413.846	317.174	197.058	92.497	413.950	403.487	197.344	207.501	90.856	0.0010137	0.00044142	0.00015862	649.82	1.2547e-05	1.2032e-05	679.84	251.82	8.4575e-06	1.0452e-05	301.71	148.08	132.45	69.528	4.4071e-06	78.37	0.0014587	0.0015132	0.00041601	656.86	1.6314e-05	1.6557e-05	682.76	255.64	1.6419e-05	1.6604e-05	306.16	149.71	133.68	70.51	1.6414e-05	78.763	258.323	177.414	90.164	72.217	265.103	207.059	71.034	77.863	201.152	125.265	75.208	79.227	81.909	85.964	242.972	81.721	-8191	255	
1632.026	1	1	0	0	0.1565	0.047744	0.0214	0.035261	0.17388	0.050548	0.12441	0.4112	0.12348	0.19866	0.20362	0.16064	0.16904	0.22695	0.12812	0.029861	0.5	-0.15417	0.7375	-0.23958	0.15417	0.2625	-0.54375	0.26042	0.10208	-0.45833	0.48125	-0.23958	-0.10625	0.425	-0.31875	0.19583	253.757	257.141	281.001	148.676	346.444	221.239	308.616	308.114	77.104	83.746	316.006	407.576	272.012	100.496	244.157	420.424	0.00089004	0.00073725	0.00019114	642.98	5.2236e-06	1.8812e-06	674.26	252.18	6.1489e-06	1.0251e-05	299.18	146.65	130.75	68.711	9.2028e-06	77.004	0.0014496	0.001498	0.00042425	655.38	1.6367e-05	1.662e-05	681.92	255.85	1.6751e-05	1.6792e-05	305.2	147.65	132.15	69.697	1.6608e-05	77.32	257.198	132.220	151.210	72.958	261.700	175.839	72.071	78.496	258.449	210.740	75.365	79.341	82.080	85.952	243.805	81.770	-8191	255	
1632.122	1	1	0	0	0.25888	0.092558	0.17583	0.11824	0.25747	0.34006	0.38632	0.33244	0.11775	0.11334	0.12658	0.33999	0.41798	0.18323	0.32593	0.32871	0.48958	0.025	0.46667	-0.37083	0.16667	0.6125	-0.41667	0.32083	0.31042	-0.29583	0.53333	-0.25417	-0.083333	0.40417	-0.34792	-0.0083333	256.663	274.007	171.696	112.247	198.147	406.365	415.840	150.024	168.106	166.210	94.504	65.948	401.464	369.279	139.687	403.628	0.00083543	0.00086837	0.0002676	651.16	7.3702e-06	6.9268e-06	681.46	250.03	2.7321e-06	7.7287e-06	298.59	144.32	129.29	68.6	1.1341e-05	76.561	0.0014617	0.0015243	0.00042878	661.47	1.6263e-05	1.6466e-05	685.21	255.88	1.6344e-05	1.6809e-05	304.6	145.72	130.64	69.522	1.6746e-05	77.24	247.735	166.813	160.500	72.770	237.100	213.372	71.651	78.262	87.245	189.508	75.277	78.818	81.523	85.535	222.322	81.441	-8191	255	
1632.217	1	1	0	0	0.30487	0.20479	0.20505	0.16587	0.14881	0.15326	0.35131	0.27319	0.35554	0.047015	0.14723	0.33372	0.32329	0.072423	0.11331	0.23723	0.75	-0.09375	0.69375	-0.070833	-0.0375	0.61042	-0.31458	0.40417	0.35833	-0.425	0.34583	-0.070833	-0.37292	0.46458	-0.29375	-0.047917	353.719	341.325	112.080	410.791	320.287	395.955	409.874	418.116	99.832	116.226	358.888	101.580	389.520	334.872	252.056	351.807	0.00086835	0.000332	0.00012837	654.02	7.2536e-06	7.3634e-06	684.66	250.04	5.7932e-06	1.3287e-05	298.05	144.19	129.13	68.615	1.047e-05	76.609	0.0014605	0.0015292	0.0004317	660.79	1.6327e-05	1.7051e-05	687	254.66	1.656e-05	1.6912e-05	304.67	146.07	130.62	69.438	1.7169e-05	77.413	258.615	237.188	154.750	72.707	204.724	203.169	71.259	77.765	288.542	205.032	75.041	78.967	81.602	85.466	212.094	81.408	-8191	255	
1632.337	1	1	0	0	0.13377	0.11672	0.12442	0.18945	0.25362	0.1878	0.15996	0.10582	0.19875	0.17673	0.25741	0.2156	0.46772	0.4021	0.11423	0.056772	0.8	-0.30833	0.58542	0.033333	-0.21875	0.67917	-0.26042	0.05625	0.57708	-0.32292	0.2625	0.22917	-0.36875	0.42292	0.16458	-0.21458	314.835	61.996	172.628	390.112	330.567	338.266	329.790	393.613	138.977	419.675	379.334	330.595	405.965	88.870	207.271	310.345	0.0009249	0.00099279	0.00015418	651.28	8.3272e-06	6.6537e-06	680.3	250.87	3.1762e-06	1.1061e-05	299.43	145.85	130.53	68.602	2.4925e-06	77.245	0.001458	0.0015449	0.00043376	661.59	1.657e-05	1.6778e-05	687.72	254.86	1.6821e-05	1.7165e-05	305.54	147.5	131.54	69.63	1.7202e-05	77.837	252.758	109.564	94.703	72.348	211.719	186.431	71.337	78.095	279.110	190.767	75.489	79.426	81.906	85.818	188.168	81.710	-8191	255	
1632.433	1	1	0	0	0.30061	0.19355	0.051853	0.20705	0.27663	0.096557	0.15788	0.20726	0.13583	0.10756	0.1752	0.26901	0.16231	0.20238	0.38054	0.26237	0.82292	-0.2125	0.47292	0.41667	-0.21667	0.71667	-0.029167	-0.25833	0.56667	-0.22708	0.19375	0.3	-0.35	0.36042	0.29792	-0.15625	405.940	379.929	108.915	396.697	380.326	267.537	229.629	335.683	114.550	125.887	142.695	315.966	415.774	348.413	243.693	304.990	0.00088866	0.0014102	0.00013498	649.94	6.7766e-06	7.3758e-06	684.27	252.4	9.4862e-06	1.5779e-05	299.38	146.76	130.03	68.558	1.7981e-05	77.131	0.0014798	0.0015674	0.00043289	659.92	1.6647e-05	1.7142e-05	685.26	255.91	1.6588e-05	1.7545e-05	304.98	147.61	132.03	69.606	1.7121e-05	77.649	257.606	132.028	132.356	72.975	271.206	245.340	71.802	78.371	107.103	235.405	75.171	78.797	82.056	85.921	228.201	81.520	-8191	255	
1632.530	1	1	0	0	0.18108	0.043039	0.13481	0.25344	0.24189	0.29286	0.23952	0.1358	0.10959	0.22848	0.28351	0.068516	0.23944	0.23101	0.15422	0.43794	0.67292	-0.15417	0.39375	0.35208	-0.38125	0.68125	-0.016667	-0.24167	0.59583	-0.029167	-0.085417	0.5	-0.4	0.25625	0.1375	-0.3125	188.905	283.823	404.168	320.765	197.292	391.508	353.295	373.638	79.114	246.135	75.898	336.946	384.222	381.716	212.060	390.417	0.00090757	0.00023821	3.2872e-05	649.92	4.6057e-06	8.6209e-06	677.72	251.24	8.673e-06	1.5435e-05	295.91	144.77	129.75	68.734	1.0953e-05	77.295	0.0014931	0.0015618	0.00043725	658.23	1.6871e-05	1.7341e-05	683.54	255.44	1.6776e-05	1.7442e-05	304.48	146.71	131.65	69.575	1.7145e-05	77.669	252.175	123.663	120.414	72.601	131.532	216.402	71.516	78.045	182.887	208.616	75.278	79.558	81.976	85.821	249.118	81.532	-8191	255	
1632.601	1	1	0	0	0.18315	0.063915	0.017576	0.2132	0.23307	0.11149	0.27015	0.3079	0.19131	0.052493	0.13939	0.20003	0.25999	0.28579	0.16706	0.089937	0.91875	-0.18542	0.0125	0.47917	-0.16875	0.3125	0.1375	-0.1875	0.58542	-0.045833	-0.10208	0.31458	-0.525	0.17083	0.44375	-0.40417	355.320	111.940	84.201	399.283	273.829	407.786	370.764	158.421	411.267	132.943	377.743	290.222	69.569	351.792	60.933	125.225	0.00084745	0.00051231	0.00015662	656.35	2.0226e-06	5.3233e-06	685.83	251.87	1.0996e-05	7.034e-06	299	143.72	127.88	68.219	9.4368e-06	76.373	0.0014776	0.0015778	0.00044549	663.12	1.6981e-05	1.7374e-05	690.05	256.21	1.6733e-05	1.743e-05	306.02	145.09	129.86	68.974	1.6965e-05	77.186	258.378	142.451	97.731	72.951	294.318	173.906	71.227	78.307	259.646	199.406	75.469	79.073	81.461	85.486	280.168	81.427	-8191	255	
1632.722	1	1	0	0	0.061607	0.070995	0.16568	0.091401	0.15706	0.28203	0.12074	0.21134	0.21445	0.23014	0.25657	0.13025	0.11188	0.095406	0.088392	0.10358	0.97917	-0.16042	-0.01875	0.48333	-0.28125	0.5	0.27917	-0.49583	0.59583	-0.033333	-0.28958	0.53958	-0.28125	-0.039583	0.37083	-0.40208	227.677	321.894	145.065	327.829	232.595	215.375	357.849	303.308	91.592	358.541	294.254	114.544	89.306	148.535	104.685	396.311	0.00096243	0.00082846	0.00030085	656.93	6.5639e-06	8.4455e-06	686.73	251.59	1.2761e-06	1.0963e-05	299.56	143.85	128.44	68.06	7.0304e-06	76.201	0.0014987	0.0015764	0.00043684	665.04	1.7059e-05	1.7116e-05	691.75	255.96	1.7082e-05	1.7295e-05	306.02	145.12	129.74	68.811	1.7004e-05	76.821	256.127	133.938	144.229	72.542	237.694	164.742	71.554	78.299	152.428	213.400	74.885	78.958	81.728	85.649	197.624	81.813	-8191	255	
1632.818	1	1	0	0	0.081201	0.28202	0.042552	0.26798	0.24883	0.098355	0.26129	0.28358	0.20573	0.16838	0.40027	0.16024	0.2204	0.32286	0.22224	0.2359	0.8125	-0.22917	-0.2875	0.42917	-0.32083	0.225	0.34583	-0.40208	0.58125	0.1875	-0.16667	0.36667	-0.3375	-0.25417	0.36458	-0.48125	340.604	68.902	231.944	69.981	366.812	367.007	390.503	373.141	82.702	176.823	65.217	286.316	314.984	371.860	358.567	65.312	0.00089579	0.00045984	0.00020653	656.31	5.8178e-06	8.1113e-07	684.66	252.13	6.6758e-06	6.9519e-06	298.52	142.85	128.17	68.001	6.6746e-06	75.904	0.0014997	0.0015891	0.00043925	664.57	1.714e-05	1.7326e-05	689.12	256.07	1.7008e-05	1.7127e-05	305.1	144.88	129.91	68.785	1.7075e-05	76.66	262.296	170.484	167.684	73.100	220.600	112.204	71.806	78.046	219.126	164.113	75.407	79.192	81.747	85.556	214.083	81.165	-8191	255	
1632.914	1	1	0	0	0.089675	0.29912	0.1326	0.32309	0.089571	0.18548	0.2657	0.27619	0.24038	0.30709	0.10577	0.11353	0.27098	0.28498	0.22901	0.1048	0.79583	0.23125	-0.19375	0.3875	-0.17708	0.027083	0.42083	-0.63958	0.28958	0.25417	-0.35625	0.43958	-0.15208	-0.24375	0.57917	-0.50417	251.449	314.989	245.707	356.438	362.353	399.821	402.701	159.761	263.004	87.315	61.590	366.105	340.979	330.815	332.762	369.605	0.00096985	0.00077452	0.00015547	653.18	1.1455e-05	6.4742e-06	685.13	251.44	9.528e-06	4.9195e-06	299.04	144.98	129.75	68.255	1.16e-05	76.178	0.0014975	0.0015574	0.00043886	663.22	1.6881e-05	1.716e-05	687.88	255.83	1.6873e-05	1.6814e-05	305.57	146.48	131.14	69.154	1.7134e-05	77.193	253.680	177.887	177.372	72.885	260.002	252.159	71.416	77.697	251.164	186.102	75.090	78.774	81.334	85.434	209.845	81.153	-8191	255	
1633.010	1	1	0	0	0.22369	0.13009	0.16332	0.22868	0.07625	0.058166	0.185	0.060389	0.13097	0.14442	0.15606	0.25398	0.11665	0.18788	0.14934	0.19817	0.57708	0.32917	-0.32292	0.28542	-0.0375	-0.00625	0.41042	-0.3875	0.097917	0.65417	-0.45833	0.38333	0.13125	-0.35	0.58958	-0.28958	98.411	412.863	153.074	409.844	254.246	271.437	256.798	326.815	391.062	195.072	375.395	139.943	109.626	85.664	234.365	101.021	0.00096643	0.0011028	0.00036831	655.39	1.0831e-05	5.8484e-06	680.29	251.97	1.0375e-05	1.2253e-05	299.35	147.01	129.96	68.178	9.2563e-06	77.3	0.0014929	0.0015467	0.00044102	662.46	1.6862e-05	1.7063e-05	687.87	256.72	1.6894e-05	1.7352e-05	307.55	148.27	132.08	69.169	1.7226e-05	77.786	258.224	169.796	164.696	72.485	271.896	283.548	71.494	77.853	223.559	206.539	75.024	79.009	81.763	85.183	189.430	81.451	-8191	255	
1633.131	1	1	0	0	0.30506	0.044504	0.15499	0.1132	0.23646	0.083478	0.025338	0.25139	0.22939	0.14331	0.29465	0.17754	0.42163	0.17492	0.12202	0.15593	0.35208	0.49583	-0.26875	0.25833	0.175	-0.25	0.43958	-0.24375	-0.085417	0.53125	-0.44167	0.26042	0.23958	-0.34375	0.32708	-0.21667	206.515	309.932	298.210	359.172	396.043	228.926	131.639	124.494	252.022	376.418	323.558	333.518	355.218	413.059	379.634	310.228	0.00090331	0.00089317	0.00015466	649.23	5.2734e-06	3.8334e-06	685.2	251.67	3.635e-06	5.3249e-06	301.82	145.12	128.5	67.76	1.7824e-06	76.386	0.0014888	0.001554	0.00043713	660.33	1.6802e-05	1.7129e-05	689.33	256.31	1.687e-05	1.722e-05	307.71	146.58	130.37	68.759	1.7336e-05	76.853	261.769	132.086	164.652	72.218	313.537	227.625	71.013	77.589	259.259	234.813	75.175	78.804	81.475	85.304	198.090	81.220	-8191	255	
1633.203	1	1	0	0	0.13381	0.2288	0.18586	0.34211	0.30776	0.21481	0.072155	0.3359	0.097594	0.076024	0.094854	0.19134	0.25729	0.089186	0.15909	0.2452	0.3125	0.6	-0.35625	0.18125	0.35208	-0.26667	0.43958	0.0375	-0.045833	0.48542	-0.34375	0.24167	0.18542	-0.43542	0.54792	-0.20417	141.035	152.100	159.783	363.928	375.176	91.364	353.975	396.233	357.172	66.568	104.616	417.676	368.624	354.717	199.538	110.037	0.00093646	0.00047532	0.00014487	655.08	1.2524e-05	9.0637e-06	681.3	250.91	1.8937e-06	5.7857e-06	297.83	142.32	127.17	67.185	1.2651e-05	75.662	0.0014815	0.0015587	0.00044514	663.01	1.663e-05	1.7302e-05	688.27	255.47	1.6875e-05	1.7309e-05	304.9	143.9	128.54	68.137	1.7106e-05	76.227	259.092	133.168	133.081	72.742	210.845	227.402	71.667	78.232	241.784	139.795	75.077	78.917	81.624	85.593	221.054	81.462	-8191	255	
1633.322	1	1	0	0	0.099052	0.11473	0.26376	0.15363	0.073125	0.12192	0.32628	0.19181	0.26497	0.18223	0.19594	0.17316	0.10998	0.15664	0.14273	0.4662	0.31042	0.73542	-0.11667	0.15208	0.24792	-0.375	-0.020833	0.085417	-0.20417	0.53542	0.010417	-0.077083	0.2875	-0.34792	0.4125	-0.10625	393.624	372.143	145.522	347.688	334.293	202.046	396.243	288.428	89.292	368.100	373.031	224.344	403.500	66.626	123.860	378.148	0.00085303	0.00027088	5.2946e-05	658.48	5.3445e-06	2.1908e-06	684.94	251.61	9.3371e-07	6.9029e-06	299.25	143.81	127.44	67.249	3.9461e-06	75.849	0.0014742	0.0015642	0.00043601	664.99	1.6802e-05	1.7255e-05	690.15	255.42	1.6632e-05	1.7206e-05	305.49	144.76	129.06	68.297	1.7232e-05	76.415	264.190	145.103	239.037	72.407	257.350	148.010	71.373	78.296	136.824	227.276	75.386	79.258	81.829	85.889	193.400	81.380	-8191	255	
1633.418	1	1	0	0	0.084531	0.022933	0.051419	0.10535	0.11751	0.16164	0.10718	0.16308	0.17427	0.21556	0.1197	0.11072	0.14988	0.29269	0.12408	0.31882	0.27083	0.54375	-0.10208	-0.029167	0.36875	-0.33125	0.42917	0.1125	-0.11667	0.41042	-0.0875	-0.14792	0.43125	-0.2625	0.38333	0.30625	195.087	314.091	370.408	244.975	374.505	388.730	66.968	286.401	344.874	255.880	254.063	156.868	383.559	410.329	204.119	349.823	0.00091134	0.00056147	0.00020007	653.86	8.7363e-06	8.6248e-06	689.59	252.23	4.7295e-06	1.3128e-05	301.63	146.21	129.56	67.769	4.5258e-06	76.844	0.0014788	0.0015882	0.00043642	663.59	1.6798e-05	1.7284e-05	692.05	256.71	1.6882e-05	1.7353e-05	308.95	147.13	130.92	68.612	1.7013e-05	77.192	258.203	222.778	111.842	72.230	200.650	233.191	71.464	77.842	171.986	211.796	75.114	78.726	81.581	85.314	210.471	81.568	-8191	255	
1633.514	1	1	0	0	0.16722	0.10279	0.28616	0.10542	0.074679	0.2291	0.18542	0.30629	0.19582	0.10846	0.13654	0.14262	0.27361	0.21238	0.13673	0.1668	-0.060417	0.59167	0.11042	-0.20208	0.63542	-0.077083	0.097917	0.55625	-0.26042	0.41042	-0.041667	-0.18542	0.35625	-0.47292	0.15417	0.4375	101.098	154.272	269.070	369.284	391.942	182.706	410.543	347.695	305.455	350.883	154.408	386.305	349.904	331.310	132.761	333.788	0.00098267	0.0006397	0.00027433	653.69	3.4928e-06	1.1422e-06	684.71	252.22	7.9448e-06	6.7434e-06	300.58	146.79	129.44	67.737	1.028e-05	76.454	0.0014787	0.0015605	0.00043085	661.34	1.6847e-05	1.7313e-05	689.68	255.98	1.6812e-05	1.7185e-05	307.38	147.95	131.31	68.574	1.7022e-05	76.904	251.420	120.735	124.177	72.252	245.372	354.526	71.085	77.809	232.734	265.098	74.947	78.835	81.268	85.530	291.084	81.630	-8191	255	
1633.610	1	1	0	0	0.16208	0.36306	0.089774	0.35701	0.15897	0.19796	0.30973	0.13043	0.08116	0.30883	0.28339	0.2637	0.237	0.26978	0.15886	0.10852	0.010417	0.40208	0.19792	-0.39792	0.57083	-0.05625	0.054167	0.4	-0.43333	0.45208	0.19792	-0.26875	0.42708	-0.18542	-0.083333	0.37708	161.420	62.234	72.895	348.895	370.699	346.443	291.254	235.770	246.755	384.907	392.451	416.819	374.123	93.054	88.858	411.464	0.00099457	0.00020667	0.00042905	647.78	1.05e-05	6.8807e-06	676.34	248.89	3.2947e-06	1.3028e-05	295.3	143.82	127.66	67.313	7.0135e-06	75.325	0.0015043	0.0015571	0.00043549	656.9	1.6954e-05	1.723e-05	681.58	253.22	1.7051e-05	1.7399e-05	302.72	145.16	129.2	68.165	1.6959e-05	75.945	260.076	166.370	155.481	72.581	250.843	179.179	71.878	77.826	118.230	215.159	75.534	79.164	81.621	85.770	291.484	82.281	-8191	255	
1633.731	1	1	0	0	0.086741	0.19803	0.15499	0.15901	0.061736	0.14375	0.23235	0.16259	0.28237	0.17252	0.068292	0.26271	0.15271	0.083717	0.1742	0.13266	0.11667	0.56875	0.33125	-0.37292	0.60417	-0.08125	-0.21458	0.57083	-0.20833	0.22292	0.30625	-0.41667	0.42708	-0.10625	-0.064583	0.45625	197.492	238.213	111.834	387.429	107.152	379.327	409.088	276.628	303.603	360.972	132.134	309.317	116.681	254.842	255.751	84.050	0.00089804	0.0011778	0.00031843	650.5	7.0819e-06	8.2276e-06	676.09	248.48	1.2442e-05	8.1597e-06	295.79	141.04	125.06	66.332	6.9714e-06	75.164	0.001503	0.0015746	0.00043604	662.74	1.7079e-05	1.7158e-05	686.07	253.32	1.6961e-05	1.7143e-05	302.68	143.05	127.19	67.516	1.6976e-05	75.852	263.852	192.295	162.583	73.173	212.952	176.728	72.103	78.345	216.352	173.986	75.726	79.534	82.336	86.167	259.414	81.722	-8191	255	
1633.827	1	1	0	0	0.15708	0.13287	0.19888	0.19098	0.032536	0.045448	0.092898	0.09692	0.079039	0.18874	0.19765	0.24168	0.19567	0.34489	0.064555	0.12424	-0.0125	0.24375	0.42917	-0.50417	0.48125	0.27708	-0.083333	0.49375	-0.020833	0.17708	0.46667	-0.475	0.36875	0.070833	-0.225	0.31458	237.364	185.687	331.126	83.343	398.543	337.670	388.861	120.981	232.861	378.789	186.798	335.314	353.108	292.491	309.714	233.065	0.00078565	0.00078518	7.7687e-05	654.27	3.3225e-06	4.4621e-06	683.44	248.67	7.5351e-06	1.0581e-05	295.41	142.68	125.88	66.469	1.3215e-05	75.268	0.0014992	0.0015335	0.00043543	661.67	1.6792e-05	1.7032e-05	687.55	252.95	1.7024e-05	1.7171e-05	303.62	144.13	127.56	67.618	1.6915e-05	75.988	258.252	162.388	261.117	72.449	130.974	234.332	71.158	77.600	153.707	170.855	74.860	78.394	81.175	85.369	281.838	81.372	-8191	255	
1633.898	1	1	0	0	0.076738	0.093411	0.15103	0.10652	0.041325	0.083826	0.071498	0.28098	0.12821	0.12942	0.037095	0.1113	0.21322	0.11021	0.28124	0.13248	0.16875	0.0875	0.52292	-0.34583	0.375	0.039583	-0.32083	0.59792	-0.12917	0.035417	0.45208	-0.45417	0.15833	0.0375	-0.35417	0.44375	259.031	119.373	94.229	389.957	307.834	196.544	308.937	100.997	377.504	187.650	205.872	347.428	358.640	340.856	112.060	377.366	0.00094444	0.00036622	0.0002098	652.04	8.7366e-06	9.2659e-06	682.04	247.69	8.3172e-06	1.5747e-05	295.58	143.12	125.33	66.576	5.8274e-06	75.305	0.0014797	0.0015454	0.00043551	661.05	1.6769e-05	1.7145e-05	686.13	252.21	1.6948e-05	1.7108e-05	302.36	144.48	127.72	67.526	1.6917e-05	75.982	253.702	157.994	140.978	72.362	237.163	202.977	71.494	78.068	284.913	217.565	75.730	79.321	82.107	86.128	261.445	81.570	-8191	255	
1634.019	1	1	0	0	0.10783	0.1425	0.44265	0.29003	0.14112	0.18071	0.31655	0.26099	0.1522	0.11368	0.27445	0.098752	0.19582	0.31305	0.20063	0.17483	0.26458	-0.060417	0.59375	-0.5375	0.34583	0.30208	-0.62708	0.37708	0.10208	-0.13958	0.53958	-0.21042	0.16042	0.4	-0.42292	0.47917	349.170	317.127	376.001	64.374	81.699	93.977	310.458	351.222	177.970	148.905	307.247	287.538	366.797	361.806	126.012	204.186	0.00091946	0.0004341	0.00014232	645.74	5.3835e-06	6.6324e-06	670.74	245.87	7.7828e-06	5.1198e-06	292.31	144.07	126.68	66.785	6.3738e-06	75.298	0.001481	0.0015487	0.00044106	654.06	1.6784e-05	1.6931e-05	676.98	250.06	1.6937e-05	1.6998e-05	300.07	145.16	128.44	67.75	1.7006e-05	76.093	253.276	157.546	94.843	72.538	277.666	200.416	71.660	78.166	237.076	241.523	74.934	78.941	81.320	85.367	210.508	81.497	-8191	255	
1634.115	1	1	0	0	0.20508	0.030796	0.16465	0.11033	0.13719	0.18711	0.35506	0.054819	0.17673	0.11312	0.25432	0.16083	0.16595	0.066248	0.10088	0.10677	0.56458	-0.035417	0.52292	-0.58333	0.029167	0.41875	-0.35	0.18542	0.28542	-0.41458	0.19167	-0.53542	-0.17708	0.34792	-0.34583	0.37083	103.397	402.757	167.816	194.201	400.056	360.900	325.943	385.152	275.861	79.930	417.583	410.329	229.058	320.315	354.245	270.214	0.00089691	0.00039496	0.00027951	643.46	5.7766e-06	6.9396e-06	674.16	244.05	3.2221e-06	5.3325e-06	291.52	144.43	127.19	66.82	1.169e-05	75.295	0.0014872	0.0015618	0.00043998	651.67	1.6649e-05	1.7097e-05	676.71	248.75	1.6694e-05	1.7248e-05	299	145.24	128.46	67.634	1.7402e-05	75.944	262.183	394.291	148.871	72.901	229.727	259.246	70.979	77.888	210.012	233.518	75.234	79.212	81.759	85.628	218.100	81.260	-8191	255	
1634.210	1	1	0	0	0.027953	0.31192	0.077088	0.13004	0.25776	0.19763	0.24702	0.20026	0.16395	0.20682	0.15097	0.43156	0.24326	0.35009	0.039484	0.033562	0.45	-0.10833	0.48125	-0.13958	0.041667	0.47708	-0.29583	0.15	0.39792	-0.33542	0.38125	-0.2875	-0.15	0.3625	-0.34792	0.077083	105.202	157.781	139.316	397.648	260.319	233.801	351.596	384.443	227.721	404.291	392.507	317.804	386.661	408.921	305.772	388.313	0.00086065	0.00035093	4.3196e-05	649.09	7.4526e-06	9.0144e-07	677.98	246.98	8.2167e-06	5.8808e-06	294.14	142.19	124.69	66.079	1.0695e-05	75.41	0.0014664	0.0015568	0.00043655	658.62	1.6524e-05	1.73e-05	684.36	250.93	1.6844e-05	1.7346e-05	301.43	143.6	126.21	67.195	1.6904e-05	75.718	252.779	119.873	372.814	72.391	166.105	156.943	71.225	77.746	255.485	199.002	74.555	78.847	81.159	84.978	214.732	80.935	-8191	255	
#DATA ENDS
