BOXY.EXE: ISS Imagent and Oximeter Data Acquisition Program Version 0.80
Ascii Record File

#ACQ INFORMATION
2  Detector Channels 
16  External MUX Channels 
1  Auxiliary Channels 
5000  Waveform (CCF) Frequency (Hz)
1  Waveforms Skipped 
30  Waveforms Averaged 
1  Cycles Averaged 
16  Acquisitions per Waveform 
10.0806  Updata Rate (Hz) 

#FILE INFORMATION
TRUE -- External MUX Channel results are PARSED.
FALSE -- AC DC and Phase are NOT grouped.
TRUE -- Companion Program Settings File CREATED.
FALSE -- AC data not excluded
FALSE -- DC data not excluded
FALSE -- Phase data not excluded
FALSE -- Auxillary Chn. data not excluded
Tab delimiters

#CALIBRATION STATE
TRUE -- Waveform Calibration Values APPLIED.


#AUX CALIBRATION VALUES
Val Type	aux-1	

Term	1.0000e+00	
Factor	0.0000e+00	


#WF CALIBRATION VALUES
A = Detector Channel
Val Type	A-AC1	A-AC2	A-AC3	A-AC4	A-AC5	A-AC6	A-AC7	A-AC8	A-AC9	A-AC10	A-AC11	A-AC12	A-AC13	A-AC14	A-AC15	A-AC16	A-DC1	A-DC2	A-DC3	A-DC4	A-DC5	A-DC6	A-DC7	A-DC8	A-DC9	A-DC10	A-DC11	A-DC12	A-DC13	A-DC14	A-DC15	A-DC16	A-Ph1	A-Ph2	A-Ph3	A-Ph4	A-Ph5	A-Ph6	A-Ph7	A-Ph8	A-Ph9	A-Ph10	A-Ph11	A-Ph12	A-Ph13	A-Ph14	A-Ph15	A-Ph16	

Term	0.00000e+00	0.00000e+00	0.00000e+00	0.00000e+00	0.00000e+00	0.00000e+00	0.00000e+00	0.00000e+00	0.00000e+00	0.00000e+00	0.00000e+00	0.00000e+00	0.00000e+00	0.00000e+00	0.00000e+00	0.00000e+00	0.00000e+00	0.00000e+00	0.00000e+00	0.00000e+00	0.00000e+00	0.00000e+00	0.00000e+00	0.00000e+00	0.00000e+00	0.00000e+00	0.00000e+00	0.00000e+00	0.00000e+00	0.00000e+00	0.00000e+00	0.00000e+00	0.00000e+00	0.00000e+00	0.00000e+00	0.00000e+00	0.00000e+00	0.00000e+00	0.00000e+00	0.00000e+00	0.00000e+00	0.00000e+00	0.00000e+00	0.00000e+00	0.00000e+00	0.00000e+00	0.00000e+00	0.00000e+00	
Factor	1.00000e+00	1.00000e+00	1.00000e+00	1.00000e+00	1.00000e+00	1.00000e+00	1.00000e+00	1.00000e+00	1.00000e+00	1.00000e+00	1.00000e+00	1.00000e+00	1.00000e+00	1.00000e+00	1.00000e+00	1.00000e+00	1.00000e+00	1.00000e+00	1.00000e+00	1.00000e+00	1.00000e+00	1.00000e+00	1.00000e+00	1.00000e+00	1.00000e+00	1.00000e+00	1.00000e+00	1.00000e+00	1.00000e+00	1.00000e+00	1.00000e+00	1.00000e+00	X	X	X	X	X	X	X	X	X	X	X	X	X	X	X	X	

B = Detector Channel
Val Type	B-AC1	B-AC2	B-AC3	B-AC4	B-AC5	B-AC6	B-AC7	B-AC8	B-AC9	B-AC10	B-AC11	B-AC12	B-AC13	B-AC14	B-AC15	B-AC16	B-DC1	B-DC2	B-DC3	B-DC4	B-DC5	B-DC6	B-DC7	B-DC8	B-DC9	B-DC10	B-DC11	B-DC12	B-DC13	B-DC14	B-DC15	B-DC16	B-Ph1	B-Ph2	B-Ph3	B-Ph4	B-Ph5	B-Ph6	B-Ph7	B-Ph8	B-Ph9	B-Ph10	B-Ph11	B-Ph12	B-Ph13	B-Ph14	B-Ph15	B-Ph16	

Term	0.00000e+00	0.00000e+00	0.00000e+00	0.00000e+00	0.00000e+00	0.00000e+00	0.00000e+00	0.00000e+00	0.00000e+00	0.00000e+00	0.00000e+00	0.00000e+00	0.00000e+00	0.00000e+00	0.00000e+00	0.00000e+00	0.00000e+00	0.00000e+00	0.00000e+00	0.00000e+00	0.00000e+00	0.00000e+00	0.00000e+00	0.00000e+00	0.00000e+00	0.00000e+00	0.00000e+00	0.00000e+00	0.00000e+00	0.00000e+00	0.00000e+00	0.00000e+00	-6.18844e+01	-1.31176e+02	-1.30945e+02	-1.82064e+02	-5.12520e+01	-6.31214e+01	-1.57560e+02	-1.62015e+02	-4.68082e+01	-6.38604e+01	-1.72371e+02	-1.70432e+02	-1.78256e+02	-1.76759e+02	-5.34657e+01	-1.49349e+02	
Factor	1.65308e-05	1.37929e-04	3.69494e-05	1.57704e-01	1.33523e-06	1.42652e-06	1.70755e-01	4.46573e-02	1.03347e-06	1.38636e-06	7.56219e-02	2.61641e-02	2.21170e-02	8.12295e-03	1.35262e-06	1.13021e-02	1.00626e-05	1.67098e-05	4.71134e-06	8.54066e-02	1.71346e-07	1.86818e-07	8.69103e-02	2.43396e-02	1.67811e-07	1.87038e-07	3.98308e-02	1.38576e-02	1.22449e-02	4.47032e-03	1.76786e-07	6.00929e-03	X	X	X	X	X	X	X	X	X	X	X	X	X	X	X	X	



#DISTANCE SETTINGS
A = Detector Channel
A-1	A-2	A-3	A-4	A-5	A-6	A-7	A-8	A-9	A-10	A-11	A-12	A-13	A-14	A-15	A-16	

2.5000e+00	3.0000e+00	2.5000e+00	3.0000e+00	2.0000e+00	3.0000e+00	1.5000e+00	3.0000e+00	3.0000e+00	3.0000e+00	3.0000e+00	3.0000e+00	3.0000e+00	3.0000e+00	1.5000e+00	3.0000e+00	

B = Detector Channel
B-1	B-2	B-3	B-4	B-5	B-6	B-7	B-8	B-9	B-10	B-11	B-12	B-13	B-14	B-15	B-16	

1.0000e+01	1.0000e+01	1.0000e+01	1.4400e+00	1.0000e+01	1.0000e+01	1.5100e+00	1.9400e+00	1.0000e+01	1.0000e+01	1.9900e+00	2.4900e+00	2.4100e+00	2.9000e+00	1.0000e+01	2.9800e+00	




#DATA BEGINS
time	group	step	mark	flag	A-AC1	A-AC2	A-AC3	A-AC4	A-AC5	A-AC6	A-AC7	A-AC8	A-AC9	A-AC10	A-AC11	A-AC12	A-AC13	A-AC14	A-AC15	A-AC16	A-DC1	A-DC2	A-DC3	A-DC4	A-DC5	A-DC6	A-DC7	A-DC8	A-DC9	A-DC10	A-DC11	A-DC12	A-DC13	A-DC14	A-DC15	A-DC16	A-Ph1	A-Ph2	A-Ph3	A-Ph4	A-Ph5	A-Ph6	A-Ph7	A-Ph8	A-Ph9	A-Ph10	A-Ph11	A-Ph12	A-Ph13	A-Ph14	A-Ph15	A-Ph16	B-AC1	B-AC2	B-AC3	B-AC4	B-AC5	B-AC6	B-AC7	B-AC8	B-AC9	B-AC10	B-AC11	B-AC12	B-AC13	B-AC14	B-AC15	B-AC16	B-DC1	B-DC2	B-DC3	B-DC4	B-DC5	B-DC6	B-DC7	B-DC8	B-DC9	B-DC10	B-DC11	B-DC12	B-DC13	B-DC14	B-DC15	B-DC16	B-Ph1	B-Ph2	B-Ph3	B-Ph4	B-Ph5	B-Ph6	B-Ph7	B-Ph8	B-Ph9	B-Ph10	B-Ph11	B-Ph12	B-Ph13	B-Ph14	B-Ph15	B-Ph16	aux-1	digaux	

1193.917	1	1	0	512	0.079866	0.062108	0.21061	0.28257	0.21751	0.063909	0.16684	0.12136	0.079026	0.14935	0.23162	0.31419	0.093758	0.061451	0.31166	0.3394	-0.58958	-1.725	-0.83125	-1.3417	-1.5208	-0.54583	-1.7625	-1.4229	-0.77083	-1.7854	-0.84792	-1.3604	-1.7333	-0.97083	-1.6417	-1.3792	109.091	212.945	418.077	367.640	292.427	261.280	287.985	413.595	259.425	376.373	367.389	289.718	81.188	301.006	171.970	389.007	0.00044415	0.0003745	0.00018192	1391.4	5.6751e-06	4.5523e-06	1179.3	438.99	6.3887e-06	4.2342e-06	416.18	139.35	157.41	58.248	6.9849e-06	53.81	0.00072128	0.00083793	0.00024589	1302.5	9.1542e-06	9.3004e-06	1101.4	413.79	9.1754e-06	9.1271e-06	390.11	131.81	148.62	55.475	9.3722e-06	50.925	226.059	142.441	156.063	78.219	250.880	227.486	77.239	82.919	237.253	196.947	80.736	85.102	87.315	92.578	230.153	88.617	-8191	255	
1194.037	1	1	0	0	0.38162	0.12429	0.090142	0.26329	0.27542	0.22494	0.29204	0.41859	0.27838	0.26052	0.15862	0.19822	0.20444	0.29944	0.071045	0.2271	-0.26875	-1.5583	-0.99375	-1.4792	-1.6458	-1.0938	-1.6542	-1.45	-1.0646	-1.875	-1.1896	-1.2563	-1.9979	-1.0438	-1.6708	-1.8479	236.696	408.822	273.036	378.891	277.268	400.063	391.292	395.805	408.733	244.272	91.614	382.197	376.792	381.788	358.504	386.325	0.00049693	0.00044247	0.00014438	1384.9	8.7253e-06	6.0609e-06	1183.7	438.66	5.1448e-06	5.844e-06	417.83	139.75	156.73	58.302	5.0926e-06	53.936	0.00072176	0.00080573	0.00024225	1299.6	8.814e-06	9.3086e-06	1106.3	413.4	8.7818e-06	9.0885e-06	391.23	132.34	148.45	55.629	9.2076e-06	51.128	223.899	145.252	175.533	78.211	236.942	217.543	77.302	83.134	221.105	183.963	80.847	85.171	87.790	92.478	236.118	88.672	-8191	255	
1194.132	1	1	0	0	0.12521	0.30792	0.12292	0.32929	0.10532	0.16517	0.29368	0.33372	0.20104	0.16932	0.062727	0.06524	0.061682	0.24711	0.14217	0.082653	-0.475	-1.6479	-1.1396	-1.3458	-1.7646	-0.95625	-1.4937	-1.7917	-0.82917	-1.7208	-1.3188	-1.2687	-1.925	-0.99792	-1.4813	-1.875	292.233	406.256	155.604	381.089	331.584	208.589	286.088	407.924	143.243	380.674	319.189	111.446	361.136	404.808	204.693	142.943	0.0004406	0.00063573	0.00012369	1387.6	3.6248e-06	5.4044e-06	1180	439.62	5.3988e-06	7.5407e-06	412.24	139.14	157.63	58.375	7.5867e-06	53.516	0.00070922	0.00084127	0.00024293	1298.2	8.7979e-06	9.3728e-06	1099.3	413.34	9.0496e-06	9.1921e-06	388.33	131.36	148.68	55.534	9.5089e-06	50.64	229.453	139.746	134.927	78.300	216.918	204.373	77.521	83.373	238.807	234.056	80.713	85.342	87.221	92.564	206.641	88.659	-8191	255	
1194.230	1	1	0	0	0.21155	0.081743	0.12536	0.27843	0.27415	0.11525	0.1417	0.0053878	0.085146	0.13767	0.1363	0.031532	0.20029	0.099596	0.21583	0.35376	-0.35208	-1.4354	-1.1729	-1.1729	-1.7104	-1.1271	-1.2896	-1.8271	-0.84792	-1.6146	-1.4521	-1.1	-1.9396	-1.2125	-1.1083	-1.8625	166.505	275.457	414.987	73.301	255.761	106.294	362.467	378.327	241.024	356.169	415.492	235.512	82.845	399.671	265.315	404.888	0.00047779	0.00031226	0.00023422	1375.7	6.8234e-06	6.3586e-06	1167.7	435.08	3.6214e-06	7.4155e-06	408.25	137.94	156.08	57.777	6.1393e-06	53.239	0.00072107	0.00084155	0.00024551	1291.1	9.0424e-06	9.5246e-06	1091.6	410.59	8.7119e-06	9.5066e-06	385.46	130.41	147.46	55.111	9.43e-06	50.445	223.632	132.671	142.968	78.422	227.601	210.091	77.592	83.126	227.066	233.568	80.945	85.253	87.741	92.485	240.160	89.048	-8191	255	
1194.324	1	1	0	0	0.12056	0.2702	0.16152	0.093669	0.20968	0.16439	0.1602	0.28328	0.014871	0.12884	0.25893	0.101	0.15506	0.35533	0.10873	0.10467	-0.63125	-1.5208	-1.4479	-1.0208	-1.8604	-1.05	-1.3146	-1.8833	-1.0333	-1.5229	-1.5375	-1.0708	-1.6854	-1.1542	-1.1021	-1.7	365.844	244.098	168.359	417.625	367.559	294.432	365.572	337.670	257.684	181.549	349.789	403.429	321.525	72.038	337.467	385.316	0.00043312	0.00084582	0.0001591	1376	7.5082e-06	3.0638e-06	1163.2	436.45	4.5094e-06	6.002e-06	411.15	137.55	156.1	57.828	4.0798e-06	53.613	0.00069621	0.00089509	0.00023868	1290	8.8996e-06	9.2409e-06	1089.7	411.06	9.0957e-06	9.4088e-06	386.85	130.49	147.65	55.215	9.4367e-06	50.84	222.752	168.357	182.695	78.365	231.428	222.343	76.972	83.245	240.369	220.267	80.797	85.167	87.727	92.601	224.472	88.599	-8191	255	
1194.420	1	1	0	0	0.32236	0.37602	0.13606	0.2885	0.20361	0.050569	0.26136	0.27727	0.20893	0.029516	0.05674	0.15486	0.19275	0.37141	0.13111	0.14897	-0.40833	-1.3354	-1.4896	-0.80625	-1.6833	-1.2	-1.275	-2.0167	-0.92708	-1.3479	-1.6167	-1.0562	-1.9729	-1.3458	-0.90625	-1.8979	412.131	134.335	126.175	79.148	305.811	319.389	392.314	298.091	274.287	123.601	388.701	373.326	346.343	415.831	315.237	293.864	0.00044648	0.00033414	0.00011628	1377.2	7.7013e-06	4.4556e-06	1175.9	437.44	5.7402e-06	7.6392e-06	412.36	140.08	156.91	58.08	9.1449e-06	54.272	0.00072369	0.00084144	0.00023852	1294.4	9.1249e-06	9.5086e-06	1097.1	412.56	9.2272e-06	9.4236e-06	388.95	132.19	148.62	55.524	9.303e-06	51.383	228.319	169.858	132.992	78.069	251.627	225.776	77.097	83.233	220.482	193.782	80.239	85.344	87.675	92.257	224.678	88.740	-8191	255	
1194.516	1	1	0	0	0.04598	0.31293	0.044863	0.18623	0.25896	0.081833	0.11899	0.24739	0.099374	0.16105	0.36355	0.41688	0.26355	0.081711	0.036811	0.17456	-0.65833	-1.2313	-1.3292	-0.94583	-1.6125	-1.2667	-1.0875	-1.8229	-1.0292	-1.1229	-1.7646	-0.975	-1.65	-1.6313	-0.91667	-1.7042	278.887	101.124	306.946	371.597	136.054	142.589	70.175	69.460	293.911	132.307	381.489	371.440	380.660	270.881	239.572	361.897	0.00050111	0.00049778	0.00015096	1386.1	5.0028e-06	3.7635e-06	1178.1	441.38	3.0797e-06	5.8829e-06	418.77	140.37	158.03	58.502	4.5627e-06	54.477	0.00075367	0.00088197	0.00023491	1297	9.3277e-06	9.5121e-06	1103.8	415.54	9.4978e-06	9.4423e-06	393.04	132.84	149.81	55.867	9.426e-06	51.556	222.983	157.158	145.417	78.120	209.099	205.594	77.333	82.998	226.265	210.702	79.658	84.178	86.394	91.052	265.135	87.327	-8191	255	
1194.637	1	1	0	0	0.18212	0.15554	0.25368	0.055797	0.14023	0.16065	0.16631	0.22921	0.16247	0.26203	0.21485	0.14858	0.12063	0.32884	0.1245	0.068603	-0.57917	-1.1688	-1.7604	-0.93958	-1.3083	-1.3438	-0.93958	-1.725	-1.1333	-1.1604	-1.7917	-0.95	-1.6	-1.6063	-0.81458	-1.9083	248.569	368.085	135.657	170.140	141.608	156.262	376.755	331.585	251.830	173.896	358.038	365.341	415.201	404.382	189.249	157.019	0.00051299	0.00075169	0.00010279	1393.4	5.7342e-06	2.3151e-06	1188.4	440.77	4.9397e-06	7.596e-06	416.75	140.24	157.7	58.206	7.9699e-06	54.392	0.00073455	0.00086811	0.00023504	1305.4	9.2516e-06	9.4829e-06	1109.2	416.06	9.3069e-06	9.7119e-06	392.12	132.56	149.35	55.667	9.4068e-06	51.37	228.996	160.103	171.350	76.776	251.579	192.261	76.163	81.779	246.494	231.424	79.630	84.009	86.249	91.179	234.008	87.733	-8191	255	
1194.733	1	1	0	0	0.1885	0.20001	0.31254	0.14563	0.11816	0.10266	0.14493	0.2563	0.21614	0.23381	0.36013	0.15624	0.33453	0.22374	0.22095	0.23344	-0.86875	-0.85417	-1.7	-1.0729	-1.4229	-1.4562	-1.1125	-1.6854	-1.2563	-0.92917	-1.7646	-1.0938	-1.35	-1.6812	-0.82708	-1.7167	247.974	289.742	326.028	370.878	354.702	190.759	383.992	395.192	271.612	144.344	74.003	135.667	343.770	65.523	171.585	354.420	0.00046045	0.00071434	0.00018663	1391	6.217e-06	5.1384e-06	1186.1	439.5	5.0516e-06	7.1506e-06	415.29	140.55	157.63	58.29	6.5883e-06	54.211	0.00072954	0.00088061	0.00024068	1304.2	9.3733e-06	9.4942e-06	1107.1	415.04	9.3247e-06	9.3659e-06	391.18	132.81	149.33	55.646	9.4054e-06	51.302	228.898	139.747	127.454	76.934	254.923	216.287	76.113	82.040	224.058	230.022	80.030	83.882	86.432	91.139	202.607	88.017	-8191	255	
1194.829	1	1	0	0	0.13564	0.13403	0.046814	0.19496	0.068511	0.066683	0.30151	0.43186	0.29845	0.05728	0.049654	0.093883	0.16317	0.098413	0.1058	0.30545	-0.85833	-0.81667	-1.5729	-1.1854	-1.0875	-1.6604	-1.0625	-1.6146	-1.3917	-0.84583	-1.7833	-1.1667	-1.2604	-1.8229	-0.80625	-1.5667	355.576	364.644	246.791	366.647	101.366	311.957	340.616	367.209	64.393	116.964	335.242	201.641	350.168	89.269	214.175	369.224	0.00049451	0.00048471	0.00018646	1390.7	9.9644e-06	1.8246e-06	1184.9	439.48	7.9049e-06	7.5385e-06	418.51	140.38	156.83	58.238	5.4877e-06	54.057	0.00073516	0.00087326	0.00024742	1304.3	9.0881e-06	9.495e-06	1107.1	415.63	9.2852e-06	9.2868e-06	392.28	132.78	149.02	55.61	9.2695e-06	51.346	223.528	131.356	147.938	77.121	246.102	206.775	76.139	82.178	242.618	206.954	79.952	84.090	86.630	91.601	218.688	87.929	-8191	255	
1194.901	1	1	0	0	0.13107	0.11065	0.3561	0.14324	0.2281	0.1864	0.22478	0.36561	0.28533	0.17224	0.15929	0.13744	0.18197	0.18061	0.06344	0.26761	-1.1625	-0.825	-1.6458	-1.2042	-1.0458	-1.775	-1.0667	-1.5688	-1.3833	-0.84583	-1.7979	-1.2771	-1.1375	-1.775	-0.89167	-1.5146	127.329	67.931	165.134	353.907	83.594	206.963	369.399	319.059	315.942	386.384	363.796	394.188	396.354	94.554	288.277	308.589	0.00041964	0.00067869	0.00021892	1387.5	4.1771e-06	5.8394e-06	1187.2	440.9	6.7033e-06	8.1362e-06	418.61	140.9	157.3	58.131	6.5957e-06	54.188	0.00070656	0.00086202	0.0002425	1303.7	9.3194e-06	9.8282e-06	1109.8	415.5	9.115e-06	9.7801e-06	393.78	132.91	149.25	55.66	9.8757e-06	51.461	221.180	136.324	150.361	77.052	241.718	226.025	76.195	82.404	260.813	208.957	79.597	84.025	86.846	91.397	233.233	87.916	-8191	255	
1194.997	1	1	0	0	0.049277	0.35819	0.12849	0.33591	0.23477	0.19934	0.20676	0.29343	0.10893	0.19641	0.13616	0.16532	0.077346	0.17031	0.05213	0.24946	-1.1875	-0.72083	-1.6437	-1.3104	-1.025	-1.85	-1.1063	-1.5333	-1.5229	-0.73958	-1.5875	-1.2604	-1.1604	-1.8875	-1.0646	-1.2042	376.315	370.317	283.034	415.275	70.872	142.779	317.782	368.649	291.429	244.526	397.085	407.922	303.544	87.487	411.363	345.497	0.00042418	0.00064494	0.00018341	1387.6	7.4541e-06	6.3744e-06	1184.2	441.04	5.212e-06	4.7718e-06	415.88	140.81	156.94	58.157	6.3594e-06	53.787	0.00071447	0.00091566	0.00024411	1299.8	9.6015e-06	9.8449e-06	1106.6	414.81	8.9506e-06	9.8694e-06	391.42	132.67	148.89	55.552	9.7103e-06	51.163	228.867	132.369	151.306	77.178	225.872	219.187	76.347	82.264	234.531	201.414	80.231	84.065	86.746	91.784	257.457	88.229	-8191	255	
1195.116	1	1	0	0	0.07267	0.072005	0.14841	0.30649	0.2566	0.20006	0.23279	0.20449	0.25684	0.18508	0.20525	0.18541	0.15783	0.090053	0.17653	0.013083	-1.3229	-0.83542	-1.5229	-1.3333	-0.95	-1.4937	-1.2417	-1.5875	-1.5625	-0.86458	-1.7771	-1.4438	-1.1063	-1.7896	-1.0125	-1.2708	404.297	372.744	196.073	389.350	309.709	373.626	359.586	342.019	393.396	247.018	403.048	191.811	95.099	70.052	268.106	368.232	0.0004576	0.00095936	0.00016544	1384.7	5.821e-06	6.7675e-06	1180.3	437.1	6.4389e-06	9.598e-06	415.47	138.76	155.63	57.773	9.2268e-06	53.834	0.00071585	0.00089039	0.00023904	1299.1	9.0817e-06	9.5219e-06	1100.9	413.11	9.0765e-06	9.5908e-06	388.88	131.1	147.77	55.063	9.5103e-06	50.559	227.744	155.985	147.854	77.037	224.311	229.461	76.398	82.560	238.186	217.053	80.146	84.306	86.790	91.570	219.058	88.094	-8191	255	
1195.212	1	1	0	0	0.26064	0.090509	0.22774	0.12826	0.088525	0.090559	0.42269	0.35959	0.39231	0.099982	0.25818	0.19333	0.20752	0.42244	0.1674	0.063067	-1.0938	-0.64375	-1.5146	-1.5812	-0.77292	-1.9104	-1.275	-1.1792	-1.6771	-0.99167	-1.3687	-1.6229	-0.88542	-1.8458	-1.2479	-1.05	420.685	131.963	161.417	396.799	196.167	398.632	400.981	392.113	335.807	75.897	407.571	78.199	65.222	387.226	227.476	103.601	0.00048697	0.00070648	0.00016234	1382.6	3.3702e-06	5.9484e-06	1173.3	436	5.4608e-06	5.7466e-06	414.47	138.59	156.13	57.808	4.9715e-06	53.463	0.00070558	0.00086487	0.0002372	1293.4	9.1402e-06	9.8091e-06	1096.3	411.29	8.8234e-06	9.5572e-06	388.52	130.84	147.72	55.229	9.5313e-06	50.685	227.883	189.321	121.521	77.307	233.101	195.958	76.366	82.449	231.795	217.340	80.232	84.255	86.928	92.068	254.856	88.057	-8191	255	
1195.310	1	1	0	0	0.082647	0.25527	0.23229	0.29317	0.20127	0.094946	0.077138	0.066064	0.22232	0.13684	0.14198	0.25285	0.046857	0.3835	0.1379	0.090623	-1.3458	-0.85	-1.25	-1.8146	-0.95208	-1.5562	-1.3708	-1.1833	-1.7563	-1.0021	-1.5479	-1.7792	-1.1646	-1.7021	-1.4104	-1.0479	360.958	140.636	394.231	70.307	214.494	204.094	149.797	414.908	405.980	373.242	364.150	417.294	224.018	124.792	163.808	241.389	0.00044236	0.00068742	0.0001236	1372.7	6.8866e-06	8.6672e-06	1165.8	435.05	3.8438e-06	3.454e-06	413.2	138.85	155.69	57.898	7.6629e-06	53.956	0.00072736	0.00088931	0.00024663	1286.4	9.151e-06	9.6581e-06	1092.3	410.69	9.0496e-06	9.6765e-06	388.63	131.54	147.48	55.333	9.2043e-06	51.018	227.811	129.514	152.283	77.343	234.995	187.100	76.555	82.628	224.073	194.874	80.040	84.547	87.138	91.938	226.992	88.101	-8191	255	
1195.429	1	1	0	0	0.27782	0.15133	0.18033	0.25518	0.11916	0.033722	0.15333	0.34745	0.19159	0.14267	0.083924	0.10859	0.30153	0.17563	0.19957	0.17063	-1.3729	-0.97083	-1.1958	-1.8729	-0.8	-1.5063	-1.5396	-1.0229	-1.6688	-1.175	-1.1583	-1.7604	-0.98125	-1.6167	-1.3354	-0.94583	395.146	318.378	234.030	386.868	350.954	408.575	382.505	353.536	242.270	349.791	384.713	296.006	402.399	368.348	295.492	370.170	0.00045892	0.00053808	0.00019948	1369.7	6.914e-06	9.176e-06	1173.8	436.99	6.8022e-06	2.1706e-06	415.05	138.74	156.76	58.336	8.2481e-06	54.004	0.00072002	0.00086536	0.00024631	1285.8	9.3248e-06	9.5865e-06	1096.3	411.86	9.324e-06	9.5292e-06	389.97	131.61	148.15	55.689	9.5125e-06	51.248	225.594	143.579	137.091	77.620	205.352	229.407	76.767	82.603	230.478	218.154	80.231	84.358	86.992	92.212	226.189	88.047	-8191	255	
1195.501	1	1	0	0	0.1914	0.18819	0.14955	0.16728	0.21681	0.20776	0.16295	0.3881	0.033331	0.12688	0.12697	0.22217	0.30716	0.12534	0.15478	0.24202	-1.3396	-1.0667	-0.95208	-1.9146	-0.80625	-1.4854	-1.7354	-1.1021	-1.65	-1.1646	-1.1104	-1.7167	-0.98958	-1.3542	-1.6333	-1.1021	294.675	70.766	347.772	364.048	81.067	179.418	323.662	352.984	124.738	181.999	239.202	112.520	398.306	380.811	212.951	349.829	0.0004294	0.00082908	0.00024399	1379.4	7.2004e-06	6.8875e-06	1174.5	437.97	6.1586e-06	9.4097e-06	414.87	140.55	156.22	58.447	5.846e-06	53.888	0.00071723	0.00087072	0.00023942	1293.6	9.5147e-06	9.5834e-06	1098.5	412.85	9.5013e-06	9.5923e-06	390.81	132.4	148.27	55.777	9.3582e-06	51.362	231.331	152.140	123.456	77.725	224.853	239.889	76.524	82.799	259.403	203.585	80.232	84.509	86.628	92.195	231.214	88.495	-8191	255	
1195.597	1	1	0	0	0.18309	0.12956	0.22829	0.34977	0.31873	0.051025	0.064813	0.52846	0.14521	0.31252	0.15921	0.26116	0.30427	0.11024	0.15735	0.1671	-1.1646	-1.4083	-1	-1.925	-0.91667	-1.1521	-1.7417	-0.94583	-1.3	-1.2	-0.98125	-1.7938	-1.0812	-1.2292	-1.6104	-0.88125	191.967	388.361	282.447	340.141	421.302	229.092	77.058	399.237	322.695	109.092	110.681	355.237	380.287	80.286	419.308	262.944	0.00045527	0.00077327	0.0001826	1376.6	6.7047e-06	5.2001e-06	1173.6	437.41	5.5483e-06	4.6483e-06	414.79	139.83	156.81	58.153	7.5927e-06	53.797	0.00074855	0.00086759	0.00023203	1292.7	9.222e-06	9.5627e-06	1096	412.72	9.0898e-06	9.1048e-06	388.77	131.89	148.35	55.547	9.0978e-06	51.164	222.304	123.371	144.395	77.518	251.670	233.714	76.544	82.603	248.511	242.966	80.540	84.924	87.083	92.365	239.274	88.606	-8191	255	
1195.717	1	1	0	0	0.092001	0.065654	0.12092	0.36783	0.2706	0.1398	0.30125	0.23284	0.3023	0.11057	0.24468	0.31063	0.14663	0.25344	0.21184	0.10634	-1.1125	-1.0625	-1.0521	-1.7604	-0.95625	-1.0292	-1.6667	-0.98333	-1.4688	-1.3396	-0.98542	-1.7646	-1.3271	-1.2042	-1.6792	-0.87083	303.664	421.808	253.492	357.512	393.219	338.362	320.078	379.273	378.211	384.880	312.955	402.873	310.975	353.130	250.339	280.086	0.00045637	0.00037508	0.0002185	1384.6	6.5432e-06	7.5873e-06	1174.2	437.62	4.3339e-06	4.4866e-06	415.63	140.42	156.28	58.311	7.2259e-06	54.027	0.00072124	0.00082505	0.00023916	1295.3	9.1599e-06	9.2444e-06	1099.1	413.58	8.9174e-06	9.4466e-06	390.98	132.64	148.43	55.746	9.1733e-06	51.362	231.778	153.752	177.446	77.547	234.885	209.975	76.637	82.754	230.546	225.655	80.220	84.660	87.354	92.367	238.643	88.978	-8191	255	
1195.813	1	1	0	0	0.12518	0.4083	0.31219	0.34685	0.123	0.12055	0.4835	0.38581	0.11659	0.2876	0.12669	0.061854	0.54993	0.22159	0.15874	0.37084	-0.96667	-1.4292	-1.0375	-1.7479	-1.1521	-1.1979	-1.9292	-1.1792	-1.175	-1.475	-1.0125	-1.6313	-1.4625	-1.1542	-1.6521	-1.1063	354.015	113.364	364.203	338.137	235.645	284.742	271.751	369.212	76.890	243.764	108.345	220.230	421.344	85.762	412.626	385.210	0.00045276	0.00086963	0.00010844	1389.9	7.7603e-06	5.8932e-06	1181.3	440.7	6.3988e-06	5.2868e-06	418.49	140.66	158.11	58.777	6.7067e-06	54.77	0.00071159	0.0008466	0.00023356	1301.7	8.9871e-06	9.1829e-06	1106.6	415.29	9.2415e-06	9.0024e-06	393.31	133.25	149.77	55.95	9.1336e-06	51.74	223.400	140.476	131.552	77.827	243.235	228.377	76.735	82.702	241.878	183.519	80.397	84.907	86.881	92.190	262.916	88.227	-8191	255	
1195.910	1	1	0	0	0.24235	0.21367	0.051985	0.43962	0.062283	0.0847	0.29262	0.51622	0.20894	0.12675	0.41818	0.16534	0.059255	0.35048	0.16015	0.17934	-1.125	-1.5833	-0.8375	-1.6479	-1.1729	-0.925	-2.0396	-1.0667	-1.2417	-1.625	-0.87708	-1.6208	-1.6917	-1.1146	-1.775	-1.0125	276.608	312.863	293.461	402.726	120.994	386.369	379.090	385.235	419.784	201.575	403.100	345.777	294.023	113.879	374.571	398.254	0.00042568	0.00078195	0.00016716	1401	4.5945e-06	5.8878e-06	1197.5	444.28	6.6064e-06	9.753e-06	423.53	141.56	157.95	58.562	8.9146e-06	54.972	0.00071277	0.00086122	0.00023896	1310	8.7326e-06	9.5168e-06	1117.7	417.61	9.4688e-06	9.4403e-06	397.47	134.15	149.75	55.865	9.2956e-06	52.045	230.735	142.387	140.136	77.837	266.331	213.980	76.698	82.866	261.580	214.982	80.470	85.041	87.138	92.093	238.389	88.799	-8191	255	
1196.030	1	1	0	0	0.19887	0.24626	0.092625	0.34531	0.16613	0.28459	0.48491	0.15773	0.13521	0.055911	0.11831	0.43517	0.020265	0.35242	0.060938	0.36688	-0.70417	-1.6187	-0.80208	-1.6583	-1.4104	-0.88333	-1.7625	-1.3375	-0.96458	-1.55	-0.7625	-1.5583	-1.4771	-1.0875	-1.525	-1.1979	94.992	222.086	277.486	386.040	327.361	391.973	345.784	82.038	257.575	77.433	372.415	315.169	176.121	357.930	424.616	372.080	0.00046381	0.00068637	0.00017364	1410	8.5402e-06	6.1465e-06	1196.2	444.65	2.7398e-06	4.1406e-06	420.87	141.64	158.98	58.07	6.6206e-06	54.196	0.0006992	0.00085554	0.0002513	1316.6	9.1795e-06	9.5203e-06	1119.1	418.38	8.8139e-06	9.447e-06	395.99	134.04	149.92	55.731	9.0209e-06	51.402	228.310	158.264	162.485	78.073	224.050	242.916	76.981	83.012	251.509	243.128	80.599	85.065	86.869	92.417	249.015	88.819	-8191	255	
1196.126	1	1	0	0	0.12817	0.24867	0.25374	0.25366	0.28401	0.26917	0.19355	0.33651	0.21906	0.092663	0.39467	0.28091	0.43305	0.11878	0.087003	0.30253	-0.61458	-1.6313	-0.76458	-1.4271	-1.3937	-0.81458	-1.7333	-1.4062	-0.80833	-1.8708	-1.1354	-1.4292	-1.6354	-1.1083	-1.4792	-1.4688	102.154	194.787	162.380	75.788	342.998	373.834	388.027	370.228	170.884	335.350	78.694	66.138	401.592	419.465	322.728	324.765	0.00041093	0.00061275	0.0001186	1399.9	6.6739e-06	6.1171e-06	1191.7	443.35	5.3635e-06	9.2403e-06	420.8	141.3	157.29	58.162	7.672e-06	54.067	0.00069449	0.00083358	0.00023467	1312.6	9.0217e-06	9.9768e-06	1116.5	417.02	8.843e-06	9.1419e-06	394.55	133.05	148.94	55.467	9.5788e-06	51.174	230.015	186.305	169.506	77.967	228.948	223.926	77.026	82.994	281.079	238.904	80.835	85.358	87.418	92.314	237.388	88.738	-8191	255	
1196.198	1	1	0	0	0.044314	0.077814	0.14962	0.40233	0.27193	0.044421	0.21946	0.33156	0.12974	0.11182	0.30188	0.2528	0.22602	0.18144	0.22066	0.35521	-0.48958	-1.4396	-1.1042	-1.5146	-1.7896	-0.99375	-1.6521	-1.5271	-0.81042	-1.4708	-1.15	-1.2708	-1.6667	-0.84792	-1.5333	-1.3271	202.089	149.719	114.550	394.579	116.338	283.006	348.826	383.891	75.786	331.646	407.537	304.654	71.403	119.555	326.807	405.611	0.00046197	0.0007556	0.00017761	1396.7	5.515e-06	9.2953e-06	1197.8	442.17	4.7264e-06	5.3561e-06	417.49	140.45	157.32	58.008	8.8661e-06	54.06	0.00071956	0.00084607	0.00024041	1309.8	8.9289e-06	9.4783e-06	1115.6	416.12	8.6846e-06	9.046e-06	392.32	132.63	148.7	55.459	9.251e-06	51.23	225.835	157.261	179.113	78.450	267.657	200.033	77.012	83.115	251.849	216.404	80.875	85.321	87.346	92.292	233.904	88.709	-8191	255	
1196.317	1	1	0	0	0.2741	0.24055	0.1556	0.25349	0.2121	0.12981	0.17814	0.3157	0.067212	0.1518	0.32921	0.24641	0.36908	0.3707	0.0032867	0.12996	-0.33125	-1.6437	-0.94375	-1.2083	-1.5542	-0.82708	-1.5646	-1.6646	-0.75208	-1.6417	-1.3729	-1.0896	-1.8604	-0.89792	-1.3792	-1.6063	247.361	331.766	83.549	356.952	75.252	169.861	186.883	376.898	139.842	257.048	328.305	396.135	387.428	68.313	71.723	405.379	0.00044065	0.00049421	0.00018539	1394.2	6.2159e-06	2.4274e-06	1189.8	440.33	5.3612e-06	4.9393e-06	415.68	140.97	157.48	58.268	4.7275e-06	54.56	0.00070803	0.00083184	0.00022898	1305.2	8.7444e-06	9.4148e-06	1111.9	415.57	9.0863e-06	9.3819e-06	392.74	133.01	148.5	55.604	8.8702e-06	51.437	233.797	85.317	138.482	78.203	214.550	200.129	77.439	83.236	247.721	210.311	80.529	85.268	87.297	92.812	217.035	88.736	-8191	255	
1196.413	1	1	0	0	0.13762	0.11893	0.17835	0.22139	0.11185	0.094139	0.1707	0.13948	0.23068	0.21584	0.32107	0.26252	0.25232	0.19487	0.051279	0.15151	-0.4625	-1.6333	-0.875	-1.0375	-1.6083	-1.0354	-1.3604	-1.6792	-1.0187	-1.6458	-1.3146	-0.93333	-1.7979	-1.0729	-1.1542	-1.5875	197.046	150.119	317.973	354.941	224.135	160.547	302.772	137.631	278.819	222.064	315.681	295.628	343.893	383.048	270.698	138.763	0.00044515	0.00070517	0.0002253	1396.9	4.9438e-06	5.5902e-06	1193.3	439.43	6.4566e-06	3.5753e-06	419.56	140.2	156.67	58.351	8.1291e-06	54.203	0.00070885	0.00080409	0.00024035	1305.3	8.9478e-06	9.4113e-06	1113.8	414.04	8.7223e-06	9.4567e-06	393.01	132.89	148.37	55.651	9.4602e-06	51.561	231.286	169.566	149.102	78.405	236.223	215.580	77.355	83.301	236.469	180.869	81.109	85.544	87.661	92.822	215.022	88.855	-8191	255	
1196.509	1	1	0	0	0.17686	0.22435	0.075886	0.28026	0.18467	0.17669	0.38749	0.37265	0.038006	0.039025	0.13165	0.080228	0.051268	0.10678	0.24701	0.15563	-0.24583	-1.6187	-1.2396	-1.1437	-1.5375	-1.0208	-1.2188	-1.5771	-0.88333	-1.5729	-1.2167	-0.98542	-1.9583	-1.0271	-0.98958	-1.6083	348.365	380.229	150.606	401.799	241.115	376.615	357.498	346.477	414.523	239.816	307.691	115.688	273.757	390.055	149.787	404.166	0.00045108	0.00052537	0.00018417	1380.7	6.2451e-06	7.7507e-06	1187.9	441.09	5.9723e-06	6.6562e-06	416.75	140.08	156.27	58.181	7.9659e-06	54.137	0.00071346	0.00082285	0.00023238	1298	8.8757e-06	9.3206e-06	1110.2	414.97	8.9947e-06	8.7974e-06	391.93	132.4	148.22	55.54	9.2621e-06	51.3	230.328	145.214	119.328	78.644	218.272	198.810	77.306	83.471	261.213	208.595	80.788	85.655	87.857	92.778	260.055	89.312	-8191	255	
1196.605	1	1	0	0	0.12968	0.32181	0.036033	0.18338	0.015853	0.17541	0.36535	0.34428	0.078847	0.2793	0.080217	0.27697	0.32819	0.31708	0.12932	0.055997	-0.56667	-1.325	-1.2833	-0.98125	-1.575	-1.1333	-1.1688	-1.8542	-1.0729	-1.3083	-1.6542	-0.84167	-1.9312	-1.3771	-0.95208	-1.5646	404.353	135.557	422.402	388.038	196.144	123.166	358.180	389.782	316.889	280.966	150.408	223.372	332.905	385.057	421.049	142.901	0.00053036	0.00054778	0.00014589	1392.1	8.7921e-06	4.7191e-06	1183.3	440.48	5.1333e-06	5.6352e-06	415.01	139.65	156.47	58.477	5.6543e-06	54.281	0.00073847	0.00079758	0.00023709	1301.2	9.2548e-06	8.9626e-06	1105.6	414.57	8.8965e-06	9.0398e-06	390.32	132.07	148.48	55.731	9.1682e-06	51.341	228.185	127.456	137.701	78.300	233.818	235.173	77.218	83.203	234.733	201.025	80.832	85.583	87.821	92.485	259.090	89.144	-8191	255	
1196.726	1	1	0	0	0.079983	0.10385	0.11391	0.18927	0.3299	0.095189	0.13109	0.52125	0.14295	0.04276	0.50887	0.22906	0.17958	0.082909	0.13266	0.041184	-0.55417	-1.1958	-1.4375	-0.9375	-1.4937	-1.1437	-0.95208	-1.7854	-0.96875	-1.1854	-1.5167	-0.80833	-1.5458	-1.4167	-0.83333	-1.7604	266.227	388.560	95.142	363.006	164.184	150.127	100.354	379.943	407.961	253.252	414.215	364.403	323.622	279.363	132.072	265.227	0.00048138	0.00059325	0.00019109	1388.2	6.8523e-06	5.5619e-06	1182.5	440.62	4.4499e-06	9.149e-06	417.76	140.62	157.56	58.672	7.1518e-06	54.639	0.00070658	0.0008358	0.00022441	1300.3	8.6323e-06	8.8707e-06	1106.9	415.17	8.7115e-06	9.221e-06	392.98	132.6	149.18	56.046	9.2477e-06	51.781	221.525	159.542	144.986	78.486	231.745	218.323	77.304	83.384	225.925	227.331	80.805	85.543	87.823	92.622	230.406	89.326	-8191	255	
1196.798	1	1	0	0	0.16231	0.11399	0.17956	0.37532	0.1503	0.037029	0.17419	0.1693	0.087431	0.16303	0.24522	0.094368	0.22511	0.22989	0.15081	0.21449	-0.49792	-1.0271	-1.4604	-1.1625	-1.5229	-1.3021	-0.9625	-1.8271	-1.1021	-1	-1.8083	-0.92708	-1.6667	-1.3438	-0.86667	-1.8062	241.009	203.168	175.457	401.082	217.511	70.763	410.999	321.225	162.843	230.567	171.346	331.961	90.199	74.952	120.985	383.732	0.00042615	0.00066367	0.00022034	1389.6	6.8082e-06	7.1748e-06	1184.1	442.34	5.3245e-06	4.7259e-06	420.07	142.35	158.66	59.512	5.7854e-06	55.728	0.00071145	0.00086895	0.00024408	1303	8.8432e-06	9.3335e-06	1113.6	417.62	8.765e-06	9.2011e-06	396.86	134.03	150.23	56.513	9.5718e-06	52.521	230.686	146.908	139.979	78.437	228.954	225.665	77.376	83.612	237.246	239.461	80.710	85.464	87.754	92.583	244.278	89.595	-8191	255	
1196.894	1	1	0	0	0.17001	0.091735	0.099443	0.14411	0.14041	0.17581	0.13775	0.37977	0.17411	0.24962	0.055521	0.27749	0.36145	0.1785	0.21131	0.16745	-0.57917	-1.1292	-1.7208	-0.92292	-1.3792	-1.4604	-0.92708	-1.8625	-1.1729	-0.95833	-1.8667	-0.98542	-1.6146	-1.7521	-0.60625	-1.8792	326.869	406.766	141.064	66.474	146.550	316.140	81.274	353.263	165.605	270.097	355.245	346.493	376.196	278.850	195.452	117.460	0.00047426	0.00085556	0.00010827	1400.2	5.021e-06	4.288e-06	1194.7	445.83	3.7214e-06	7.8224e-06	423.86	143.2	159.25	59.055	4.1903e-06	55.602	0.00070449	0.00085137	0.00023708	1313.6	8.9582e-06	9.5456e-06	1122.1	420.77	8.6825e-06	9.7299e-06	398.88	135.26	151.11	56.709	9.38e-06	52.863	230.412	175.617	136.757	78.395	214.410	191.137	77.276	83.561	222.952	213.766	80.954	85.245	87.722	92.605	250.767	89.360	-8191	255	
1196.990	1	1	0	0	0.37477	0.16769	0.38879	0.28204	0.29496	0.44746	0.28755	0.43924	0.22382	0.17805	0.2123	0.19513	0.41752	0.24009	0.27409	0.11214	-0.75417	-0.99792	-1.7188	-1.3	-1.25	-1.6625	-1.1375	-1.6313	-1.4188	-0.91667	-1.8896	-0.98958	-1.2542	-1.9167	-0.74167	-1.5583	258.474	195.630	388.323	86.810	387.751	386.106	412.716	385.526	379.132	72.440	75.247	85.845	413.651	131.977	72.022	102.210	0.00049624	0.00069363	0.00012572	1397.5	4.29e-06	5.1804e-06	1201.7	445.77	4.6035e-06	7.3612e-06	421.24	142.3	158.92	58.943	6.1015e-06	54.554	0.00071235	0.0008609	0.00023935	1315.8	8.6808e-06	9.3024e-06	1124.7	420.82	8.944e-06	9.8148e-06	397.6	134.53	150.6	56.572	9.04e-06	52.1	226.005	175.408	138.280	78.202	267.066	217.381	77.369	83.400	252.063	210.968	80.999	85.306	87.989	92.734	239.828	88.969	-8191	255	
1197.111	1	1	0	0	0.078277	0.061776	0.1623	0.23754	0.026392	0.065404	0.43988	0.21983	0.04407	0.22215	0.27579	0.21068	0.04746	0.3138	0.22519	0.05274	-0.97708	-0.87708	-1.8125	-1.2542	-1.3229	-1.6771	-0.95208	-1.6688	-1.5083	-0.95	-1.7583	-1.1458	-1.2333	-1.6812	-0.84792	-1.4813	330.976	231.080	270.102	412.650	207.504	172.791	341.765	374.144	86.763	141.862	352.883	407.803	286.510	412.124	66.634	327.832	0.00041807	0.000843	0.00011219	1389.1	7.049e-06	4.0327e-06	1188.9	443.33	6.4519e-06	4.5187e-06	418.52	141.59	157.66	58.745	6.7557e-06	54.68	0.00072987	0.00088593	0.00024008	1310	9.0653e-06	9.3876e-06	1117.2	418.55	8.9769e-06	9.6227e-06	396.39	134.03	150.14	56.315	9.4779e-06	52.164	227.129	151.947	160.943	78.215	206.854	190.733	77.352	83.515	227.207	215.274	81.204	85.279	87.960	92.629	235.120	89.029	-8191	255	
1197.205	1	1	0	0	0.10329	0.19962	0.15072	0.20512	0.23123	0.057419	0.27895	0.33566	0.052016	0.21142	0.17196	0.34849	0.2362	0.22464	0.20763	0.29757	-1.1979	-0.725	-1.5562	-1.3771	-0.99375	-1.7271	-1.1063	-1.7104	-1.5417	-0.80625	-1.7375	-1.3958	-1.1146	-1.7125	-0.87708	-1.4188	66.375	241.700	313.809	374.053	337.547	204.256	407.376	358.067	320.474	72.488	367.864	77.917	335.167	331.956	355.995	361.873	0.00047011	0.00063882	0.00025419	1384.6	8.5145e-06	8.2887e-06	1187.6	444.05	5.5259e-06	8.2508e-06	418.23	140.81	157.06	58.641	6.5805e-06	54.797	0.00070662	0.00084186	0.00023277	1304.4	8.7554e-06	9.458e-06	1115.6	418.08	8.9734e-06	9.595e-06	394.42	133.66	149.07	56.078	8.9675e-06	52.008	229.367	155.604	135.776	78.192	238.682	241.749	77.392	83.405	220.509	213.845	80.688	85.560	87.968	92.905	230.894	89.373	-8191	255	
1197.301	1	1	0	0	0.11685	0.12041	0.33993	0.24873	0.35076	0.03568	0.28643	0.19838	0.081764	0.10337	0.22754	0.21553	0.438	0.17672	0.43387	0.097589	-1.3083	-0.6875	-1.4229	-1.5271	-0.95417	-1.575	-1.25	-1.2729	-1.5146	-0.74167	-1.8396	-1.4625	-0.93958	-1.8208	-1.2021	-1.2208	369.527	113.738	395.882	416.191	329.730	163.965	316.626	336.587	120.056	340.174	380.487	384.918	355.926	379.105	124.903	382.139	0.00053054	0.00071514	0.00011742	1384.3	3.314e-06	5.0423e-06	1186.1	439.11	7.7312e-06	5.6692e-06	415.68	140.27	156.49	57.814	6.8794e-06	54.269	0.00074696	0.00087445	0.00023048	1301.2	9.297e-06	9.5071e-06	1113.6	415.26	8.844e-06	9.4602e-06	393.34	133.05	148.98	55.537	9.3096e-06	51.668	226.367	158.960	162.371	78.599	202.018	229.211	77.326	83.427	240.259	228.298	81.474	85.215	87.879	92.798	218.128	89.081	-8191	255	
1197.397	1	1	0	0	0.16765	0.18268	0.10209	0.12882	0.045192	0.097722	0.1662	0.36539	0.056562	0.22431	0.47324	0.14991	0.24248	0.24525	0.15906	0.1941	-1.4521	-0.81458	-1.5187	-1.5229	-0.87292	-1.5458	-1.0812	-1.3167	-1.6938	-1.0708	-1.5312	-1.5083	-0.9	-1.7917	-1.225	-1.1833	98.498	398.618	151.148	359.322	258.467	295.513	355.728	398.348	102.700	75.340	73.451	226.355	224.359	104.309	233.724	305.389	0.00045237	0.0004453	0.0001623	1370.6	6.5664e-06	7.8258e-06	1186	435.69	5.563e-06	4.2257e-06	415.29	139.09	155.97	57.85	8.7739e-06	54.038	0.00071143	0.00084844	0.00022899	1296.7	9.0581e-06	9.4903e-06	1112.8	414.25	8.7339e-06	9.4867e-06	393.81	132.34	148.23	55.508	9.1199e-06	51.441	229.417	152.221	149.629	78.448	237.528	191.161	77.266	83.427	251.853	182.868	81.122	85.249	87.981	92.939	242.101	89.608	-8191	255	
1197.493	1	1	0	0	0.25736	0.1227	0.15254	0.26231	0.23122	0.16807	0.074399	0.18742	0.14059	0.18978	0.085356	0.22637	0.086974	0.20521	0.12231	0.054699	-1.4792	-0.925	-1.3208	-1.5104	-0.77917	-1.5812	-1.2938	-1.2625	-1.6854	-0.88125	-1.3875	-1.5792	-1.0104	-1.6854	-1.2979	-1.0208	375.986	315.296	183.059	419.451	303.032	306.625	307.005	385.209	187.817	115.425	350.288	370.281	384.510	113.352	395.344	169.107	0.00041623	0.00068332	0.00020907	1374	7.0851e-06	6.6527e-06	1173.7	434.85	5.423e-06	7.9228e-06	412.53	138.47	155.08	57.672	9.1479e-06	53.424	0.0007039	0.00086132	0.0002335	1294.3	8.7926e-06	8.8614e-06	1104.7	412.13	8.729e-06	9.2872e-06	390.53	131.59	147.6	55.302	9.1763e-06	51.01	228.063	127.159	166.423	78.520	236.787	244.635	77.642	83.547	247.317	200.176	81.577	85.348	87.854	93.231	225.582	89.409	-8191	255	
1197.590	1	1	0	0	0.19233	0.18678	0.34949	0.27815	0.15626	0.032618	0.092888	0.31951	0.10816	0.16327	0.2681	0.14874	0.22877	0.24151	0.25232	0.31217	-1.7062	-1.0021	-1.2625	-1.9375	-0.92083	-1.6792	-1.5417	-1.15	-1.8917	-1.1083	-1.3354	-1.5875	-0.89167	-1.6271	-1.3167	-1.0292	149.710	106.680	102.631	405.450	252.064	233.754	290.385	294.855	246.693	120.229	212.966	416.697	81.587	85.925	370.261	364.617	0.00046055	0.00033413	0.0002013	1371.7	5.0554e-06	6.4459e-06	1172.9	435.64	4.2009e-06	4.904e-06	411.33	138.67	154.41	57.418	8.8974e-06	52.976	0.00069222	0.00080642	0.0002318	1292.6	8.8932e-06	8.9925e-06	1101.5	412.01	8.6294e-06	8.8169e-06	388.98	131.25	147.27	55.069	9.4875e-06	50.784	229.360	191.816	156.073	78.354	220.759	221.770	77.703	83.561	244.699	202.735	81.051	85.705	88.070	92.824	233.584	89.474	-8191	255	
1197.710	1	1	0	0	0.15493	0.14453	0.075468	0.078431	0.14404	0.33229	0.27617	0.1161	0.18474	0.10841	0.26214	0.12915	0.37628	0.25016	0.13569	0.10883	-1.3062	-1.0125	-1.0125	-1.7146	-0.85417	-1.5833	-1.675	-1.1333	-1.7229	-1.2208	-1.2417	-1.8167	-1.1125	-1.6042	-1.3521	-0.8875	229.961	72.616	69.226	402.391	405.639	202.395	343.235	341.402	124.573	177.624	395.032	378.409	340.733	383.397	93.010	83.618	0.00047392	0.00098087	0.00016337	1361.6	8.3603e-06	6.8405e-06	1167.2	433.51	4.3042e-06	2.4412e-06	410.18	138.42	155.25	57.672	4.8342e-06	53.38	0.0006943	0.00082237	0.00023802	1284.5	8.9735e-06	9.4148e-06	1099.5	411.44	8.8632e-06	9.1372e-06	388.7	131.46	147.59	55.281	9.4547e-06	51.193	229.143	173.704	146.281	78.347	226.766	235.376	77.687	83.591	242.817	266.004	81.203	85.632	87.663	92.945	220.700	89.332	-8191	255	
1197.806	1	1	0	0	0.1746	0.20107	0.16566	0.40359	0.056845	0.17181	0.33939	0.41444	0.08387	0.21242	0.18331	0.19505	0.22573	0.22633	0.2185	0.28215	-1.0646	-1.0688	-1.0417	-1.7792	-0.94792	-1.2875	-1.5604	-1.0187	-1.5896	-1.1021	-0.94167	-1.7958	-1.0646	-1.3896	-1.7042	-1.0979	82.310	368.968	369.753	402.311	376.873	324.897	363.810	364.461	410.748	263.473	400.732	380.617	376.183	405.280	193.284	314.603	0.00044724	0.00074417	0.00018103	1369.6	8.2973e-06	5.3945e-06	1174.1	435.81	5.4954e-06	8.2349e-06	416.55	139.55	154.71	57.726	6.2059e-06	54.013	0.00070874	0.00084224	0.00023803	1290.1	9.3662e-06	9.307e-06	1106.1	412.76	8.8209e-06	9.332e-06	391.79	132.08	147.62	55.467	9.1656e-06	51.447	230.160	160.112	153.516	78.559	218.267	204.616	77.201	83.507	252.983	199.241	81.193	85.782	87.971	93.220	218.578	89.225	-8191	255	
1197.903	1	1	0	0	0.043538	0.13712	0.098544	0.53792	0.044359	0.1787	0.43897	0.18058	0.16098	0.17474	0.064223	0.23167	0.17628	0.25061	0.2144	0.18683	-1.0083	-1.4562	-0.73542	-1.9417	-0.77917	-0.98125	-1.7792	-1.025	-1.3792	-1.4792	-0.92083	-1.9688	-1.2146	-1.1313	-1.6437	-1.1083	324.745	367.143	188.447	370.668	265.817	326.650	359.095	365.150	176.956	92.810	299.940	402.826	407.768	367.068	379.876	334.745	0.00042089	0.00076421	0.00012268	1383.4	8.0239e-06	3.28e-06	1194.8	441.36	6.8051e-06	4.9324e-06	419.06	141.1	156.59	58.331	6.1745e-06	54.814	0.00068998	0.0008766	0.00024345	1299.5	9.1402e-06	9.5686e-06	1113.9	415.71	9.1185e-06	9.7069e-06	394.18	133.45	148.55	55.905	9.5118e-06	51.906	225.159	167.979	158.742	77.134	228.926	211.406	75.717	81.838	226.593	206.303	79.401	83.777	86.206	91.286	204.952	87.585	-8191	255	
1197.999	1	1	0	0	0.35796	0.27621	0.20882	0.32766	0.10106	0.21996	0.19456	0.47019	0.074188	0.16755	0.20789	0.054895	0.24549	0.1064	0.19399	0.04657	-1.0063	-1.2708	-0.79167	-1.8917	-1.1375	-0.8875	-1.875	-1.1396	-1.4542	-1.4167	-0.9875	-1.7479	-1.2354	-1.1375	-1.5542	-0.97708	149.447	403.861	345.536	381.463	109.188	73.949	370.463	327.709	347.373	71.472	373.204	124.447	376.824	260.834	101.326	418.674	0.00044197	0.00039215	0.00012933	1384.5	8.6403e-06	7.2338e-06	1191.2	440.53	5.3149e-06	4.5731e-06	418.55	140.76	156.94	58.221	6.9827e-06	54.224	0.00071174	0.00087309	0.00024382	1299.9	9.4662e-06	9.901e-06	1113.4	415.2	9.3915e-06	9.553e-06	392.81	132.64	148.31	55.549	9.0518e-06	51.395	225.329	137.427	148.496	76.890	217.616	234.010	76.012	81.797	250.844	222.042	79.602	84.119	86.253	91.575	210.934	87.554	-8191	255	
1198.095	1	1	0	0	0.24928	0.024776	0.16137	0.41886	0.31306	0.13867	0.072036	0.5761	0.063061	0.088685	0.1299	0.23039	0.26494	0.43259	0.2788	0.21914	-0.92917	-1.4438	-0.73958	-1.7458	-1.3687	-0.74583	-1.8604	-1.0812	-1.3354	-1.4188	-0.9	-1.675	-1.3396	-0.875	-1.6104	-0.88333	252.007	242.184	241.484	404.914	371.704	150.868	376.422	394.789	383.316	422.580	304.485	387.952	397.812	81.297	268.872	415.967	0.00045424	0.00071658	0.00019784	1380.9	7.1145e-06	4.6742e-06	1190.5	439	5.1041e-06	8.2572e-06	416.64	139.8	156.1	57.621	6.4257e-06	54.191	0.00071577	0.00087476	0.00024103	1299.7	9.0921e-06	9.4794e-06	1114.2	414.12	8.6654e-06	9.5545e-06	392.38	132.43	148.16	55.333	9.0477e-06	51.172	225.201	154.581	142.294	76.933	230.836	211.400	75.857	82.011	255.754	215.015	79.394	84.163	86.477	91.455	234.217	87.399	-8191	255	
1198.189	1	1	0	0	0.21821	0.29859	0.27511	0.25194	0.26866	0.031353	0.087384	0.40285	0.328	0.12522	0.1314	0.17407	0.25959	0.24949	0.2856	0.12637	-0.85208	-1.6854	-0.73125	-1.7021	-1.2875	-0.72292	-1.8375	-1.2021	-1.0021	-1.7896	-1.1708	-1.4562	-1.5042	-1.0646	-1.6542	-1.1167	377.382	109.034	363.413	408.480	184.342	294.908	342.372	397.549	414.534	157.169	366.191	339.311	123.127	321.276	324.634	369.483	0.0004937	0.00057542	0.00021452	1389.3	3.8812e-06	8.7818e-06	1184.4	439.23	6.0734e-06	6.4366e-06	414.38	140.65	156.15	57.684	5.8043e-06	53.414	0.00072004	0.00084573	0.00024586	1299.9	9.1895e-06	9.2222e-06	1112.2	413.94	9.2667e-06	9.6706e-06	390.98	132.35	147.67	55.098	9.0809e-06	50.964	231.578	153.852	135.041	77.185	205.092	226.798	76.023	81.870	228.186	195.608	79.509	84.483	86.384	91.631	252.413	87.907	-8191	255	
1198.285	1	1	0	0	0.15401	0.30421	0.36995	0.14447	0.36954	0.14133	0.17991	0.055587	0.067832	0.14137	0.057359	0.49952	0.42941	0.27629	0.094352	0.34262	-0.575	-1.6979	-0.92292	-1.7229	-1.4646	-0.77917	-1.8042	-1.2292	-0.84167	-1.7188	-1.0938	-1.4917	-1.7917	-1.0063	-1.5583	-1.2021	83.301	389.707	372.163	409.463	333.433	223.614	327.385	415.912	248.837	274.960	80.553	71.578	405.070	363.564	185.830	344.762	0.00047153	0.00052112	0.00019967	1388.9	7.3258e-06	3.0292e-06	1193.8	439.64	6.7351e-06	3.7392e-06	418.75	140.44	156.01	57.519	7.2124e-06	53.515	0.00072117	0.00083671	0.0002323	1302.1	9e-06	9.3e-06	1118.6	414.53	9.1632e-06	8.9833e-06	393.69	132.94	147.77	54.969	9.5357e-06	51.154	226.747	165.351	141.199	77.140	239.579	187.356	76.376	81.712	245.738	239.804	79.574	84.104	86.397	91.494	207.780	87.971	-8191	255	
1198.382	1	1	0	0	0.32421	0.15768	0.16936	0.63116	0.063001	0.071557	0.01854	0.32408	0.10049	0.13471	0.16068	0.047308	0.22913	0.22639	0.11216	0.16211	-0.47292	-1.4625	-0.79792	-1.3875	-1.375	-0.82292	-1.5646	-1.6396	-0.9625	-1.55	-1.075	-1.2542	-1.5396	-1.0875	-1.4542	-1.5917	409.215	251.397	254.748	391.015	242.796	109.912	84.944	378.145	305.977	130.624	390.908	419.790	402.565	353.863	175.004	414.649	0.00049109	0.00055635	0.00017349	1387.3	6.5816e-06	5.8122e-06	1189.2	437.69	6.5183e-06	7.951e-06	414.56	139.68	155.91	57.649	5.5171e-06	53.263	0.00074876	0.0008341	0.0002378	1298.9	9.5029e-06	9.2903e-06	1115	412.65	9.4307e-06	9.2416e-06	391.25	132.16	147.32	54.915	9.3232e-06	50.77	228.393	150.704	162.008	77.481	224.763	208.302	76.301	82.144	232.615	217.385	79.604	84.426	86.640	91.525	190.674	87.645	-8191	255	
1198.502	1	1	0	0	0.18414	0.11865	0.10621	0.56239	0.14124	0.093428	0.5198	0.26272	0.15496	0.16024	0.31944	0.066079	0.12709	0.46509	0.14182	0.12406	-0.47708	-1.4917	-0.87292	-1.1688	-1.6	-0.73333	-1.7167	-1.7062	-0.89375	-1.7062	-1.1521	-1.1208	-1.7917	-0.84583	-1.3604	-1.8167	180.120	266.544	245.582	391.018	275.071	280.618	345.674	399.935	225.997	237.614	333.601	81.525	71.233	87.604	217.648	391.737	0.0004616	0.00038899	0.00014616	1376.5	6.1743e-06	6.5555e-06	1188	434.42	6.0564e-06	6.1508e-06	414.04	139.08	154.59	56.771	7.0501e-06	52.867	0.00069564	0.00084148	0.00023218	1293.5	9.1656e-06	9.1969e-06	1111.2	410.68	8.9783e-06	9.4357e-06	388.5	131.53	146.3	54.248	9.7055e-06	50.141	233.383	133.807	121.658	77.374	217.292	221.013	76.257	82.000	230.234	192.204	79.658	84.285	86.358	91.474	217.566	87.848	-8191	255	
1198.598	1	1	0	0	0.1088	0.20349	0.14085	0.2157	0.15974	0.10792	0.046624	0.29138	0.119	0.17384	0.18847	0.19198	0.092904	0.30877	0.10426	0.017638	-0.3375	-1.5146	-1.0375	-1.1625	-1.6271	-0.79792	-1.5021	-1.7292	-1.0021	-1.5812	-1.2938	-1.1271	-1.5333	-1.0896	-1.3292	-1.6083	372.017	146.036	152.067	385.473	213.927	393.230	97.451	342.351	383.776	402.101	375.260	288.467	318.994	358.613	119.225	149.455	0.00047437	0.00054797	0.00015703	1370.9	4.9242e-06	9.6657e-06	1185.1	433.51	5.7413e-06	2.2136e-06	408.4	137.88	152.34	56.126	5.3538e-06	52.219	0.00070964	0.00083949	0.00023946	1288.6	9.0639e-06	9.4693e-06	1106	408.69	8.9671e-06	9.196e-06	385.51	130.32	144.63	53.581	9.1126e-06	49.559	225.070	150.880	162.054	77.385	215.431	205.299	75.723	81.594	232.107	236.612	79.016	83.727	85.944	90.908	222.956	86.908	-8191	255	
1198.670	1	1	0	0	0.15129	0.16925	0.27163	0.32826	0.092677	0.11408	0.2547	0.099768	0.22012	0.090627	0.032462	0.27151	0.29573	0.19362	0.28901	0.065405	-0.47292	-1.4917	-1.25	-1.1104	-1.5417	-0.90208	-1.4583	-1.7646	-0.85833	-1.5125	-1.2792	-0.62917	-1.7833	-0.88542	-1.0146	-1.7812	205.924	406.071	420.055	377.418	142.922	391.117	367.736	343.635	75.452	371.961	73.391	380.841	389.740	400.761	308.700	349.098	0.00043805	0.00079069	0.00014125	1376.4	7.6432e-06	4.411e-06	1179.6	433.43	4.3697e-06	3.8557e-06	409.25	139.5	153.71	56.327	5.4778e-06	52.864	0.00068384	0.000838	0.00023436	1290.5	8.9214e-06	9.8075e-06	1106.9	408.41	8.93e-06	9.2307e-06	386.4	130.93	145.47	53.87	9.0006e-06	50.108	229.104	158.284	162.974	76.594	208.996	198.299	75.449	81.264	236.629	202.937	79.079	83.644	85.995	90.887	235.003	87.558	-8191	255	
1198.791	1	1	0	0	0.11291	0.31016	0.16296	0.34358	0.080184	0.23004	0.26542	0.18368	0.072403	0.077998	0.15213	0.069919	0.18023	0.19864	0.21832	0.10459	-0.475	-1.3188	-1.2979	-0.94583	-1.4792	-1.0583	-1.1	-1.8333	-0.70833	-1.2625	-1.5562	-0.86042	-1.6271	-1.2208	-0.95208	-1.7188	210.054	304.658	307.596	372.548	379.020	397.464	326.099	338.617	164.786	70.356	104.027	215.631	373.692	402.148	282.836	371.267	0.00044879	0.00043264	0.00025683	1371.7	6.709e-06	5.5398e-06	1182.9	434.3	6.5517e-06	4.0321e-06	412.15	139.69	154.53	56.995	6.086e-06	53.679	0.0007092	0.00082801	0.00023196	1291.4	8.6776e-06	8.9462e-06	1108.5	410.1	9.102e-06	9.6734e-06	388.31	132.03	146.39	54.549	9.2886e-06	50.962	227.089	147.140	156.358	76.667	233.015	199.762	75.954	81.625	224.570	201.188	78.707	83.366	85.948	90.447	224.736	86.886	-8191	255	
1198.887	1	1	0	0	0.1277	0.029622	0.11558	0.27733	0.26937	0.16865	0.30724	0.50096	0.16299	0.11588	0.37068	0.29713	0.18082	0.24832	0.10432	0.39303	-0.3625	-1.3	-1.2812	-0.99583	-1.4083	-1.1	-0.99375	-2.0021	-0.87292	-1.3229	-1.6271	-0.80417	-1.6854	-1.4854	-1.0187	-1.6542	82.161	209.686	377.806	371.986	411.882	395.878	387.687	356.271	283.319	313.477	397.464	397.148	374.584	69.713	103.929	365.855	0.00047869	0.00079572	0.00015789	1378.1	6.7761e-06	3.857e-06	1191.2	437.55	3.2998e-06	7.6937e-06	417.23	140.39	155.69	57.563	5.1188e-06	53.846	0.00070772	0.00086658	0.0002437	1290.8	8.87e-06	9.4102e-06	1112.9	412.67	8.7916e-06	9.6215e-06	391.98	132.91	147.5	55.06	9.4455e-06	51.195	231.579	132.696	148.198	76.287	209.581	215.177	75.163	80.873	252.984	209.848	78.941	83.300	85.615	90.438	197.906	86.872	-8191	255	
1198.983	1	1	0	0	0.1098	0.24941	0.23252	0.25511	0.083482	0.15977	0.20338	0.29616	0.064303	0.17221	0.27299	0.094729	0.1517	0.31945	0.14771	0.029059	-0.54167	-1.0958	-1.5083	-1.0979	-1.4875	-1.3625	-0.9375	-1.7667	-1.2021	-1.2042	-1.8792	-0.89792	-1.6042	-1.5208	-0.8	-1.6917	112.303	351.923	144.376	379.636	251.695	95.122	331.584	64.566	268.926	81.495	420.604	401.909	128.768	402.123	119.076	166.400	0.00043824	0.00036578	0.00011106	1374.7	7.0768e-06	5.0918e-06	1182.9	436.02	4.6654e-06	7.899e-06	413.88	141.18	155.27	57.83	4.2113e-06	53.955	0.00072694	0.00086327	0.00023547	1290.8	9.1206e-06	9.2934e-06	1109.5	412.47	8.8985e-06	9.3986e-06	390.25	132.95	147.69	55.065	9.5339e-06	51.021	223.288	108.941	116.037	76.227	229.476	215.658	75.328	81.313	219.656	219.742	78.588	83.214	85.960	90.855	205.657	86.938	-8191	255	
1199.079	1	1	0	0	0.16198	0.065509	0.2137	0.074689	0.20487	0.073167	0.15433	0.24367	0.11472	0.15853	0.19306	0.39549	0.23199	0.10983	0.37814	0.21854	-0.45208	-1.2208	-1.5292	-0.9875	-1.4062	-1.4479	-0.80833	-1.65	-1.2729	-1.0917	-1.9229	-0.91667	-1.5312	-1.6229	-0.85417	-1.7625	128.013	228.547	322.784	241.655	331.056	126.321	360.449	384.746	358.659	329.078	375.825	411.718	364.413	74.852	408.948	313.191	0.00049347	0.00043036	0.0001354	1374.4	6.5162e-06	4.4695e-06	1187.8	435.47	7.6337e-06	6.991e-06	416.79	139.75	155.18	57.501	6.7924e-06	54.067	0.00071367	0.00085418	0.00023701	1291.2	9.0339e-06	9.5483e-06	1112.8	411.6	9.5229e-06	9.597e-06	390.65	132.67	147.26	55.022	9.5232e-06	51.073	225.982	176.131	158.022	76.325	236.212	233.081	75.492	81.203	248.536	219.863	78.877	83.496	85.788	90.714	234.720	87.280	-8191	255	
1199.200	1	1	0	0	0.28609	0.16689	0.29685	0.25816	0.04706	0.076951	0.30862	0.29688	0.060418	0.039959	0.13377	0.1605	0.19313	0.15032	0.45574	0.20024	-0.75833	-1.0042	-1.5958	-1.0938	-1.3062	-1.3438	-0.8	-1.8458	-1.1938	-0.93125	-1.7	-1.1104	-1.5604	-1.8	-0.76042	-1.4917	279.386	247.077	133.372	64.487	350.564	68.163	343.510	326.942	224.348	108.780	141.098	389.442	399.991	323.974	375.497	322.409	0.00045732	0.00042701	0.00014849	1367.7	4.7482e-06	3.1011e-06	1190.3	436.18	4.4991e-06	7.2218e-06	415.28	140.84	156.66	57.567	4.4094e-06	53.92	0.00072723	0.00089652	0.00024585	1283.7	9.0421e-06	9.4468e-06	1113.2	411.22	9.1849e-06	9.4852e-06	391.2	132.86	147.89	54.892	9.307e-06	51.16	226.986	150.654	156.758	76.410	256.106	212.936	75.410	81.415	247.806	208.278	79.249	83.820	86.012	90.881	227.116	87.316	-8191	255	
1199.294	1	1	0	0	0.26352	0.17193	0.14524	0.11846	0.079513	0.23771	0.4439	0.48693	0.10064	0.174	0.22811	0.16447	0.15773	0.18377	0.15882	0.24179	-0.8	-0.78125	-1.6437	-1.1854	-1.1542	-1.575	-0.94792	-1.525	-1.2125	-0.78125	-1.6729	-0.94792	-1.35	-1.6042	-0.88542	-1.4479	335.283	329.411	238.491	309.758	165.666	245.856	381.634	342.263	328.037	401.256	395.301	413.247	399.757	420.185	127.284	406.272	0.00046824	0.00059512	0.00014644	1374.7	8.6391e-06	4.9496e-06	1191.1	437.12	7.0187e-06	4.0058e-06	418.09	141.38	156.23	57.347	4.9356e-06	54.318	0.00072799	0.0008953	0.0002355	1291.2	9.2377e-06	9.1856e-06	1115.7	412.78	9.0331e-06	9.5763e-06	393.32	133.46	148.13	55.039	9.1225e-06	51.523	226.781	187.795	125.187	76.380	234.331	232.993	75.253	81.622	240.851	204.825	79.176	83.673	85.986	91.014	208.765	87.580	-8191	255	
1199.390	1	1	0	0	0.065695	0.14189	0.36979	0.31279	0.29843	0.11041	0.15872	0.32051	0.053999	0.09705	0.20425	0.22703	0.33465	0.20371	0.25494	0.22022	-1.0854	-0.60833	-1.5562	-1.2	-1.0396	-1.9	-1.1646	-1.5667	-1.6063	-0.96458	-1.5917	-1.2604	-1.0417	-1.7729	-0.73125	-1.3312	183.261	189.856	131.239	316.576	408.792	73.208	374.496	363.390	79.824	172.135	421.540	183.920	79.869	405.720	153.189	352.056	0.00048201	0.00073505	0.00017081	1381.9	8.3608e-06	5.7935e-06	1207.2	440.35	4.0118e-06	4.5533e-06	417.25	141.32	155.77	57.877	6.3948e-06	54.252	0.00071719	0.00083142	0.00024113	1292.3	9.137e-06	9.1922e-06	1121.3	413.85	9.0363e-06	9.4364e-06	391.75	133.58	148.14	55.247	9.419e-06	51.379	226.414	150.524	136.704	76.473	231.022	193.351	75.600	81.593	215.748	216.041	79.007	83.875	86.201	91.065	235.069	87.323	-8191	255	
1199.486	1	1	0	0	0.13847	0.092089	0.088523	0.23752	0.13952	0.071979	0.15927	0.20528	0.18047	0.17861	0.32947	0.20966	0.31302	0.22402	0.14368	0.23311	-0.98542	-0.73958	-1.4083	-1.325	-1.1063	-1.6812	-1.1333	-1.4396	-1.5125	-0.7375	-1.4813	-1.4062	-0.99167	-1.8937	-1.0792	-1.2167	367.380	258.367	290.828	83.796	365.769	236.322	407.163	362.312	198.542	416.378	356.326	404.984	67.808	342.226	313.613	286.872	0.00045167	0.0007405	0.00016218	1366.6	7.7942e-06	5.6638e-06	1184.9	435.71	3.2632e-06	7.1166e-06	414.93	139.79	155.95	57.921	7.5598e-06	53.754	0.00070124	0.00084806	0.00024057	1282.4	9.2106e-06	9.4833e-06	1105.5	411.57	8.758e-06	9.5393e-06	390.41	132.53	148.14	55.403	9.7593e-06	51.251	225.418	152.118	167.134	76.612	239.969	186.134	75.826	81.909	233.348	203.844	79.218	83.674	86.170	90.770	216.119	87.381	-8191	255	
1199.583	1	1	0	0	0.18026	0.24446	0.1818	0.2685	0.20465	0.19601	0.35563	0.65852	0.051679	0.32223	0.068378	0.066777	0.089952	0.19366	0.1533	0.098291	-1.1562	-0.90417	-1.2583	-1.4646	-0.98125	-1.6417	-1.1896	-1.35	-1.7604	-0.92083	-1.7667	-1.5333	-0.67917	-1.6792	-1.1021	-1.075	74.780	285.086	343.630	387.975	81.323	122.238	410.958	358.950	276.362	152.066	333.275	395.739	378.362	350.099	170.077	111.628	0.00045702	0.00063383	0.00021128	1362.4	7.2627e-06	3.1862e-06	1176.6	434.27	6.6607e-06	3.1601e-06	413.94	140.24	155.71	58.137	5.1174e-06	54.569	0.00070201	0.00084186	0.0002434	1276.5	9.1692e-06	9.2708e-06	1102.2	410.61	8.8423e-06	9.3266e-06	389.61	132.54	147.51	55.48	9.6197e-06	51.672	227.201	139.227	175.189	76.443	218.351	200.124	75.721	81.995	248.069	209.777	79.362	83.677	86.325	90.877	228.435	87.347	-8191	255	
1199.679	1	1	0	0	0.2038	0.32645	0.020477	0.24883	0.29467	0.13866	0.1947	0.26681	0.13587	0.34967	0.1215	0.037919	0.288	0.10097	0.23838	0.042252	-1.2042	-0.97083	-1.3687	-1.7875	-0.68542	-1.7583	-1.4458	-1.1792	-1.6833	-0.9375	-1.4375	-1.55	-0.88333	-1.5167	-1.1604	-1.0042	222.575	137.549	158.169	97.211	306.463	329.847	415.272	83.141	386.582	86.647	69.962	230.016	71.743	372.519	276.234	222.334	0.00049106	0.00067811	0.00015582	1353.8	8.5138e-06	6.4564e-06	1179.9	434.97	5.8601e-06	4.5066e-06	415.73	140.61	156.48	58.259	8.0212e-06	54.764	0.00070363	0.0008317	0.00023688	1273.6	9.1402e-06	9.5779e-06	1104.1	410.24	9.3646e-06	9.5206e-06	390.81	133.05	148	55.609	9.6182e-06	51.693	227.488	149.298	170.594	76.904	236.053	230.332	75.580	81.841	232.863	220.785	79.617	83.932	86.260	90.983	240.368	87.128	-8191	255	
1199.799	1	1	0	0	0.31697	0.054996	0.21591	0.41923	0.20108	0.15527	0.14323	0.3422	0.028001	0.25047	0.10656	0.085075	0.26046	0.16206	0.10442	0.024318	-1.3208	-0.81458	-1.3729	-1.7458	-0.84792	-1.5479	-1.4479	-1.0312	-1.4917	-0.91667	-1.0708	-1.6958	-0.94167	-1.6063	-1.3875	-0.92917	79.457	195.705	364.050	374.807	137.050	392.589	290.094	406.769	85.407	421.401	136.514	317.321	410.291	306.107	140.624	401.714	0.00048006	0.0009474	0.00022096	1359.3	6.9031e-06	5.5459e-06	1179.8	435.23	5.5594e-06	3.2283e-06	417.54	142.16	157.28	58.358	6.8548e-06	55.159	0.00071667	0.00090292	0.00024668	1276.6	9.4058e-06	9.5071e-06	1105.6	410.77	9.0052e-06	9.6293e-06	393.15	134.37	148.83	55.902	9.1023e-06	52.23	229.079	163.758	170.975	76.276	211.932	230.979	75.762	81.738	241.191	178.620	79.603	83.763	86.015	90.825	234.525	87.398	-8191	255	
1199.895	1	1	0	0	0.19779	0.21295	0.056117	0.19309	0.084062	0.27837	0.44697	0.44633	0.10909	0.17906	0.024727	0.3013	0.16011	0.068361	0.21251	0.10468	-1.1521	-0.81875	-1.1437	-1.9188	-0.81458	-1.5625	-1.6375	-0.975	-1.6625	-1.1292	-1.2896	-1.9188	-1.1167	-1.4583	-1.4271	-0.94375	252.836	375.334	202.520	344.314	91.693	112.380	352.347	331.882	333.675	95.153	326.918	374.223	375.851	121.298	202.238	341.472	0.00044753	0.00085	0.00024961	1361.2	5.6493e-06	9.7225e-06	1186.9	439.22	3.1662e-06	6.5828e-06	419.09	142.3	157.72	58.932	7.9663e-06	55.042	0.0007066	0.00088966	0.00023832	1278.8	9.4308e-06	9.4152e-06	1112.5	413.76	9.1122e-06	9.6932e-06	393.88	134.87	149.83	56.219	9.2768e-06	52.205	230.375	141.033	140.019	76.634	250.623	206.094	75.743	81.754	252.735	207.369	79.547	83.925	86.186	91.351	215.172	87.751	-8191	255	
1199.967	1	1	0	0	0.17514	0.1966	0.14376	0.19672	0.13436	0.027733	0.12845	0.15191	0.18123	0.14318	0.25172	0.14769	0.15638	0.084917	0.027856	0.075373	-0.92917	-0.97292	-0.925	-1.9146	-0.71458	-1.2542	-1.6	-0.95208	-1.6063	-1.1542	-0.9	-1.5958	-1.0271	-1.3687	-1.675	-1.0417	387.807	237.784	398.525	395.458	203.671	309.584	301.329	337.170	214.874	76.593	374.783	345.426	392.771	356.859	211.268	350.541	0.00047305	0.00081583	0.00015774	1366.3	7.501e-06	4.5024e-06	1181.6	438.23	6.3584e-06	7.9515e-06	419.28	143.44	158.33	59.118	1.0201e-05	55.586	0.00073182	0.00085742	0.00023972	1280.1	9.222e-06	9.8025e-06	1107.4	414.46	9.1492e-06	9.6048e-06	392.68	135.55	150.33	56.412	9.2201e-06	52.414	227.444	153.823	147.265	76.419	239.955	229.823	75.726	81.771	245.672	203.492	79.467	83.559	86.301	91.237	226.061	87.846	-8191	255	
1200.063	1	1	0	0	0.094619	0.12751	0.08089	0.1144	0.26625	0.036208	0.13687	0.26129	0.21968	0.15165	0.0696	0.24964	0.30747	0.23626	0.14367	0.26679	-1.0125	-1.2854	-0.6875	-1.9312	-0.78333	-1.1812	-1.7042	-1.125	-1.6792	-1.4271	-1.0688	-1.9125	-1.0646	-1.0312	-1.5688	-1.0521	258.661	186.068	350.381	79.146	96.720	306.594	408.471	381.206	201.581	151.928	386.918	397.743	398.889	385.756	290.054	377.663	0.00050255	0.00049893	0.00013681	1363.5	6.2697e-06	4.7509e-06	1183.8	439.45	7.3944e-06	7.4466e-06	423.26	145.05	158.94	58.837	6.9331e-06	55.494	0.00073866	0.00083058	0.00024045	1280.8	9.4058e-06	9.4008e-06	1109.3	414.89	9.0482e-06	9.0195e-06	396.5	136.43	150.69	56.538	8.9439e-06	52.563	225.236	116.332	144.597	77.013	239.229	231.287	75.472	81.836	243.953	201.646	79.353	83.948	86.177	91.196	237.571	87.587	-8191	255	
1200.182	1	1	0	0	0.089618	0.099669	0.072665	0.43878	0.10052	0.36606	0.1352	0.31122	0.27046	0.10681	0.16422	0.3938	0.259	0.211	0.2391	0.089331	-1.0229	-1.1875	-0.75417	-1.7188	-0.98125	-1	-1.7896	-1.0812	-1.3875	-1.5292	-0.88958	-1.5063	-1.1292	-1.2083	-1.5979	-1.0875	317.735	155.858	265.183	418.608	267.159	197.171	75.542	362.363	414.380	418.130	362.713	311.333	394.178	96.926	205.056	281.347	0.00041018	0.00081051	0.000228	1375.7	4.3765e-06	4.6174e-06	1206.9	445.31	7.1692e-06	5.2058e-06	422.44	144.94	159.91	59.715	5.2058e-06	55.405	0.00070499	0.00083779	0.0002422	1287.1	8.9346e-06	9.2187e-06	1120	418.18	9.1171e-06	8.7136e-06	398.25	136.93	151.71	56.917	8.8087e-06	52.929	228.184	141.993	136.582	77.004	261.452	215.633	75.966	81.733	256.164	197.924	79.628	84.041	86.256	90.859	206.653	87.348	-8191	255	
1200.278	1	1	0	0	0.30517	0.14877	0.15404	0.3667	0.092179	0.15649	0.095726	0.15005	0.028794	0.085597	0.3497	0.25521	0.15694	0.14057	0.15223	0.010008	-1.1208	-1.4333	-0.83958	-1.6833	-1.0771	-0.95	-1.6854	-1.2625	-1.1521	-1.3687	-0.78958	-1.6958	-1.3646	-1.0333	-1.7458	-0.9875	245.314	357.467	216.107	370.160	334.763	224.190	364.304	281.485	66.350	231.325	343.406	119.993	90.680	393.077	361.405	151.570	0.00050906	0.00066331	0.0001747	1378.5	7.1219e-06	6.0022e-06	1198.5	441.15	4.8637e-06	4.3675e-06	423.79	145.25	161.16	59.467	1.0067e-05	55.938	0.00073306	0.00079567	0.00023405	1294.6	8.9653e-06	9.4004e-06	1121.5	417.4	9.0541e-06	9.1539e-06	398.68	137.11	151.94	56.952	9.1343e-06	52.953	230.240	155.613	157.859	76.757	242.401	194.096	75.643	81.646	224.025	219.669	79.411	83.794	86.327	91.292	223.807	87.367	-8191	255	
1200.374	1	1	0	0	0.26567	0.094352	0.085314	0.18978	0.097222	0.17153	0.12457	0.20153	0.17649	0.045653	0.11386	0.328	0.27266	0.37903	0.13015	0.34184	-0.85	-1.5875	-0.71042	-1.3438	-1.075	-0.89375	-1.7563	-1.1604	-1.0312	-1.6417	-1.1083	-1.5479	-1.3687	-1.0521	-1.6792	-1.05	109.067	299.779	347.556	272.305	284.754	411.060	391.138	370.273	207.368	261.342	411.964	355.447	381.279	82.788	222.041	421.670	0.00049358	0.00053751	9.928e-05	1371.7	4.5403e-06	4.7884e-06	1200.7	443.22	5.6753e-06	3.1889e-06	420.77	143.22	158.71	59.094	5.6976e-06	55.423	0.00072191	0.00081137	0.00023175	1288.4	9.0367e-06	8.8972e-06	1120.1	417.03	8.808e-06	9.0296e-06	397.08	135.93	150.78	56.522	8.9837e-06	52.348	228.866	193.893	119.215	76.883	228.879	230.871	76.057	81.776	239.761	255.246	79.558	84.274	86.290	90.843	238.739	87.082	-8191	255	
1200.471	1	1	0	0	0.25877	0.24632	0.20063	0.33622	0.14467	0.22438	0.21439	0.053636	0.24166	0.13121	0.18766	0.38337	0.23846	0.28995	0.02021	0.26511	-0.6375	-1.4729	-0.86042	-1.5979	-1.2667	-0.71667	-1.8292	-1.3167	-1.0354	-1.8062	-1.0083	-1.4854	-1.6938	-0.91875	-1.5229	-1.1896	397.740	364.912	81.887	382.766	354.991	315.168	316.695	285.116	384.507	265.373	335.691	319.868	406.483	411.279	123.073	378.634	0.00046087	0.00089981	0.00015828	1366.1	8.2117e-06	8.7428e-06	1187.2	440.03	6.6155e-06	3.4643e-06	417.69	142.35	158.23	58.631	5.0352e-06	54.87	0.00068587	0.00084162	0.00023457	1285.3	8.744e-06	9.1494e-06	1111.6	415.32	8.9667e-06	9.2284e-06	394	134.74	150.03	56.172	9.2253e-06	52.013	228.727	154.386	162.982	76.457	234.205	223.097	75.269	81.372	254.673	223.465	79.045	83.349	85.794	90.451	246.973	86.814	-8191	255	
1200.591	1	1	0	0	0.1686	0.17522	0.35063	0.33467	0.11681	0.23665	0.016121	0.27537	0.17815	0.23984	0.37991	0.36785	0.34056	0.15502	0.14158	0.22396	-0.4625	-1.5125	-0.96667	-1.4167	-1.7062	-0.825	-1.6146	-1.4167	-0.60625	-1.8188	-0.92292	-1.3417	-1.6521	-0.97917	-1.4125	-1.3875	255.586	157.704	373.314	421.295	389.311	240.803	410.840	315.236	78.935	243.613	317.496	341.233	361.729	177.953	291.977	421.094	0.00049584	0.00058147	9.0786e-05	1366.4	2.3646e-06	5.5376e-06	1184.5	438.78	8.3351e-06	4.9511e-06	419.57	143.1	157.77	58.813	4.3449e-06	54.88	0.00072493	0.00086365	0.00023778	1280.1	8.7565e-06	9.2856e-06	1108.7	414.59	8.9996e-06	9.3967e-06	393.25	135.05	150.01	56.374	9.1104e-06	52.208	223.278	152.450	143.667	76.310	247.390	190.175	75.367	81.275	251.719	197.766	78.826	83.423	85.629	90.619	195.703	86.795	-8191	255	
1200.663	1	1	0	0	0.42006	0.14967	0.33948	0.23143	0.20713	0.25524	0.089376	0.1331	0.3104	0.27668	0.22777	0.18098	0.20736	0.195	0.15906	0.039627	-0.58125	-1.4813	-0.92708	-1.3896	-1.6063	-0.6	-1.6042	-1.6063	-0.81042	-1.5708	-1.1271	-1.1521	-1.6708	-1.0312	-1.3896	-1.5375	289.212	222.163	147.675	416.457	321.392	365.438	291.035	359.868	304.775	179.688	390.537	127.597	382.968	374.102	375.763	280.823	0.00048052	0.00040246	0.00018194	1362.7	6.7728e-06	4.9008e-06	1182.2	440.54	5.2794e-06	5.9725e-06	420.23	143.3	159.02	59.538	4.9776e-06	55.584	0.00073388	0.00085593	0.00023981	1280.3	9.2359e-06	9.7067e-06	1106.7	414.56	9.2265e-06	9.5533e-06	395.67	135.76	150.84	56.886	9.2337e-06	52.789	227.322	124.642	147.423	76.397	235.834	209.272	75.606	81.517	250.402	192.601	78.658	83.715	85.875	90.784	223.690	87.158	-8191	255	
1200.759	1	1	0	0	0.097743	0.040757	0.11724	0.22238	0.28142	0.089706	0.18576	0.36382	0.25557	0.18056	0.095652	0.20207	0.36871	0.46868	0.043595	0.13271	-0.31875	-1.5271	-1.15	-1.075	-1.7354	-0.92708	-1.5063	-1.6063	-0.88542	-1.4854	-1.2792	-1.1771	-1.625	-1.1417	-1.1354	-1.8312	320.663	402.851	149.533	103.592	339.829	392.032	409.985	389.601	417.419	134.796	326.025	388.080	311.530	420.464	327.256	384.803	0.00047653	0.00061468	0.00016179	1363.9	7.8774e-06	5.7357e-06	1191.2	439.35	7.2004e-06	4.9404e-06	424.7	145.7	160.01	59.694	9.3884e-06	56.08	0.00073245	0.00085227	0.00023497	1283.5	8.6358e-06	9.367e-06	1115.6	416.12	9.0982e-06	9.1333e-06	399.29	137.22	151.81	57.031	9.4853e-06	53.132	221.916	163.824	150.347	76.543	241.691	221.895	75.293	81.506	236.723	218.858	78.658	83.509	85.939	90.685	229.711	87.031	-8191	255	
1200.880	1	1	0	0	0.09356	0.22667	0.2622	0.2779	0.056182	0.048476	0.32958	0.16684	0.24155	0.18483	0.24075	0.04058	0.096552	0.37083	0.23315	0.28495	-0.4625	-1.4979	-1.2563	-1.0771	-1.6125	-1.0542	-1.375	-1.7917	-0.80625	-1.5979	-1.4896	-1.0208	-1.5583	-1.2125	-1.4312	-1.8417	400.265	196.658	352.529	389.002	301.761	295.254	365.270	64.858	319.596	374.285	71.379	391.500	252.122	410.906	90.053	387.842	0.00049494	0.00059481	0.00015026	1373.6	8.7234e-06	4.5331e-06	1197.4	444.91	3.4607e-06	6.6379e-06	423.55	144.63	160.31	59.796	6.3652e-06	55.498	0.000754	0.00083678	0.00022985	1289	9.0082e-06	9.5939e-06	1120.1	418.43	9.087e-06	9.2077e-06	397.95	136.81	151.84	57.12	9.1612e-06	52.788	223.234	153.911	174.009	76.187	231.646	210.355	75.549	81.445	258.312	226.494	78.620	83.757	85.639	90.774	229.631	87.254	-8191	255	
1200.976	1	1	0	0	0.21525	0.13	0.042569	0.34856	0.34762	0.31159	0.26996	0.086797	0.049517	0.25025	0.24607	0.347	0.29785	0.22489	0.31937	0.15342	-0.45	-1.4813	-1.2542	-1.1458	-1.7417	-1.0917	-1.2917	-1.7625	-0.80833	-1.4833	-1.6146	-1.0417	-1.6146	-1.2854	-1.175	-1.8042	252.034	356.988	172.499	364.241	140.673	108.953	360.272	310.800	69.806	172.995	314.551	400.832	90.089	81.362	144.750	74.558	0.00046004	0.00067206	0.00011391	1375.4	7.7223e-06	8.4098e-06	1195.2	442.4	4.5514e-06	6.5431e-06	421.66	144.43	160.16	59.668	4.4828e-06	55.715	0.00073836	0.00084447	0.00024078	1288	9.0681e-06	9.4724e-06	1115.6	417.22	8.9314e-06	9.6141e-06	396.85	136.75	152.01	57.134	9.1604e-06	52.865	228.907	160.248	158.748	76.430	242.834	207.326	75.820	81.310	232.166	188.978	79.178	83.632	85.832	90.655	235.929	87.592	-8191	255	
1201.072	1	1	0	0	0.22141	0.030505	0.1333	0.25318	0.22027	0.17965	0.22669	0.25212	0.036402	0.1524	0.15669	0.11805	0.22774	0.3112	0.21196	0.18455	-0.65417	-1.3354	-1.4042	-0.84167	-1.5542	-1.1333	-1.0875	-1.9375	-0.87708	-1.4188	-1.7062	-0.87083	-1.5729	-1.3813	-0.77917	-1.6917	250.783	357.767	65.074	401.581	383.310	320.003	317.860	369.426	421.151	245.814	336.956	309.427	111.958	378.448	197.568	352.126	0.00048995	0.00056079	0.00021331	1361.3	4.5659e-06	6.8159e-06	1197.8	441.78	3.8821e-06	4.8793e-06	425.03	145.8	160.16	59.815	8.0788e-06	56.258	0.00073545	0.00083981	0.00023243	1281.1	9.1324e-06	9.1385e-06	1120.3	417.49	8.8874e-06	9.1543e-06	398.21	137.37	152.3	57.226	9.2463e-06	53.287	222.172	163.059	153.463	76.714	187.747	226.432	75.221	81.492	235.312	244.813	79.022	83.489	86.012	90.805	251.527	87.219	-8191	255	
1201.191	1	1	0	0	0.13102	0.23904	0.29257	0.3286	0.25997	0.20171	0.0099723	0.34413	0.061302	0.34539	0.24823	0.20765	0.083127	0.277	0.27742	0.28742	-0.48333	-1.0292	-1.5917	-0.94583	-1.5208	-1.3625	-1.1	-1.8396	-0.92917	-1.3417	-1.6542	-0.95	-1.7021	-1.4854	-0.87917	-1.6104	174.014	101.878	311.061	373.664	399.772	315.709	378.787	362.341	97.949	141.872	398.681	272.879	391.322	67.507	193.635	302.658	0.00045197	0.00070104	0.00019057	1375.2	3.2564e-06	7.2632e-06	1206	446.3	5.3853e-06	4.8515e-06	424.31	145.63	161.25	59.935	8.3428e-06	56.016	0.00072528	0.00084061	0.00022831	1290.7	9.1849e-06	9.3039e-06	1125.7	420.22	9.0859e-06	9.4267e-06	399.29	137.62	152.56	57.19	9.2967e-06	53.197	223.438	124.298	163.029	76.533	214.601	183.925	75.906	81.552	238.094	210.667	79.248	83.504	85.753	90.944	239.009	87.573	-8191	255	
1201.263	1	1	0	0	0.20204	0.24359	0.16701	0.19508	0.19556	0.22037	0.34235	0.13531	0.20385	0.12969	0.29958	0.45981	0.47741	0.063397	0.04425	0.25405	-0.51875	-0.87292	-1.4854	-0.8125	-1.4792	-1.4125	-1.1521	-1.8438	-1.1979	-1.0646	-1.9792	-1.0458	-1.5458	-1.7146	-0.83542	-1.7646	292.522	189.166	143.617	72.720	242.952	309.076	423.212	297.618	344.035	385.530	368.734	405.705	66.831	67.138	235.168	383.486	0.00043495	0.000849	0.00012803	1378.2	7.37e-06	4.9408e-06	1190	445.86	6.6564e-06	7.4943e-06	426.33	145.48	161.19	59.471	7.1284e-06	55.477	0.00072725	0.00087298	0.00024846	1292.2	8.9314e-06	9.0657e-06	1123.3	420.31	9.0237e-06	8.9494e-06	400.33	137.38	152.26	56.878	9.2905e-06	52.83	229.665	148.035	166.446	76.701	226.999	195.128	75.427	81.871	246.431	207.842	79.185	83.390	85.984	90.800	240.156	87.314	-8191	255	
1201.359	1	1	0	0	0.17337	0.093277	0.067477	0.021954	0.12502	0.088464	0.4314	0.30481	0.15557	0.049819	0.10371	0.24267	0.34307	0.21865	0.15568	0.12598	-0.71042	-0.8875	-1.6229	-1.1542	-1.3188	-1.4958	-1.0521	-1.7687	-1.1521	-0.90208	-1.8	-1.0312	-1.4375	-1.6083	-0.77292	-1.6875	188.268	279.847	359.481	283.901	74.691	286.191	408.007	388.278	97.503	370.964	418.686	76.631	373.604	401.663	343.969	342.296	0.00048555	0.00064451	0.00015306	1376.1	4.5565e-06	9.6588e-06	1195.2	443.76	5.4402e-06	7.0449e-06	422.38	143.94	159.57	58.94	7.0457e-06	54.864	0.0007017	0.0008458	0.00023317	1289.2	8.6216e-06	8.9922e-06	1119.9	417.89	8.7276e-06	9.2973e-06	396.98	135.94	151.09	56.389	9.2021e-06	52.127	224.543	116.884	123.179	76.625	236.349	237.138	75.747	81.871	240.311	193.957	79.570	83.661	86.155	90.903	221.848	87.359	-8191	255	
1201.479	1	1	0	0	0.10165	0.12188	0.07012	0.5175	0.14157	0.19201	0.23891	0.42572	0.089977	0.12399	0.16985	0.2789	0.33597	0.29168	0.081199	0.17641	-0.77083	-0.89583	-1.6333	-1.0854	-1.225	-1.5271	-1.0333	-1.5562	-1.4167	-0.85833	-1.8312	-1.1229	-1.1917	-1.6458	-0.82083	-1.6187	165.310	286.509	422.273	335.690	284.750	182.126	76.871	347.249	74.317	232.013	297.043	352.309	79.801	64.369	284.218	363.595	0.00044182	0.00049175	0.00016465	1361.2	7.416e-06	7.4713e-06	1194.2	439.82	5.1674e-06	5.9523e-06	419.08	142.4	159.04	58.675	5.6954e-06	54.564	0.00070514	0.00081711	0.0002367	1278.8	8.8946e-06	9.4798e-06	1115.2	415.5	8.7566e-06	9.5066e-06	393.38	134.74	150.3	56.116	9.268e-06	52.036	224.578	158.159	156.958	76.533	238.038	227.367	75.591	81.917	218.748	209.337	79.218	83.803	86.265	91.035	207.959	87.609	-8191	255	
1201.575	1	1	0	0	0.031273	0.19202	0.066305	0.15474	0.20118	0.12607	0.15679	0.47579	0.25711	0.18537	0.27321	0.139	0.25765	0.18901	0.23265	0.049207	-0.94375	-0.66875	-1.3771	-1.2208	-1.0854	-1.675	-0.85625	-1.7687	-1.4104	-0.84583	-1.8375	-1.3021	-1.3479	-1.8188	-0.83125	-1.4833	349.109	195.643	391.469	382.826	135.354	143.972	366.723	74.466	88.631	350.493	372.440	413.219	361.318	368.089	392.059	116.998	0.00044278	0.00069075	0.00018333	1360.3	7.1686e-06	4.325e-06	1185.4	439.24	5.28e-06	5.601e-06	420.15	142.69	158.85	59.044	7.2568e-06	55.175	0.00071136	0.00084976	0.00023155	1278	8.9421e-06	9.4728e-06	1111.5	415.28	8.4678e-06	9.4372e-06	395.07	135.21	150.43	56.4	9.1829e-06	52.361	222.626	149.980	188.558	77.048	232.856	198.359	76.024	82.242	242.354	190.481	79.425	84.046	86.283	91.044	249.294	87.523	-8191	255	
1201.672	1	1	0	0	0.19833	0.1146	0.21673	0.42398	0.049767	0.39929	0.20028	0.29611	0.11935	0.036017	0.10056	0.10676	0.29587	0.17909	0.15143	0.16279	-1.1604	-0.91042	-1.5417	-1.2417	-1.0146	-1.5604	-0.85208	-1.4042	-1.7271	-0.80417	-1.7062	-1.3708	-1.0729	-1.8	-1.0271	-1.2354	280.772	113.626	386.369	405.142	154.687	311.443	300.340	383.969	119.719	124.619	318.424	374.797	381.645	64.828	199.500	380.758	0.00049402	0.00049641	0.00015688	1359.5	7.8796e-06	9.1857e-06	1191.8	441.34	5.775e-06	8.2082e-06	421.69	144.01	159.41	59.402	5.8232e-06	55.831	0.0007257	0.00084907	0.00022859	1279.8	9.2962e-06	9.5767e-06	1118.2	416.11	9.1527e-06	9.3784e-06	396.34	136.04	151.04	56.771	9.3243e-06	52.79	225.258	166.303	132.355	76.706	233.624	212.188	75.753	81.838	241.481	217.238	79.260	84.065	86.449	91.039	239.740	87.489	-8191	255	
1201.768	1	1	0	0	0.14944	0.1233	0.16153	0.1672	0.3026	0.25912	0.33278	0.28386	0.18094	0.020569	0.29936	0.36837	0.48888	0.31783	0.098916	0.11023	-1.1729	-0.84792	-1.4958	-1.3604	-0.93125	-1.5354	-1.025	-1.2979	-1.5271	-0.84583	-1.675	-1.4792	-0.75417	-1.7313	-1.1	-1.225	416.352	267.459	280.020	393.472	381.799	159.495	377.156	321.296	140.130	153.034	381.987	405.514	93.753	420.327	154.347	334.472	0.00046185	0.00084461	0.00021078	1374.2	9.257e-06	7.2394e-06	1197.1	444.99	4.9785e-06	7.0287e-06	426.27	144.91	160.1	59.728	4.4014e-06	55.635	0.00071457	0.00082909	0.00023556	1288.5	9.0813e-06	9.3603e-06	1122.5	418.56	9.0324e-06	9.295e-06	399.9	137.27	151.9	57.065	9.1501e-06	52.935	224.057	133.026	150.724	77.116	227.064	230.404	76.188	82.212	229.724	237.904	79.534	84.047	86.074	90.865	246.791	87.666	-8191	255	
1201.839	1	1	0	0	0.17378	0.062845	0.29974	0.24772	0.28781	0.30352	0.097917	0.35072	0.12692	0.14678	0.18817	0.37339	0.2659	0.11579	0.12959	0.21292	-1.0604	-0.675	-1.3208	-1.5688	-0.89375	-1.4312	-1.2792	-1.1729	-1.8167	-0.64167	-1.3646	-1.5562	-0.98958	-1.6083	-1.2417	-0.85208	261.672	277.340	123.159	299.919	123.608	149.573	249.520	325.508	102.944	79.041	187.988	392.773	385.413	316.656	304.638	414.411	0.00045904	0.00078491	0.00014163	1370	5.94e-06	5.4236e-06	1192.8	442.4	5.6578e-06	4.1458e-06	421.99	144.52	161.28	59.633	5.4736e-06	55.665	0.00072568	0.00087013	0.00023444	1287.5	9.3037e-06	9.0428e-06	1120.5	418.31	9.2709e-06	9.3823e-06	397.63	136.7	152.27	57.006	9.1074e-06	52.729	229.014	159.419	160.461	77.012	264.478	216.961	75.990	82.019	233.818	225.656	79.293	84.057	86.699	91.615	203.638	87.916	-8191	255	
1201.960	1	1	0	0	0.27696	0.090146	0.19336	0.073476	0.10167	0.10772	0.33824	0.13711	0.17623	0.2665	0.20513	0.21561	0.30606	0.11464	0.22218	0.15828	-1.1896	-0.61042	-1.2771	-1.7021	-0.55	-1.6313	-1.4312	-1.2042	-1.6667	-0.79792	-1.2479	-1.5521	-1.0104	-1.6396	-1.375	-0.98958	193.258	118.867	410.973	318.477	95.662	380.300	336.911	339.081	153.039	414.494	418.644	210.815	424.260	350.671	299.994	96.318	0.00049166	0.00065679	0.00014936	1369.8	5.5187e-06	4.4206e-06	1198.3	443.05	4.5268e-06	7.145e-06	423.27	143.76	160.28	60	8.1983e-06	55.783	0.00071721	0.00083097	0.0002313	1287.7	9.001e-06	8.9521e-06	1121.3	418.98	8.8797e-06	9.2327e-06	399.36	136.69	151.99	57.139	9.0953e-06	52.878	229.181	155.025	161.500	77.321	212.031	176.695	76.191	82.414	245.111	208.064	79.402	83.998	86.468	91.317	247.923	87.849	-8191	255	
1202.056	1	1	0	0	0.11873	0.034076	0.089633	0.35909	0.14295	0.034152	0.35535	0.19828	0.30114	0.30362	0.08452	0.24207	0.039716	0.35652	0.13565	0.33424	-1.1917	-0.79167	-1.025	-1.6812	-0.74375	-1.4167	-1.3958	-1.0292	-1.6042	-1.0854	-1.1896	-1.6729	-0.96458	-1.6833	-1.3708	-0.88125	161.701	193.515	196.837	423.197	74.782	364.680	355.282	376.957	416.589	107.808	105.533	333.992	351.450	97.874	204.617	403.592	0.00047764	0.0005302	0.00020643	1375.5	7.0695e-06	6.0457e-06	1202.1	444.46	6.4227e-06	6.9192e-06	423.29	145.47	160.58	59.486	6.9153e-06	55.49	0.00071321	0.00083309	0.00023841	1288	9.2823e-06	9.0143e-06	1123.8	418.67	8.8262e-06	9.1115e-06	398.71	136.99	152.16	56.883	9.384e-06	52.889	227.436	163.998	161.660	77.200	217.946	209.297	76.445	82.285	264.061	208.405	79.491	83.890	86.545	91.506	235.937	88.339	-8191	255	
1202.152	1	1	0	0	0.14074	0.21398	0.19722	0.16399	0.23706	0.35305	0.15146	0.33778	0.14821	0.3365	0.21778	0.34537	0.09449	0.13617	0.20397	0.44072	-1.2333	-1.1146	-1.1437	-1.9146	-0.95833	-1.3375	-1.6562	-0.95833	-1.6208	-1.2	-1.2083	-1.7104	-0.99583	-1.275	-1.3521	-0.88333	229.341	89.006	345.237	411.465	66.622	281.119	406.876	390.616	214.306	88.554	407.090	415.725	195.427	74.994	318.013	396.053	0.00044962	0.00073558	0.00010561	1374.4	3.8963e-06	7.388e-06	1203.6	443.75	6.6706e-06	4.9138e-06	427.79	145.23	159.73	59.684	6.5818e-06	55.874	0.00073207	0.00080249	0.00024178	1289.6	8.9011e-06	8.9968e-06	1125.2	418.8	8.8751e-06	9.2077e-06	399.84	137.3	151.94	56.98	9.1965e-06	52.985	224.083	155.861	179.165	77.067	207.370	233.004	76.019	82.303	235.853	261.290	80.197	84.476	86.781	91.723	227.095	87.782	-8191	255	
1202.271	1	1	0	0	0.1276	0.08554	0.099326	0.22621	0.19695	0.30929	0.35724	0.34971	0.15759	0.12937	0.16454	0.18166	0.26533	0.17961	0.21411	0.14085	-1.4312	-1.1271	-0.89583	-1.7	-0.94167	-1.1542	-1.8625	-0.93333	-1.5125	-1.2771	-0.9875	-1.8833	-1.05	-1.3208	-1.5042	-0.95208	305.510	348.616	123.082	378.671	184.441	386.034	370.102	415.690	68.303	417.576	91.969	363.344	407.858	292.171	122.327	418.247	0.00045979	0.00051575	0.00013191	1371.1	3.8099e-06	6.7019e-06	1204.9	443.15	5.9633e-06	4.8828e-06	419.37	144.43	158.71	59.383	5.7927e-06	55.416	0.00069365	0.00083887	0.00024038	1289.7	8.7861e-06	9.0957e-06	1124.4	417.79	8.915e-06	9.5249e-06	397.31	136.38	150.8	56.619	8.966e-06	52.623	225.258	142.093	153.961	76.823	230.453	224.241	75.961	82.168	249.759	195.522	79.838	83.828	86.615	91.513	250.029	87.692	-8191	255	
1202.367	1	1	0	0	0.1298	0.075799	0.24928	0.2539	0.10596	0.1096	0.34011	0.48081	0.15557	0.11658	0.14513	0.25327	0.22307	0.19745	0.22361	0.22464	-1.1104	-1.4875	-0.88125	-1.6854	-0.99792	-1.1729	-1.7292	-1.0938	-1.2854	-1.6313	-0.99375	-1.6375	-1.1708	-1.1458	-1.6125	-1.2229	216.931	224.160	330.222	400.416	398.851	287.093	365.685	368.250	125.336	147.972	389.646	298.590	404.397	311.240	82.403	315.937	0.00046704	0.00055397	0.00015961	1364.4	8.9801e-06	5.7863e-06	1191.3	440	7.0806e-06	5.9331e-06	419.78	142.63	158.43	58.708	4.4226e-06	54.901	0.0007039	0.00082842	0.00024259	1285.1	8.839e-06	9.0957e-06	1115.5	416.02	8.7003e-06	9.3655e-06	394.35	135.16	150.2	56.259	9.0894e-06	52.184	228.280	152.565	160.364	77.440	225.962	249.016	76.362	82.295	257.834	245.373	79.559	84.239	86.380	91.728	250.849	87.575	-8191	255	
1202.464	1	1	0	0	0.2168	0.21932	0.31745	0.20949	0.21122	0.15447	0.38442	0.02781	0.094384	0.1421	0.29698	0.03156	0.28542	0.086	0.26661	0.21429	-1.0021	-1.4458	-0.67917	-1.8229	-1.1292	-0.78333	-1.8021	-1.0542	-1.2354	-1.5479	-0.94375	-1.4646	-1.3646	-0.96042	-1.5438	-0.99792	178.740	78.811	332.062	415.098	188.311	97.815	334.497	257.845	297.969	366.136	68.575	419.297	372.618	68.565	258.364	370.350	0.00047084	0.00065485	0.00023904	1371.6	7.4362e-06	7.1203e-06	1189.9	439.61	6.767e-06	4.2625e-06	416.3	142.32	158.08	58.622	8.2029e-06	54.428	0.00069107	0.00084308	0.00023938	1282.7	8.94e-06	9.1977e-06	1112	413.43	9.1796e-06	9.1687e-06	392.08	134.53	149.88	56.032	9.0234e-06	51.792	228.581	165.533	142.090	77.125	230.594	221.396	76.169	82.311	229.988	216.924	79.833	83.850	86.212	91.171	242.132	87.357	-8191	255	
1202.560	1	1	0	0	0.20773	0.18374	0.1704	0.37494	0.14636	0.1926	0.19919	0.075299	0.085718	0.13188	0.21196	0.36302	0.10705	0.2329	0.21788	0.043207	-0.85625	-1.5667	-0.86667	-1.6812	-1.0146	-0.89583	-1.6437	-1.1125	-0.93125	-1.4688	-1.1542	-1.4062	-1.5146	-0.68542	-1.4708	-1.1688	270.615	289.227	138.952	392.656	367.541	339.190	345.145	386.997	379.834	239.667	348.883	375.035	389.909	72.504	405.578	396.642	0.00047152	0.00046325	0.00012395	1360.7	5.9816e-06	2.7519e-06	1185.4	438.85	6.6212e-06	4.1159e-06	415.96	142.18	157.78	58.912	7.6052e-06	54.725	0.00071952	0.00085185	0.00023599	1273.2	8.8486e-06	9.5865e-06	1109.5	413.83	9.1468e-06	9.0402e-06	392.68	134.76	149.54	56.248	9.3302e-06	51.917	227.696	151.883	141.504	77.196	210.628	217.511	76.357	82.350	236.752	232.555	79.694	84.711	86.713	91.487	233.394	87.909	-8191	255	
1202.656	1	1	0	0	0.16272	0.089828	0.17677	0.044723	0.1754	0.088364	0.059909	0.15372	0.20814	0.15673	0.29558	0.18652	0.39731	0.36288	0.083657	0.19504	-0.70417	-1.5583	-0.75417	-1.6896	-1.2479	-0.875	-1.7687	-1.3625	-1.0958	-1.6479	-0.9625	-1.4937	-1.5938	-0.9	-1.4937	-1.1667	308.893	417.908	346.562	276.653	411.087	336.657	302.128	390.933	262.115	134.707	388.118	106.573	72.035	404.216	298.822	253.458	0.00046561	0.00069497	0.00013086	1368.1	6.0097e-06	6.674e-06	1194.2	438.71	4.6833e-06	5.3228e-06	419.69	144.57	157.8	58.911	5.8877e-06	55.091	0.00071713	0.00085328	0.00023967	1281.6	8.8854e-06	9.0821e-06	1116.8	414.12	8.9685e-06	9.251e-06	395.1	135.56	150.02	56.363	9.1137e-06	52.219	229.463	104.057	170.075	77.143	231.942	238.804	76.084	82.115	240.557	192.713	79.840	84.547	86.484	91.606	212.983	87.708	-8191	255	
1202.752	1	1	0	0	0.034108	0.065165	0.18156	0.23883	0.19483	0.13383	0.26841	0.3682	0.23149	0.055831	0.20272	0.40802	0.27477	0.12103	0.13767	0.098632	-0.56458	-1.6625	-1.0146	-1.6458	-1.6542	-0.90208	-1.775	-1.4271	-0.89375	-1.675	-0.90625	-1.2771	-1.6854	-0.9375	-1.4833	-1.3667	261.610	273.474	282.645	377.826	165.792	415.915	381.323	337.326	67.789	139.791	81.978	327.195	403.665	92.200	422.158	357.918	0.00046253	0.00048346	0.00018082	1370	7.5513e-06	5.9336e-06	1199.4	440.09	8.4464e-06	7.7627e-06	421.67	143.05	159.19	58.674	5.9122e-06	55.096	0.00073604	0.00083072	0.00023481	1284.7	9.1799e-06	9.3315e-06	1121.1	415.83	9.3233e-06	9.265e-06	396.39	135.75	150.8	56.151	9.1844e-06	52.13	225.229	158.397	162.180	76.726	221.156	238.190	75.762	81.747	237.457	221.591	78.985	83.699	85.911	90.728	231.411	87.594	-8191	255	
1202.873	1	1	0	0	0.1067	0.067667	0.16794	0.3425	0.092167	0.16808	0.47112	0.27079	0.094255	0.18941	0.2287	0.38198	0.14542	0.23479	0.27634	0.057413	-0.54583	-1.6771	-0.79375	-1.4188	-1.6875	-0.825	-1.6688	-1.3979	-1.05	-1.6583	-1.0833	-1.1958	-1.65	-0.93125	-1.2812	-1.5521	334.545	64.489	252.583	324.921	130.286	330.731	375.365	302.662	407.859	328.371	69.297	292.174	382.408	415.580	246.101	364.492	0.00044239	0.00035441	0.00016483	1370.4	5.9844e-06	5.2237e-06	1199.2	439.47	4.3047e-06	5.8661e-06	420.93	143.46	158.45	58.753	6.5875e-06	54.815	0.00073463	0.00085523	0.00023506	1287.5	8.8914e-06	9.2222e-06	1121.9	415.44	9.0034e-06	9.2966e-06	394.5	135.32	150.29	56.16	9.1796e-06	51.901	221.645	127.052	131.534	76.639	241.873	187.928	75.701	81.820	263.065	204.098	79.268	84.111	86.085	90.991	223.903	87.206	-8191	255	
1202.969	1	1	0	0	0.056825	0.21046	0.24291	0.088818	0.12781	0.20458	0.17925	0.16146	0.26098	0.10002	0.13646	0.088056	0.27307	0.40386	0.177	0.16998	-0.50208	-1.4646	-1.0688	-1.0187	-1.6938	-0.89167	-1.6917	-1.7292	-0.67292	-1.5479	-1.1792	-1.0958	-1.9729	-0.8125	-1.2521	-1.5104	188.178	393.791	270.454	121.624	77.024	413.634	371.425	404.674	327.222	354.924	377.613	341.049	395.431	399.246	276.704	407.124	0.00046092	0.00039932	0.00018714	1371.6	8.0909e-06	5.9901e-06	1197	438.94	3.5334e-06	5.277e-06	418.02	142.76	159.62	58.855	5.7221e-06	54.84	0.00071876	0.00081836	0.00023215	1285.6	8.7833e-06	9.1805e-06	1118	415.16	8.7517e-06	9.115e-06	393.87	135.31	150.73	56.22	9.4076e-06	51.883	228.073	176.970	141.638	76.767	226.701	235.439	75.847	81.641	204.439	207.581	79.238	83.895	85.807	90.816	235.916	87.286	-8191	255	
1203.065	1	1	0	0	0.26292	0.33882	0.1481	0.28763	0.034242	0.087492	0.22283	0.05823	0.036707	0.059844	0.066501	0.16579	0.21509	0.037264	0.2418	0.19598	-0.22708	-1.5604	-1.1146	-0.98958	-1.6333	-0.95833	-1.425	-1.7125	-0.71042	-1.4833	-1.3917	-1.0125	-1.7521	-1.0583	-1.0688	-1.6396	355.399	366.336	250.062	372.388	198.600	99.185	348.076	107.114	149.011	239.160	295.094	327.591	92.000	337.275	357.614	92.511	0.00042885	0.00081096	0.00010125	1371	3.9963e-06	5.6009e-06	1194.6	439.67	3.8804e-06	4.1953e-06	417.79	143.98	159.49	58.751	7.8669e-06	54.787	0.00071029	0.00083065	0.00024224	1283.7	8.8736e-06	9.581e-06	1119.1	415.54	9.3419e-06	9.6149e-06	393.86	135.73	150.75	56.21	9.5678e-06	52.09	225.781	133.185	172.702	77.112	231.414	227.942	75.750	81.930	255.493	210.437	79.566	84.057	86.167	90.967	225.381	87.475	-8191	255	
1203.137	1	1	0	0	0.16814	0.13657	0.11261	0.23823	0.2281	0.28364	0.36606	0.20654	0.092998	0.17072	0.24671	0.22336	0.30737	0.29236	0.21308	0.35307	-0.425	-1.5063	-1.3417	-1.1042	-1.5958	-1.0875	-1.2563	-1.8458	-1.0354	-1.5167	-1.5875	-1.0479	-1.8104	-1.1646	-1.0708	-1.7625	379.356	244.327	173.093	364.576	207.785	413.906	372.237	340.139	205.418	345.299	353.504	376.258	422.178	97.454	227.171	387.729	0.00047379	0.00072307	9.2498e-05	1364.9	1.1913e-05	6.4244e-06	1198	438.63	4.3559e-06	7.5924e-06	419.94	143.37	157.89	58.593	8.1219e-06	54.797	0.00073325	0.00083514	0.00024106	1280.5	8.6423e-06	9.4748e-06	1117.3	413.76	9.0639e-06	9.2311e-06	394.03	135.29	149.83	56.192	9.7309e-06	52.154	222.015	173.527	125.071	77.088	240.129	226.439	76.090	81.876	279.793	243.619	79.497	83.990	86.602	90.935	204.727	87.576	-8191	255	
1203.256	1	1	0	0	0.2635	0.065644	0.045888	0.38565	0.17316	0.24203	0.36212	0.47467	0.085772	0.14445	0.13513	0.10201	0.15113	0.28147	0.07601	0.24784	-0.55417	-1.4688	-1.3937	-0.99792	-1.5896	-1.075	-1.1458	-1.8792	-0.925	-1.2542	-1.4937	-1.0042	-1.7625	-1.2646	-0.99167	-1.8312	362.680	378.253	283.621	404.520	70.802	68.863	368.077	374.761	276.898	417.446	418.349	110.913	179.558	405.748	323.471	333.360	0.00048734	0.00076969	0.00016584	1362.1	6.4704e-06	5.1437e-06	1183.6	437.26	6.3073e-06	5.5935e-06	418.73	141.66	157.52	58.623	5.2959e-06	54.443	0.00070432	0.00087319	0.0002402	1276.6	9.0267e-06	8.9622e-06	1112.4	413.07	8.5231e-06	9.461e-06	393.33	134.41	149.74	55.961	9.517e-06	51.623	228.286	142.434	141.387	76.817	245.786	189.745	75.822	82.065	223.778	205.259	79.488	83.987	86.286	90.935	216.337	87.573	-8191	255	
1203.352	1	1	0	0	0.079221	0.20652	0.13546	0.20969	0.060072	0.18423	0.18925	0.26306	0.083742	0.042192	0.32089	0.1595	0.42476	0.071359	0.16153	0.31494	-0.45833	-1.1833	-1.7083	-1.025	-1.4875	-1.1812	-1.2	-1.6729	-1.0521	-1.2375	-1.5125	-0.79167	-1.5417	-1.5042	-0.89167	-1.7354	116.220	394.241	373.919	348.696	213.481	264.244	399.300	369.163	293.587	93.597	338.014	384.670	389.205	398.344	340.451	190.474	0.00045112	0.00033568	0.00014027	1351.5	6.8678e-06	4.5055e-06	1176.6	436.19	5.1229e-06	6.2423e-06	413.58	141.36	157.54	57.852	4.1597e-06	54.207	0.00072086	0.00087128	0.00022697	1269.9	8.88e-06	9.4872e-06	1105.7	412.26	9.1254e-06	9.7108e-06	388.85	133.67	149.1	55.526	9.0868e-06	51.281	227.546	160.980	146.964	77.020	207.645	204.045	75.835	81.571	240.197	214.098	79.446	83.777	86.228	90.855	223.027	87.144	-8191	255	
1203.448	1	1	0	0	0.19053	0.26264	0.014834	0.18194	0.023152	0.10035	0.2576	0.19028	0.20576	0.15999	0.20098	0.16526	0.13819	0.31278	0.20776	0.11585	-0.6875	-1.1125	-1.6854	-0.93333	-1.4312	-1.2229	-0.97292	-1.625	-0.97708	-0.86042	-1.575	-0.85625	-1.5521	-1.5708	-0.63125	-1.8604	78.162	417.619	341.968	362.241	322.146	121.065	101.731	260.765	211.533	318.036	326.861	416.595	73.107	73.594	227.619	373.728	0.00043537	0.00091137	0.00020544	1352.5	6.4756e-06	4.2919e-06	1176.6	434.5	5.5097e-06	5.6585e-06	412.71	141	156.88	58.505	6.3964e-06	54.165	0.00073145	0.00086028	0.00023501	1268.4	9.2402e-06	9.2179e-06	1102.2	410.81	9.159e-06	9.7392e-06	387.54	133.47	148.78	55.806	9.0577e-06	51.375	225.813	147.519	150.247	76.450	242.816	238.067	75.735	81.480	236.499	200.263	79.114	83.644	86.324	90.806	216.300	87.285	-8191	255	
1203.544	1	1	0	0	0.060996	0.18645	0.12863	0.32222	0.16731	0.19111	0.21481	0.24837	0.16108	0.11349	0.23172	0.11854	0.2482	0.30364	0.064866	0.30336	-0.62708	-0.92083	-1.7625	-1.0938	-1.3	-1.3917	-0.88958	-1.7375	-1.1083	-0.99375	-1.7042	-0.92083	-1.5229	-1.7542	-0.75417	-1.7833	413.270	248.099	335.217	339.733	387.834	73.134	397.486	320.487	351.611	331.202	387.349	142.366	415.147	397.962	269.688	283.039	0.00044242	0.00080832	0.0001115	1343.6	7.0394e-06	5.9536e-06	1176.1	436.84	5.1063e-06	4.9822e-06	415.03	140.72	157.7	58.388	3.5036e-06	54.404	0.00072228	0.00086794	0.00021971	1262.1	8.9086e-06	9.0533e-06	1099	410.87	8.9709e-06	9.6578e-06	389.06	133.34	149.2	55.834	9.1155e-06	51.454	226.960	141.709	169.703	76.610	222.535	227.968	75.808	82.019	235.257	224.616	79.150	83.396	86.106	90.994	244.341	87.457	-8191	255	
1203.665	1	1	0	0	0.29768	0.10733	0.25038	0.40413	0.20152	0.14289	0.20042	0.15222	0.032278	0.23097	0.34493	0.45964	0.10859	0.32771	0.28052	0.28676	-0.74375	-1.0187	-1.7125	-0.8875	-1.3458	-1.3667	-1.0667	-1.5542	-1.475	-0.95417	-1.6271	-1.0833	-1.2083	-1.6583	-0.59375	-1.6958	421.776	84.671	121.524	364.024	89.311	88.422	380.621	317.369	223.114	282.847	328.261	386.291	362.080	341.133	298.613	372.809	0.00048772	0.00030594	0.00018283	1347.5	6.4752e-06	4.4068e-06	1179.4	434.44	5.4749e-06	3.9945e-06	413.71	142.34	158.44	58.883	5.1606e-06	55.063	0.00072904	0.00086167	0.00023119	1263	9.2852e-06	9.5063e-06	1104.2	410.74	9.1604e-06	9.6418e-06	389.97	134.37	149.8	56.119	9.6079e-06	52	227.113	194.041	160.192	76.640	224.161	223.310	75.910	81.533	245.564	224.626	79.041	83.339	86.260	90.918	203.924	87.129	-8191	255	
1203.761	1	1	0	0	0.14721	0.09936	0.20494	0.14103	0.02609	0.15255	0.16384	0.45261	0.18766	0.17006	0.31106	0.017683	0.37827	0.14261	0.16822	0.35685	-0.70417	-0.77292	-1.6437	-1.2833	-1	-1.425	-0.85625	-1.5417	-1.6042	-0.75833	-1.7354	-1.1583	-1.1875	-1.7938	-0.65417	-1.6646	292.436	379.816	395.500	343.788	235.763	225.392	373.919	353.738	256.910	233.789	356.570	134.575	380.446	388.482	296.465	341.978	0.00040701	0.00068703	0.00015917	1350.4	4.743e-06	3.8045e-06	1185.2	438.3	5.0608e-06	4.9893e-06	414.22	141.82	158.71	58.505	4.2842e-06	54.429	0.00072505	0.00086087	0.00024437	1268	9.2941e-06	9.6795e-06	1107.9	412.58	8.8975e-06	9.3129e-06	390.18	134.15	149.65	56.059	9.3763e-06	51.59	226.248	165.998	162.462	76.301	238.398	280.412	75.873	81.973	220.911	212.492	79.548	83.692	86.323	91.019	255.622	87.319	-8191	255	
#DATA ENDS
