BOXY.EXE: ISS Imagent and Oximeter Data Acquisition Program Version 0.80
Ascii Record File

#ACQ INFORMATION
2  Detector Channels 
16  External MUX Channels 
1  Auxiliary Channels 
5000  Waveform (CCF) Frequency (Hz)
1  Waveforms Skipped 
30  Waveforms Averaged 
1  Cycles Averaged 
16  Acquisitions per Waveform 
10.0806  Updata Rate (Hz) 

#FILE INFORMATION
TRUE -- External MUX Channel results are PARSED.
FALSE -- AC DC and Phase are NOT grouped.
TRUE -- Companion Program Settings File CREATED.
FALSE -- AC data not excluded
FALSE -- DC data not excluded
FALSE -- Phase data not excluded
FALSE -- Auxillary Chn. data not excluded
Tab delimiters

#CALIBRATION STATE
TRUE -- Waveform Calibration Values APPLIED.


#AUX CALIBRATION VALUES
Val Type	aux-1	

Term	1.0000e+00	
Factor	0.0000e+00	


#WF CALIBRATION VALUES
A = Detector Channel
Val Type	A-AC1	A-AC2	A-AC3	A-AC4	A-AC5	A-AC6	A-AC7	A-AC8	A-AC9	A-AC10	A-AC11	A-AC12	A-AC13	A-AC14	A-AC15	A-AC16	A-DC1	A-DC2	A-DC3	A-DC4	A-DC5	A-DC6	A-DC7	A-DC8	A-DC9	A-DC10	A-DC11	A-DC12	A-DC13	A-DC14	A-DC15	A-DC16	A-Ph1	A-Ph2	A-Ph3	A-Ph4	A-Ph5	A-Ph6	A-Ph7	A-Ph8	A-Ph9	A-Ph10	A-Ph11	A-Ph12	A-Ph13	A-Ph14	A-Ph15	A-Ph16	

Term	0.00000e+00	0.00000e+00	0.00000e+00	0.00000e+00	0.00000e+00	0.00000e+00	0.00000e+00	0.00000e+00	0.00000e+00	0.00000e+00	0.00000e+00	0.00000e+00	0.00000e+00	0.00000e+00	0.00000e+00	0.00000e+00	0.00000e+00	0.00000e+00	0.00000e+00	0.00000e+00	0.00000e+00	0.00000e+00	0.00000e+00	0.00000e+00	0.00000e+00	0.00000e+00	0.00000e+00	0.00000e+00	0.00000e+00	0.00000e+00	0.00000e+00	0.00000e+00	0.00000e+00	0.00000e+00	0.00000e+00	0.00000e+00	0.00000e+00	0.00000e+00	0.00000e+00	0.00000e+00	0.00000e+00	0.00000e+00	0.00000e+00	0.00000e+00	0.00000e+00	0.00000e+00	0.00000e+00	0.00000e+00	
Factor	1.00000e+00	1.00000e+00	1.00000e+00	1.00000e+00	1.00000e+00	1.00000e+00	1.00000e+00	1.00000e+00	1.00000e+00	1.00000e+00	1.00000e+00	1.00000e+00	1.00000e+00	1.00000e+00	1.00000e+00	1.00000e+00	1.00000e+00	1.00000e+00	1.00000e+00	1.00000e+00	1.00000e+00	1.00000e+00	1.00000e+00	1.00000e+00	1.00000e+00	1.00000e+00	1.00000e+00	1.00000e+00	1.00000e+00	1.00000e+00	1.00000e+00	1.00000e+00	X	X	X	X	X	X	X	X	X	X	X	X	X	X	X	X	

B = Detector Channel
Val Type	B-AC1	B-AC2	B-AC3	B-AC4	B-AC5	B-AC6	B-AC7	B-AC8	B-AC9	B-AC10	B-AC11	B-AC12	B-AC13	B-AC14	B-AC15	B-AC16	B-DC1	B-DC2	B-DC3	B-DC4	B-DC5	B-DC6	B-DC7	B-DC8	B-DC9	B-DC10	B-DC11	B-DC12	B-DC13	B-DC14	B-DC15	B-DC16	B-Ph1	B-Ph2	B-Ph3	B-Ph4	B-Ph5	B-Ph6	B-Ph7	B-Ph8	B-Ph9	B-Ph10	B-Ph11	B-Ph12	B-Ph13	B-Ph14	B-Ph15	B-Ph16	

Term	0.00000e+00	0.00000e+00	0.00000e+00	0.00000e+00	0.00000e+00	0.00000e+00	0.00000e+00	0.00000e+00	0.00000e+00	0.00000e+00	0.00000e+00	0.00000e+00	0.00000e+00	0.00000e+00	0.00000e+00	0.00000e+00	0.00000e+00	0.00000e+00	0.00000e+00	0.00000e+00	0.00000e+00	0.00000e+00	0.00000e+00	0.00000e+00	0.00000e+00	0.00000e+00	0.00000e+00	0.00000e+00	0.00000e+00	0.00000e+00	0.00000e+00	0.00000e+00	-1.39278e+02	-1.18623e+02	-1.35795e+02	-1.82111e+02	-6.77916e+01	-8.69060e+01	-1.58920e+02	-1.62015e+02	-8.07281e+01	-9.04246e+01	-1.70527e+02	-1.72392e+02	-1.77825e+02	-1.76618e+02	-8.58281e+01	-1.49177e+02	
Factor	2.08840e-05	1.12845e-04	4.51227e-05	1.72743e-01	1.01973e-06	1.29749e-06	1.94666e-01	5.53233e-02	1.05499e-06	1.31565e-06	9.43069e-02	3.35196e-02	2.78317e-02	9.88634e-03	1.30373e-06	1.45576e-02	1.37347e-06	1.43500e-06	4.00220e-07	8.51377e-02	1.56614e-08	1.57660e-08	8.99492e-02	2.72962e-02	1.56928e-08	1.57274e-08	4.45325e-02	1.58891e-02	1.37582e-02	4.84121e-03	1.57627e-08	6.86061e-03	X	X	X	X	X	X	X	X	X	X	X	X	X	X	X	X	



#DISTANCE SETTINGS
A = Detector Channel
A-1	A-2	A-3	A-4	A-5	A-6	A-7	A-8	A-9	A-10	A-11	A-12	A-13	A-14	A-15	A-16	

2.5000e+00	3.0000e+00	2.5000e+00	3.0000e+00	2.0000e+00	3.0000e+00	1.5000e+00	3.0000e+00	3.0000e+00	3.0000e+00	3.0000e+00	3.0000e+00	3.0000e+00	3.0000e+00	1.5000e+00	3.0000e+00	

B = Detector Channel
B-1	B-2	B-3	B-4	B-5	B-6	B-7	B-8	B-9	B-10	B-11	B-12	B-13	B-14	B-15	B-16	

1.0000e+01	1.0000e+01	1.0000e+01	1.4400e+00	1.0000e+01	1.0000e+01	1.5100e+00	1.9400e+00	1.0000e+01	1.0000e+01	1.9900e+00	2.4900e+00	2.4100e+00	2.9000e+00	1.0000e+01	2.9800e+00	




#DATA BEGINS
time	group	step	mark	flag	A-AC1	A-AC2	A-AC3	A-AC4	A-AC5	A-AC6	A-AC7	A-AC8	A-AC9	A-AC10	A-AC11	A-AC12	A-AC13	A-AC14	A-AC15	A-AC16	A-DC1	A-DC2	A-DC3	A-DC4	A-DC5	A-DC6	A-DC7	A-DC8	A-DC9	A-DC10	A-DC11	A-DC12	A-DC13	A-DC14	A-DC15	A-DC16	A-Ph1	A-Ph2	A-Ph3	A-Ph4	A-Ph5	A-Ph6	A-Ph7	A-Ph8	A-Ph9	A-Ph10	A-Ph11	A-Ph12	A-Ph13	A-Ph14	A-Ph15	A-Ph16	B-AC1	B-AC2	B-AC3	B-AC4	B-AC5	B-AC6	B-AC7	B-AC8	B-AC9	B-AC10	B-AC11	B-AC12	B-AC13	B-AC14	B-AC15	B-AC16	B-DC1	B-DC2	B-DC3	B-DC4	B-DC5	B-DC6	B-DC7	B-DC8	B-DC9	B-DC10	B-DC11	B-DC12	B-DC13	B-DC14	B-DC15	B-DC16	B-Ph1	B-Ph2	B-Ph3	B-Ph4	B-Ph5	B-Ph6	B-Ph7	B-Ph8	B-Ph9	B-Ph10	B-Ph11	B-Ph12	B-Ph13	B-Ph14	B-Ph15	B-Ph16	aux-1	digaux	

3385.962	1	1	0	256	0.1332	0.25503	0.1514	0.1907	0.048704	0.096486	0.43389	0.054573	0.26981	0.43586	0.13705	0.20317	0.18444	0.069528	0.11602	0.30322	-1.3667	-2.0062	-1.8167	-2.0833	-1.9979	-1.6396	-2.0604	-1.7625	-1.6583	-1.9083	-1.7812	-2.0521	-1.9438	-1.7667	-2.0812	-2.0667	194.575	347.645	435.608	345.307	406.680	386.612	98.162	183.040	399.691	158.662	381.042	394.383	313.935	388.950	341.022	393.737	0.00098542	0.0015247	0.00095923	595.94	1.6496e-05	1.8103e-05	920.01	223.38	1.0761e-05	9.5654e-06	408.07	206.26	89.486	47.681	2.736e-05	118.59	0.0053573	0.005229	0.0016229	924.65	6.0393e-05	5.9191e-05	1246.5	328.88	6.175e-05	5.9111e-05	575.3	263.58	138.58	63.893	6.8708e-05	141.59	164.434	179.041	160.078	92.098	205.920	151.222	92.711	97.075	352.999	232.723	96.745	100.676	100.825	105.791	223.391	104.707	-8191	255	
3386.058	1	1	0	0	0.18457	0.070382	0.098825	0.057516	0.084383	0.22903	0.2406	0.30607	0.22712	0.049274	0.30764	0.33507	0.19071	0.14277	0.17976	0.24141	-1.1417	-1.9833	-1.675	-1.9104	-1.9208	-1.5729	-2.0104	-1.7354	-1.6917	-2.1188	-1.7687	-2.0208	-1.9729	-1.8771	-2.0167	-1.9688	80.470	85.614	221.486	327.278	224.777	352.894	354.386	155.217	165.771	178.537	343.347	113.550	408.876	424.739	321.456	328.378	0.00097354	0.0027213	0.00098359	592.49	1.2205e-05	2.859e-05	916.24	222.09	1.9382e-06	1.9925e-05	410.78	207.24	89.827	47.882	6.2017e-06	118.73	0.0055909	0.0056737	0.0018081	937.68	6.3514e-05	6.476e-05	1288.7	331.57	6.4829e-05	6.5014e-05	593.13	265.75	140.73	65.669	7.3195e-05	142.31	175.188	194.284	145.789	92.260	339.911	204.504	92.790	97.910	95.992	187.286	96.562	100.678	101.369	105.621	253.388	104.826	-8191	255	
3386.154	1	1	0	0	0.20185	0.15574	0.29685	0.12675	0.28451	0.30909	0.1858	0.30286	0.36499	0.18208	0.22565	0.19429	0.20192	0.027998	0.1434	0.084413	-1.1063	-1.9917	-1.5646	-1.8312	-1.9688	-1.6938	-2.0021	-1.8542	-1.4833	-2.0625	-2.0042	-1.875	-2.1562	-1.4438	-1.8792	-2.175	178.959	296.070	212.115	198.054	394.175	346.291	404.975	389.467	302.982	299.509	254.950	418.683	423.848	119.680	259.252	410.422	0.0011478	0.0029898	0.00019383	595.98	7.5273e-06	3.2628e-05	918.82	223.12	6.1696e-06	2.757e-05	409.31	206.33	89.891	47.725	2.7879e-05	118.48	0.0057402	0.0061277	0.0018709	936.66	6.4079e-05	6.9461e-05	1299.1	329.59	6.4759e-05	6.937e-05	592.65	264.22	139.91	66.701	7.1846e-05	140.78	151.857	155.802	131.409	92.569	394.716	195.208	92.637	97.583	312.841	219.604	96.268	100.492	100.974	105.981	398.182	104.641	-8191	255	
3386.250	1	1	0	0	0.16548	0.035338	0.1939	0.10104	0.18751	0.0064109	0.27984	0.10211	0.16158	0.34198	0.16507	0.076734	0.15996	0.23217	0.24737	0.23591	-1.0729	-1.7479	-1.8375	-1.7083	-1.9229	-1.5833	-1.9312	-2.0625	-1.2708	-2.0396	-1.8937	-1.7729	-1.9875	-1.9042	-1.8396	-2.1104	266.247	110.742	114.403	390.800	239.950	300.891	84.724	408.496	210.289	410.311	257.805	418.919	365.541	86.824	187.573	385.491	0.0013349	0.0020389	0.00073924	597.91	1.3112e-05	1.7207e-05	922.26	225.04	2.093e-05	2.3217e-05	406.15	205.78	90.076	47.427	1.3137e-05	118.44	0.0056141	0.0064014	0.0017931	922.98	6.2018e-05	7.0489e-05	1275.2	325.08	6.3269e-05	7.043e-05	578.84	260.71	139.49	66.951	6.8237e-05	139.47	161.964	175.774	337.749	92.710	223.603	202.673	92.648	97.416	245.808	194.377	96.369	100.529	100.996	105.553	335.157	104.685	-8191	255	
3386.347	1	1	0	0	0.1953	0.16844	0.14735	0.13284	0.19126	0.16685	0.13636	0.031596	0.022044	0.13465	0.12695	0.10619	0.15105	0.27893	0.025259	0.1639	-1.1646	-1.7792	-1.7646	-1.6604	-2.1104	-1.6833	-1.9833	-2.1354	-1.6125	-1.8708	-1.8687	-1.8729	-1.9229	-1.8062	-1.8729	-2.3542	304.306	328.576	329.316	260.451	161.557	152.360	358.799	139.011	142.241	236.840	130.615	341.398	96.013	142.407	131.012	355.973	0.0013444	0.0011751	0.00077447	600.98	1.9005e-05	1.8175e-05	920.8	225.39	3.2113e-05	1.5656e-05	407.1	207.33	90.59	47.67	1.3662e-05	118.79	0.0056758	0.0065345	0.0017197	920.01	6.4454e-05	7.2363e-05	1266	324.54	6.6268e-05	7.252e-05	575.08	260.67	143.15	67.558	6.7566e-05	139.77	166.232	235.633	311.060	92.813	246.578	204.802	92.772	97.121	198.159	250.466	96.882	100.722	100.797	105.342	246.843	104.516	-8191	255	
3386.467	1	1	0	0	0.14179	0.089002	0.12577	0.17069	0.17441	0.16895	0.16584	0.11052	0.098245	0.15657	0.13521	0.21965	0.22368	0.13867	0.32109	0.17134	-1.2687	-2	-2.0458	-1.7188	-2.0667	-1.5312	-1.8792	-2.0208	-1.5938	-1.9083	-2.0104	-2.1146	-1.9604	-1.9896	-1.6771	-2.1521	138.177	328.990	377.294	371.682	267.614	193.408	391.528	393.075	123.818	238.901	91.297	411.775	426.449	390.593	183.026	348.061	0.0013413	0.00059447	0.00060958	604.25	5.0597e-05	1.3921e-05	921.74	224.6	2.6174e-05	1.0388e-05	405.87	206.8	90.805	47.437	9.5661e-06	118.6	0.0060432	0.0066321	0.0017086	920.5	6.9619e-05	7.276e-05	1266.9	325	7.1412e-05	7.2917e-05	576.18	262.58	148.1	67.501	6.8276e-05	140.76	160.819	321.472	342.185	92.420	202.914	401.475	92.947	97.632	205.662	375.127	96.280	100.555	100.488	105.434	355.129	104.555	-8191	255	
3386.562	1	1	0	0	0.29789	0.13231	0.1834	0.18838	0.05795	0.067509	0.35102	0.1963	0.20307	0.13923	0.1496	0.05078	0.17597	0.28121	0.16997	0.19508	-1.2313	-1.6958	-1.8792	-1.5604	-1.9312	-1.7687	-1.7667	-1.8875	-1.5833	-1.8354	-1.95	-1.9229	-1.9542	-1.7812	-1.8271	-2.4125	414.629	117.633	378.131	329.262	278.437	419.887	345.962	148.593	235.737	432.244	376.367	119.189	411.196	85.050	322.878	345.571	0.0014629	0.0017444	0.00015767	596.27	9.4179e-06	2.962e-05	918.03	227.17	2.1559e-05	9.8634e-06	411.11	207.12	91.003	47.426	2.4243e-05	118.92	0.006486	0.006619	0.0017169	931.45	7.3809e-05	7.1867e-05	1269.2	331.35	7.4958e-05	7.1552e-05	575.52	265.44	150.99	67.077	6.7438e-05	142.23	157.621	98.857	80.033	92.705	230.057	382.734	92.382	97.286	206.620	401.872	96.779	100.686	100.812	105.160	319.273	104.368	-8191	255	
3386.658	1	1	0	0	0.36061	0.19741	0.12276	0.27685	0.04501	0.11608	0.30074	0.16158	0.19815	0.21364	0.1237	0.12088	0.21909	0.14403	0.1766	0.17504	-1.3188	-1.6313	-1.7896	-1.7687	-2.1542	-1.9062	-1.7771	-1.9896	-2.0104	-1.8396	-2.1188	-1.9167	-1.8667	-2.1542	-1.8646	-2.1479	80.125	134.190	288.558	88.323	308.980	277.781	256.531	100.723	196.521	281.536	362.665	225.038	373.597	415.632	411.915	352.250	0.0010584	0.0011933	0.00077664	611.71	1.1343e-05	2.5463e-06	929.12	229.55	2.5766e-05	1.2674e-05	412.53	209.72	91.497	47.946	1.8246e-05	120.29	0.0066356	0.0064662	0.001708	958.61	7.5318e-05	6.9982e-05	1270.5	338.45	7.4581e-05	6.9169e-05	573.9	269.4	150.23	66.349	6.5425e-05	144.04	188.848	386.902	326.350	92.820	316.981	321.021	92.553	97.242	296.957	283.435	96.488	100.285	101.019	105.137	265.226	104.680	-8191	255	
3386.754	1	1	0	0	0.035863	0.26422	0.064121	0.14039	0.32428	0.27709	0.22186	0.21459	0.19366	0.015888	0.11707	0.28645	0.25701	0.17675	0.25354	0.4715	-1.1208	-1.6437	-2.0083	-1.7604	-1.7604	-1.9583	-1.7062	-2.1521	-2.0104	-1.5583	-2.1437	-1.75	-1.5688	-1.8417	-1.4937	-2.0958	244.329	204.259	131.323	141.721	430.487	266.494	343.080	222.857	372.752	203.164	327.273	390.144	148.655	182.749	209.320	392.862	0.00070311	0.0007909	0.00087037	610.77	1.548e-05	1.6707e-05	935.03	229.71	1.3106e-05	7.6736e-06	418.07	210.24	92.044	48.299	1.1433e-05	120.7	0.0063498	0.0061554	0.0016278	964.23	7.1212e-05	6.6042e-05	1255.5	340.71	6.9718e-05	6.5538e-05	570.09	270.78	146.67	65.391	6.4059e-05	144.95	159.603	100.955	193.043	92.381	415.250	310.881	92.527	97.134	406.281	221.779	96.940	100.698	100.823	105.366	154.127	104.450	-8191	255	
3386.850	1	1	0	0	0.053038	0.41885	0.15639	0.26012	0.14556	0.27899	0.097448	0.059995	0.14458	0.37921	0.29795	0.29094	0.36276	0.15897	0.24527	0.28241	-1.3687	-1.6292	-1.9896	-1.8583	-1.8583	-2.1542	-1.7979	-2.15	-1.9646	-1.65	-2.1396	-1.7938	-1.8958	-2.0563	-1.5667	-2.2042	415.698	306.224	321.044	174.675	91.255	111.762	380.871	436.533	106.350	350.974	82.593	341.844	396.241	399.257	401.464	372.181	0.00095249	0.0010227	0.00089579	610.79	1.4731e-05	3.6284e-06	939.72	229.85	1.5396e-05	2.2016e-05	417.74	209.35	92.549	48.311	2.6187e-05	119.76	0.0060021	0.0058856	0.0016276	970.12	6.7186e-05	6.3001e-05	1258.8	342.82	6.5828e-05	6.286e-05	573	269.79	143.88	64.537	6.5475e-05	143.88	173.664	302.957	194.491	92.523	404.455	407.289	92.574	97.548	337.871	160.785	96.488	100.508	100.485	105.135	185.852	104.298	-8191	255	
3386.946	1	1	0	0	0.079774	0.092245	0.054756	0.13396	0.071932	0.15871	0.33552	0.024902	0.2135	0.083939	0.078486	0.16475	0.31129	0.072288	0.23793	0.27039	-1.4438	-1.6083	-2.0396	-1.7708	-1.6896	-2.0854	-1.7333	-2.1271	-1.8292	-1.7042	-1.9958	-1.8104	-1.9333	-2.0458	-1.7708	-2.0563	312.250	363.261	226.233	428.962	227.111	302.468	308.663	80.789	299.001	395.116	330.291	226.518	402.742	408.549	412.225	341.838	0.0010914	0.00085999	0.0013005	607.51	7.2214e-07	1.8523e-05	939.17	229.5	1.2622e-05	6.6548e-06	416.61	208.43	91.949	48.264	3.1096e-05	119.69	0.0056996	0.0057029	0.0016941	961.83	6.4972e-05	6.1563e-05	1277.3	340.74	6.4238e-05	6.2342e-05	583.09	267.63	142.03	64.341	6.8622e-05	142.81	147.871	327.902	153.012	92.675	313.363	104.932	92.807	97.105	331.008	267.176	96.706	100.486	101.063	105.427	225.722	104.222	-8191	255	
3387.067	1	1	0	0	0.085676	0.14951	0.024259	0.11556	0.15253	0.13419	0.08818	0.42487	0.32363	0.096312	0.28652	0.18938	0.29794	0.27631	0.055194	0.28911	-1.5146	-1.7708	-1.9896	-1.9188	-1.7104	-2.0146	-1.9438	-1.9854	-1.9104	-1.5125	-2.1063	-1.875	-1.8438	-2.3083	-1.9083	-2.0479	145.637	380.470	302.427	418.839	279.023	438.419	238.238	395.969	201.182	171.013	270.418	378.008	99.988	423.108	318.592	387.318	0.0010904	0.0010098	0.0010934	607.56	9.0785e-06	4.8786e-06	934.37	229.36	3.6617e-06	3.2565e-05	417.2	210.02	92.42	48.58	1.257e-05	119.99	0.0055397	0.0056	0.001744	944.3	6.266e-05	6.1279e-05	1285.5	334.87	6.1537e-05	6.1988e-05	588.54	265.23	140.66	64.867	6.9538e-05	142.01	165.051	213.773	133.501	92.723	431.929	208.787	92.630	97.066	336.369	188.206	96.738	100.284	100.677	105.238	218.607	104.327	-8191	255	
3387.163	1	1	0	0	0.16271	0.16952	0.26868	0.033863	0.13733	0.085829	0.30011	0.19484	0.15453	0.24834	0.36439	0.18861	0.08146	0.1422	0.21929	0.21527	-1.5375	-1.6667	-1.9521	-2.0479	-1.7479	-2.0375	-1.9375	-1.7792	-2.0083	-1.6562	-2.0667	-2.0104	-1.7812	-2.1604	-1.8042	-1.9813	266.535	227.118	236.832	432.930	219.303	273.359	95.566	352.309	110.717	356.590	372.711	414.013	132.521	353.441	426.054	373.687	0.0011739	0.0023747	0.00038366	605.69	2.0926e-06	4.6339e-05	939.74	231.94	8.6993e-06	4.4596e-05	416.57	210.6	92.78	48.685	1.4145e-05	120.52	0.0053761	0.0057578	0.001768	926.53	6.0785e-05	6.3509e-05	1287.6	331.26	5.9763e-05	6.4205e-05	587.64	262.94	139.29	65.674	6.8174e-05	141.31	177.803	165.184	187.454	92.417	91.742	231.842	92.738	97.171	268.206	194.271	96.669	100.358	100.813	105.338	327.992	104.223	-8191	255	
3387.257	1	1	0	0	0.16788	0.063164	0.13654	0.13849	0.096497	0.23305	0.14004	0.056496	0.34839	0.18162	0.080468	0.20162	0.22425	0.06656	0.050115	0.21974	-1.4521	-1.7563	-1.9021	-1.9542	-1.7167	-2.2188	-1.8458	-1.8062	-1.9375	-1.7062	-1.9083	-2.0458	-1.675	-2.1708	-1.8167	-1.8833	230.710	254.538	202.322	97.351	380.928	425.096	334.612	427.650	292.683	167.448	382.839	422.221	103.272	191.402	188.192	360.288	0.0010682	0.0019741	0.00041992	608.38	6.937e-06	1.2179e-05	935.11	231.32	1.2321e-05	2.665e-05	413.5	209.73	92.403	48.452	1.1754e-05	119.73	0.005218	0.0060074	0.0017285	916.71	5.9951e-05	6.6761e-05	1278.4	327.96	5.9373e-05	6.7415e-05	580.34	260.59	139.16	66.543	6.5854e-05	140.13	157.074	151.788	368.045	92.309	125.119	184.724	92.661	97.348	224.219	202.640	96.331	100.522	100.809	104.919	364.951	104.319	-8191	255	
3387.355	1	1	0	0	0.13092	0.1257	0.23143	0.19224	0.38031	0.16049	0.37938	0.095687	0.087786	0.056164	0.14718	0.12303	0.1839	0.13791	0.33088	0.09289	-1.6875	-1.7938	-1.7875	-2.0708	-1.6604	-1.9937	-1.8146	-1.8438	-2.0021	-1.7792	-1.9667	-2.1292	-1.7729	-2.1813	-1.8854	-1.7417	312.090	350.108	438.987	361.565	102.707	238.841	412.744	92.851	412.557	332.176	193.656	328.406	397.522	273.311	421.991	168.843	0.0014127	0.000465	0.00048249	607.06	6.4375e-06	2.7863e-05	928.83	227.94	3.2266e-05	1.1923e-05	413.15	208.36	92.071	48.115	4.4302e-06	119.66	0.0052941	0.0062422	0.001669	904.41	6.1262e-05	6.8493e-05	1252.7	322.94	6.1004e-05	6.8476e-05	569.78	257.62	140.44	66.513	6.2625e-05	138.87	163.176	331.414	429.542	92.277	269.489	234.610	92.605	97.658	206.309	209.028	96.846	100.322	100.869	105.040	154.803	104.470	-8191	255	
3387.427	1	1	0	0	0.2169	0.07096	0.36882	0.2663	0.22386	0.16539	0.08753	0.084593	0.17943	0.43587	0.094581	0.054042	0.097421	0.32144	0.074742	0.073424	-1.5354	-1.6646	-1.9312	-2.0958	-1.6292	-1.9771	-1.9604	-1.7479	-1.8937	-1.9917	-1.8813	-2.1937	-1.5521	-2.0354	-1.8917	-1.9083	334.368	125.418	107.774	389.632	243.059	308.962	395.843	183.329	128.186	381.915	386.336	286.757	237.547	161.694	382.779	190.264	0.0015211	0.0016789	0.00063702	604.81	2.5597e-05	9.7281e-06	928.23	228.54	3.9213e-05	2.4868e-05	413.07	209.03	92.754	47.871	4.8301e-06	120.05	0.0055015	0.0061857	0.0015989	892.74	6.3349e-05	6.745e-05	1238.1	321	6.4055e-05	6.7155e-05	566.37	257.37	143.77	66.278	6.2174e-05	139.59	148.773	398.390	162.856	92.411	220.220	295.769	92.729	97.631	212.773	339.201	96.518	100.461	100.974	105.775	307.156	104.496	-8191	255	
3387.546	1	1	0	0	0.22079	0.26776	0.11679	0.095425	0.14425	0.10894	0.072898	0.26136	0.15563	0.043346	0.20416	0.19552	0.20573	0.23258	0.12717	0.17761	-1.6271	-1.8208	-1.7313	-2.0167	-1.8188	-1.8	-2.1667	-1.7938	-1.9875	-1.8354	-1.8167	-2.2729	-1.9104	-2.0563	-2.0042	-1.8188	98.030	426.559	413.422	253.011	429.904	394.936	356.147	348.299	320.217	291.491	105.010	338.827	130.317	108.993	354.466	372.751	0.0014496	0.0015009	0.00010634	607.76	6.934e-06	6.5968e-06	929.37	228.55	1.1417e-05	8.874e-06	411.16	209.53	91.482	47.956	8.3469e-06	120.06	0.0058794	0.0061138	0.0015931	898.76	6.7369e-05	6.6553e-05	1232.5	322.2	6.7382e-05	6.5168e-05	560.26	258.21	144.69	65.171	5.9281e-05	139.53	155.344	238.363	227.772	92.936	239.907	246.356	92.881	97.984	139.595	159.839	96.401	100.592	100.828	105.299	185.516	104.549	-8191	255	
3387.642	1	1	0	0	0.092764	0.18826	0.11304	0.17098	0.19143	0.30896	0.18158	0.19019	0.15277	0.15988	0.074296	0.25081	0.088117	0.01469	0.066838	0.36168	-1.4833	-1.9271	-1.7292	-2.0458	-1.6708	-1.7792	-2.1312	-1.7958	-1.95	-2.0979	-1.7958	-2.1021	-1.8813	-1.8312	-2.075	-1.9083	384.755	156.308	362.527	189.073	103.755	386.621	423.130	400.838	395.978	217.458	370.730	396.924	343.028	388.771	212.079	364.793	0.0014195	0.0005879	9.9234e-05	606.04	1.0497e-05	1.8587e-05	925.37	227.52	3.4149e-05	1.5537e-05	410.21	209.04	90.423	47.687	2.6641e-05	119.51	0.0058764	0.005688	0.0015035	896.78	6.6389e-05	6.1679e-05	1208.6	321.41	6.5637e-05	6.0206e-05	549.6	258.16	142.36	63.679	5.6024e-05	139.39	152.540	295.500	108.513	92.954	398.671	397.580	92.997	97.671	168.543	273.596	96.658	100.944	101.065	105.585	179.956	104.680	-8191	255	
3387.738	1	1	0	0	0.12208	0.034424	0.054056	0.18283	0.21993	0.18325	0.051287	0.26928	0.13409	0.10242	0.26777	0.047091	0.34616	0.2443	0.31703	0.30046	-1.4146	-1.8521	-1.5063	-2.0062	-1.7917	-1.7833	-2.0125	-1.7542	-1.8125	-1.9854	-1.5458	-2.1917	-1.725	-1.6729	-2.1188	-1.9312	202.329	273.339	265.189	395.033	293.733	94.681	304.997	322.579	226.024	144.982	406.942	86.528	80.088	89.686	269.464	372.990	0.00080735	0.00089428	0.00067126	596.88	1.2593e-05	3.8261e-06	916.51	226.05	1.1046e-05	1.0931e-05	406.72	207.44	89.424	47.334	1.0905e-05	119.19	0.0056506	0.0053501	0.0014277	899.98	6.3259e-05	5.8825e-05	1191.8	323.24	6.3254e-05	5.8601e-05	544.95	260.51	139.84	63.04	5.6625e-05	140.83	167.595	249.314	93.278	92.809	353.426	324.994	92.745	97.780	301.348	108.930	96.855	101.062	101.208	105.570	215.672	104.518	-8191	255	
3387.859	1	1	0	0	0.078711	0.2358	0.15999	0.17667	0.20064	0.12083	0.25782	0.192	0.36304	0.31242	0.094575	0.28505	0.3969	0.40371	0.0046837	0.065689	-1.4062	-2.075	-1.7437	-1.9917	-1.9	-1.675	-2.15	-1.8396	-1.7396	-2.0521	-1.7896	-2.1562	-1.9438	-1.6812	-2.0771	-2.0604	169.591	393.376	305.518	184.863	437.682	281.478	428.705	385.032	350.937	399.340	286.983	418.927	226.817	331.301	425.081	182.169	0.00081899	0.0012196	0.0013185	602.55	9.9315e-06	1.1184e-05	918.64	224.61	1.362e-05	6.9028e-06	409.37	208.57	90.739	47.665	2.6008e-05	119.88	0.0055139	0.0053035	0.0014727	920.83	6.1874e-05	5.8617e-05	1204.5	328.07	6.1712e-05	5.7714e-05	552.46	263.03	138.08	62.931	5.9077e-05	141.96	153.427	232.666	132.869	92.434	427.296	236.867	92.858	97.690	324.391	285.077	96.810	100.628	101.021	105.753	198.565	104.777	-8191	255	
3387.955	1	1	0	0	0.091544	0.051499	0.10348	0.33267	0.041373	0.18763	0.1856	0.21476	0.22031	0.20918	0.28946	0.47524	0.054267	0.26589	0.24714	0.095576	-1.2917	-1.8188	-1.6063	-1.9438	-1.9104	-1.4542	-2.0167	-1.9875	-1.7542	-2.1125	-1.8104	-2.1625	-1.9125	-1.8625	-2.1396	-2.0646	191.998	293.018	326.306	419.893	399.539	110.125	344.270	274.635	91.933	99.391	349.044	399.114	348.870	353.860	343.857	225.323	0.00095936	0.0015736	0.0013559	598.64	1.2095e-05	1.2785e-05	925.22	225.86	1.8815e-05	2.2288e-05	412.82	209.56	90.863	47.621	4.5874e-05	119.96	0.0053255	0.0051571	0.0015286	922.78	5.9433e-05	5.7231e-05	1224.3	327.31	5.9624e-05	5.6094e-05	563.72	262.76	136.39	62.737	6.2513e-05	141.36	146.648	278.175	151.029	92.900	397.802	367.688	92.879	97.468	314.946	350.804	96.853	100.537	100.874	105.699	193.437	104.526	-8191	255	
3388.027	1	1	0	0	0.23492	0.031237	0.10296	0.11145	0.10946	0.030554	0.088687	0.062904	0.17818	0.23423	0.099967	0.2806	0.23898	0.060849	0.16769	0.20431	-1.1896	-2.0667	-1.6375	-2.175	-2.0917	-1.5688	-2.1792	-2.0271	-1.7687	-2.0021	-1.8792	-2.1479	-2.0771	-1.8396	-2.0896	-1.9854	228.581	169.405	101.941	377.956	384.156	145.681	313.393	363.361	262.192	294.929	375.310	86.957	324.087	413.401	271.476	388.541	0.00092684	0.001566	0.00074824	597.11	1.2523e-06	1.5717e-05	920.47	225.3	1.5351e-05	2.7047e-05	412.61	207.32	90.721	47.853	2.1544e-05	118.85	0.0052271	0.0051375	0.0016307	912.99	5.8732e-05	5.7952e-05	1246	325.02	5.9611e-05	5.7855e-05	574.51	261.41	136.73	63.518	6.6974e-05	140.43	149.805	239.897	167.252	92.610	366.673	208.157	92.993	97.819	344.581	201.553	96.816	100.394	100.822	105.256	227.387	104.628	-8191	255	
3388.147	1	1	0	0	0.087955	0.15276	0.22949	0.13644	0.095816	0.064069	0.15097	0.18214	0.1071	0.34413	0.18154	0.064862	0.14653	0.20391	0.05964	0.23094	-1.2729	-1.9979	-1.8417	-1.9562	-1.7729	-1.8167	-2.0938	-1.8417	-1.75	-2.0687	-1.7271	-1.975	-2.025	-1.9229	-1.9813	-1.9792	366.224	429.534	176.828	291.591	168.052	361.873	369.599	380.640	93.236	189.647	106.606	111.509	150.657	387.277	188.536	321.445	0.00088962	0.0017646	0.00074932	592.49	5.955e-06	2.5895e-05	914.5	222.02	1.0462e-06	3.0997e-05	409.75	208.14	90.878	47.871	1.8481e-05	119.07	0.0053042	0.005501	0.0017397	909.74	5.9472e-05	6.1892e-05	1261.4	321.63	5.9494e-05	6.1847e-05	577.61	259.57	135.95	64.512	6.7481e-05	139.52	150.618	190.466	152.466	93.078	132.252	216.442	92.666	97.624	433.972	207.533	96.773	100.683	101.010	105.780	269.100	104.766	-8191	255	
3388.243	1	1	0	0	0.1523	0.077376	0.084352	0.381	0.27371	0.20539	0.14664	0.069265	0.14253	0.081914	0.12723	0.10725	0.27495	0.19404	0.078164	0.37473	-1.2083	-1.9333	-1.6146	-1.7792	-2.2562	-1.8021	-2.0729	-2.0021	-1.6187	-2.0292	-1.8521	-1.9729	-2.0125	-1.9708	-1.8667	-2.0896	383.108	153.929	415.695	409.143	243.569	415.173	337.221	170.105	408.674	234.436	154.621	366.725	438.561	95.473	93.399	415.315	0.00099219	0.0024379	0.00049288	592.55	3.6413e-06	3.7853e-05	914.26	221.8	2.3033e-05	3.9793e-05	405.77	206.4	89.296	47.638	1.1778e-05	118.57	0.0051947	0.0057851	0.001708	897.5	5.8096e-05	6.4882e-05	1248.8	316.07	5.8593e-05	6.4628e-05	569.85	257.35	134.63	65.218	6.542e-05	138.69	164.137	130.837	352.316	92.520	260.852	184.400	92.898	97.574	292.039	185.871	96.882	100.492	101.087	105.662	348.556	104.806	-8191	255	
3388.340	1	1	0	0	0.3968	0.16458	0.1552	0.12835	0.11317	0.18632	0.24918	0.13099	0.0057382	0.016901	0.094765	0.16115	0.03773	0.078487	0.20331	0.071956	-1.1479	-1.9521	-1.9417	-1.7812	-2.0563	-1.6313	-1.8896	-2.0271	-1.8417	-1.9375	-1.9146	-1.7687	-2.1437	-1.875	-1.775	-2.3083	241.633	148.660	393.806	424.989	279.365	146.916	404.909	93.853	308.097	212.505	289.464	374.429	121.998	100.082	363.298	428.134	0.0011479	0.0034764	0.00083107	589.5	3.0557e-05	1.1845e-05	909.61	223.01	1.1294e-05	2.8708e-05	407.58	205.89	90.087	47.307	1.1693e-05	118.97	0.0052191	0.0060425	0.001643	887.13	5.8621e-05	6.7351e-05	1238.4	314.11	5.9712e-05	6.6902e-05	561.95	255.77	136.22	65.666	6.2858e-05	137.99	161.642	193.162	376.038	93.273	199.985	130.402	92.906	97.928	130.803	222.274	96.773	100.979	100.986	105.738	438.191	104.875	-8191	255	
3388.460	1	1	0	0	0.20492	0.088992	0.18535	0.18386	0.12387	0.13032	0.26047	0.10183	0.28545	0.095709	0.18581	0.10843	0.10824	0.1741	0.061497	0.068977	-1.3354	-1.9146	-1.7917	-1.6396	-2.0104	-1.7604	-2.1312	-2.0917	-1.8708	-2.2	-1.925	-1.7042	-2.1479	-1.6938	-1.5854	-2.2292	327.532	115.472	384.170	413.811	108.941	115.781	378.844	393.151	122.772	223.943	96.591	412.848	427.767	163.787	346.740	376.221	0.0017568	0.00091064	0.00073936	589.7	3.4485e-05	1.4078e-05	914.24	220.4	1.7794e-05	1.3722e-05	405.17	206.74	90.665	47.534	1.7993e-05	119.53	0.0053923	0.0061574	0.0015906	882.61	6.1594e-05	6.7773e-05	1224.2	311.82	6.3303e-05	6.7109e-05	557.11	255.37	139.78	65.621	6.2185e-05	138.48	154.574	326.734	404.055	93.019	245.313	337.783	92.556	97.590	183.151	389.739	96.746	100.552	100.991	105.498	222.133	104.602	-8191	255	
3388.555	1	1	0	0	0.20456	0.14843	0.10579	0.11123	0.18011	0.075379	0.12851	0.15611	0.23713	0.13826	0.42419	0.084082	0.1579	0.30723	0.14266	0.38505	-1.1625	-1.6146	-1.8292	-1.6313	-1.9562	-1.9062	-1.8917	-2.0396	-1.9229	-2	-1.85	-1.6875	-1.9937	-1.9854	-1.7646	-2.1	88.144	144.171	191.858	382.751	226.951	325.162	303.181	350.603	185.110	268.409	360.632	341.083	427.356	82.345	88.374	374.866	0.0014455	0.0019352	0.0010562	586.6	3.2023e-05	1.9904e-05	909.76	221.8	2.0152e-05	2.7058e-05	404.68	208.03	89.703	47.292	8.4245e-06	119.77	0.0057386	0.0060711	0.0015586	878.01	6.5167e-05	6.592e-05	1217.9	311.35	6.6036e-05	6.504e-05	553.36	256.61	142.03	64.826	6.031e-05	139.24	148.484	267.009	311.722	92.700	229.769	353.447	92.690	97.385	210.246	359.815	96.442	100.200	101.236	105.114	245.772	104.463	-8191	255	
3388.626	1	1	0	0	0.16083	0.13777	0.042671	0.30548	0.14258	0.21642	0.013245	0.1849	0.071497	0.1402	0.15245	0.36551	0.11189	0.33645	0.206	0.11547	-1.0854	-1.7333	-1.9917	-1.6229	-1.9646	-1.8271	-1.9312	-2.1583	-1.7687	-1.8708	-2.1229	-1.8375	-1.8958	-1.9458	-1.5063	-2.3563	215.988	373.371	357.224	359.060	213.582	344.846	131.809	429.379	409.099	348.540	418.046	82.826	408.876	400.629	242.170	151.689	0.0011795	0.0017677	0.00048771	590.34	9.5951e-06	1.7307e-05	911.92	222.3	4.1699e-06	1.4131e-05	407.41	207.87	89.433	47.116	1.828e-05	120.14	0.0059257	0.005844	0.0015193	886.3	6.6991e-05	6.3532e-05	1213.3	315.96	6.758e-05	6.2923e-05	550.41	259.42	142.99	64.02	5.8933e-05	140.01	155.218	323.380	226.111	92.460	228.055	351.348	92.749	97.321	128.375	79.734	96.340	100.361	100.649	105.030	141.465	104.358	-8191	255	
3388.747	1	1	0	0	0.11461	0.23303	0.26109	0.22814	0.22442	0.22429	0.15274	0.32116	0.27753	0.21042	0.26835	0.073303	0.1167	0.40639	0.08049	0.14516	-1.0854	-1.6396	-1.8646	-1.4979	-2.0521	-2.0312	-1.6063	-2.0583	-1.8062	-1.9562	-2.0479	-1.7146	-1.9354	-2.0917	-1.6167	-2.1396	163.925	359.996	183.089	155.666	174.058	248.499	268.971	398.190	174.748	409.806	280.720	307.774	225.312	105.944	279.207	395.089	0.00097789	0.00056184	0.00095928	594.73	1.9469e-05	2.2933e-05	920.62	221.95	9.7921e-06	1.1592e-05	403.09	207.87	89.471	47.261	1.9905e-05	119.42	0.0058782	0.0056222	0.0014837	903.01	6.6252e-05	6.1312e-05	1205.1	321.25	6.6178e-05	6.1277e-05	546.46	262.35	141.98	63.717	5.937e-05	141.7	151.687	243.824	296.080	92.595	329.981	284.091	92.317	97.446	406.018	307.285	96.475	100.488	99.794	105.129	232.053	104.103	-8191	255	
3388.843	1	1	0	0	0.094772	0.11834	0.040526	0.25111	0.2226	0.066325	0.33896	0.18878	0.34054	0.1787	0.29418	0.2177	0.21443	0.11911	0.17615	0.14674	-1.3958	-1.5479	-1.8375	-1.7396	-1.9062	-1.9833	-1.6729	-2.05	-1.8729	-1.55	-2.0917	-2.0896	-2.0312	-1.9583	-1.4208	-2.2646	149.960	360.262	149.939	255.276	132.157	80.270	84.592	433.123	100.116	238.157	321.054	395.137	390.742	151.359	243.944	125.037	0.0011036	0.001111	0.001031	587.32	6.7609e-06	2.529e-06	909.36	219.61	5.0931e-06	2.1749e-05	408.12	207.39	89.241	47.252	3.3354e-05	120.04	0.0058107	0.0056026	0.0015106	922.98	6.5193e-05	6.0826e-05	1211	326.58	6.4634e-05	6.0814e-05	552.91	264.91	140.05	63.271	6.0774e-05	142.8	165.228	429.869	147.494	91.788	122.320	347.036	92.300	97.028	347.570	242.635	96.347	100.092	99.794	104.825	207.890	104.096	-8191	255	
3388.939	1	1	0	0	0.19424	0.13199	0.10305	0.11513	0.024574	0.15848	0.23562	0.088648	0.42735	0.26917	0.37919	0.16321	0.38352	0.1337	0.16256	0.208	-1.4479	-1.7354	-2.1458	-1.9583	-1.9042	-1.8521	-1.8563	-1.8771	-1.9229	-1.6042	-2.1125	-1.7188	-1.8417	-2.1083	-1.5167	-2.1333	273.017	109.986	327.177	273.854	315.739	169.649	336.763	126.497	165.702	436.272	337.685	302.043	393.327	156.458	168.688	370.221	0.0011387	0.00067933	0.0006706	589.65	5.7976e-06	6.0549e-06	923.32	221.61	1.6132e-05	1.4206e-05	410.34	207.41	89.805	47.465	2.0919e-05	119.52	0.0055393	0.0054449	0.0015448	924.62	6.1916e-05	5.8696e-05	1224.7	327.54	6.1265e-05	5.8417e-05	559.28	264.07	137.44	62.66	6.2844e-05	142.05	179.563	123.220	141.933	91.869	158.198	299.954	92.066	96.724	318.352	400.007	96.112	100.115	100.033	104.846	234.554	103.989	-8191	255	
3389.035	1	1	0	0	0.15956	0.10113	0.13691	0.40124	0.25708	0.088495	0.23763	0.2711	0.17886	0.20382	0.24972	0.097856	0.35753	0.11161	0.122	0.34689	-1.3146	-1.5521	-1.8729	-2.0354	-1.7812	-2.1437	-1.6979	-1.8729	-1.7271	-1.7854	-2.1604	-1.9208	-1.7563	-2.1167	-1.6479	-2.175	311.195	326.082	176.498	415.000	311.581	366.010	139.765	203.181	196.736	199.986	418.444	362.199	427.897	123.924	267.527	372.730	0.00116	0.0012424	0.0011528	585.27	1.0712e-05	1.9364e-05	912.84	221.28	1.9112e-05	1.0703e-05	407.43	207.03	89.546	47.593	1.4675e-05	119.44	0.0052875	0.0052715	0.0016114	912.02	6.0156e-05	5.7497e-05	1240.1	323.11	5.9686e-05	5.8375e-05	567.69	261.98	136.21	62.864	6.6346e-05	141.3	158.877	415.581	165.119	92.111	85.741	293.500	92.624	96.734	241.662	102.466	95.980	100.127	100.614	104.777	225.943	103.949	-8191	255	
3389.131	1	1	0	0	0.05619	0.14281	0.099649	0.30631	0.036094	0.076335	0.21992	0.11142	0.17196	0.18744	0.1631	0.18821	0.23649	0.14454	0.23777	0.40844	-1.6021	-1.7208	-1.8833	-1.9625	-1.8479	-1.9188	-1.8354	-1.9667	-1.9354	-1.6729	-2.0708	-1.8875	-1.8375	-2.0417	-1.5104	-2.0208	351.482	112.738	138.782	367.619	151.007	286.218	391.490	392.026	214.365	229.975	347.124	413.004	388.139	409.886	363.509	406.891	0.00092921	0.0024128	0.00039886	585.11	5.5149e-06	1.3549e-05	914.66	219.25	1.7965e-06	1.709e-05	406.22	207.74	89.02	47.332	5.6973e-06	119.9	0.0052114	0.0053599	0.0016885	897.1	5.9269e-05	5.9298e-05	1253.5	317.45	5.8538e-05	6.0358e-05	572.25	259.51	134.95	63.546	6.6908e-05	140.35	171.181	204.122	155.165	92.292	273.069	186.057	92.187	96.983	334.277	218.736	95.673	100.044	100.246	104.958	88.389	104.270	-8191	255	
3389.250	1	1	0	0	0.29072	0.17278	0.28348	0.16977	0.17725	0.1331	0.28772	0.080831	0.11864	0.12164	0.18933	0.55356	0.18918	0.26327	0.38242	0.23161	-1.5875	-1.5938	-2.0417	-1.8146	-1.5854	-2.1958	-1.5729	-1.9188	-1.9854	-1.7104	-2.3542	-1.8917	-1.7979	-2.2875	-1.8646	-1.8542	153.801	300.568	307.341	123.854	383.928	329.923	294.382	356.897	377.015	381.809	410.992	419.538	102.384	111.860	95.660	430.630	0.00097123	0.0029796	0.00032145	580.83	8.4382e-06	2.5184e-05	910.23	219	8.3267e-06	3.9635e-05	402.37	206.59	88.364	47.186	1.7913e-05	119.09	0.0050798	0.0056211	0.0016846	878.6	5.7378e-05	6.1754e-05	1239.3	311.65	5.6423e-05	6.2537e-05	563.85	255.01	132.76	63.983	6.376e-05	138.59	154.997	152.188	381.705	92.164	320.367	176.452	92.130	96.836	117.469	198.122	96.328	100.043	100.461	104.729	93.773	103.963	-8191	255	
3389.324	1	1	0	0	0.11687	0.071284	0.12884	0.25493	0.22738	0.03056	0.14653	0.034805	0.11891	0.080967	0.15684	0.2006	0.093694	0.28138	0.21336	0.18656	-1.7167	-1.6333	-1.7896	-2.0917	-1.6979	-1.8667	-1.7812	-1.7833	-1.9667	-1.7771	-1.8792	-2.1104	-1.6583	-2.1125	-1.8104	-1.8917	87.679	232.653	344.022	152.170	220.405	191.492	212.781	432.699	141.197	169.920	86.345	381.714	323.382	402.632	118.005	438.026	0.0011038	0.0025302	0.00090251	576.17	2.1165e-05	2.0868e-05	905.3	216.47	1.3754e-05	2.9311e-05	401.17	205.6	88.23	47.153	8.0142e-06	119.27	0.0049373	0.0058139	0.001608	864.82	5.6657e-05	6.406e-05	1221.3	307.84	5.6719e-05	6.5241e-05	555.2	253.53	133.57	64.775	6.2197e-05	138.4	170.515	193.329	399.220	91.905	249.918	175.697	92.210	97.052	239.525	200.454	96.120	100.050	100.106	105.106	86.383	103.837	-8191	255	
3389.420	1	1	0	0	0.25284	0.31162	0.37755	0.151	0.15782	0.042169	0.34279	0.12603	0.12376	0.056363	0.29884	0.51031	0.23818	0.12343	0.097372	0.30106	-1.6562	-1.8396	-1.7396	-2.1417	-1.725	-1.8458	-2.0583	-1.8021	-2.0958	-1.5708	-1.8896	-2.0917	-1.55	-2.0667	-1.9167	-1.8771	117.642	408.938	430.476	346.462	375.574	414.493	82.653	300.395	115.789	373.146	434.914	418.124	356.650	299.468	218.455	299.491	0.0013561	0.0013148	0.0011034	577.28	1.5718e-05	1.6856e-05	906.84	216.03	2.7699e-05	1.5387e-05	403.14	206.61	89.538	47.485	3.8508e-06	120.37	0.005163	0.0060657	0.0015795	863.03	6.0354e-05	6.7047e-05	1217.1	309	6.1534e-05	6.7758e-05	557.74	256.02	139.22	66.013	6.2786e-05	139.94	148.473	208.046	333.810	92.068	240.781	175.707	92.403	96.995	162.756	382.681	96.008	99.800	100.641	104.790	157.251	104.067	-8191	255	
3389.541	1	1	0	0	0.22632	0.087521	0.23411	0.10492	0.16773	0.095003	0.30551	0.048162	0.17835	0.081267	0.22652	0.23369	0.16536	0.24634	0.17431	0.08566	-1.4292	-1.4937	-1.825	-2.0292	-1.6771	-1.9667	-2.0312	-1.5	-1.9083	-1.7125	-1.9625	-2.2708	-1.8083	-2.0083	-2.0292	-1.9229	228.904	425.517	166.579	108.639	238.260	187.341	401.747	214.240	385.125	388.154	432.004	138.143	83.536	390.956	404.701	393.817	0.0016055	0.0010799	0.00020016	580.16	2.3289e-05	2.1713e-05	908.16	220.8	2.3479e-05	9.0624e-06	406.39	207.82	89.484	47.094	2.2741e-05	120.55	0.0056907	0.0062237	0.0016047	872.35	6.5987e-05	6.7912e-05	1221.5	312.21	6.5987e-05	6.6804e-05	558.33	256.81	142.32	65.155	6.0709e-05	139.77	148.043	285.493	296.014	92.086	184.059	151.301	92.551	96.881	229.167	402.036	96.216	100.218	100.043	105.100	389.738	103.879	-8191	255	
3389.635	1	1	0	0	0.27153	0.1048	0.21758	0.2296	0.14159	0.112	0.089737	0.088517	0.26291	0.20272	0.026333	0.41368	0.21151	0.2771	0.25002	0.39211	-1.325	-1.8104	-1.6417	-2.0167	-1.7354	-1.7792	-1.9292	-1.7083	-2.0187	-1.9896	-1.8583	-2.1792	-1.7812	-1.8708	-2.0687	-1.8146	386.973	158.717	206.596	387.443	161.864	259.239	394.412	104.476	284.683	219.558	311.415	364.124	100.206	358.454	133.643	374.543	0.0014475	0.0021092	0.00048836	576.41	1.2907e-05	6.0513e-06	901.78	218.64	1.253e-05	9.3592e-06	401.69	206.46	89.037	47.158	2.2873e-05	119.39	0.00583	0.0058988	0.0015363	868.47	6.6786e-05	6.388e-05	1201.9	310.72	6.6588e-05	6.2906e-05	546.77	255.48	141.98	63.757	5.7787e-05	139.32	137.703	304.815	135.200	91.557	276.623	382.997	91.858	97.094	319.949	122.369	96.213	100.247	100.210	104.726	385.176	104.166	-8191	255	
3389.731	1	1	0	0	0.18724	0.24555	0.09836	0.14368	0.23025	0.09938	0.11208	0.096038	0.22348	0.12267	0.15881	0.27461	0.14852	0.075221	0.13899	0.31157	-1.3813	-1.9583	-1.5833	-2.1167	-1.6333	-1.7458	-1.9458	-1.8	-2.1542	-1.8375	-1.7812	-2.1604	-1.7292	-1.8687	-1.8813	-2.025	183.507	223.456	346.217	173.511	289.665	406.501	135.023	378.186	238.525	378.878	429.333	377.922	102.040	106.632	237.155	315.750	0.0011936	0.00085362	0.00037324	580.45	9.6953e-06	2.0797e-05	901.23	220.29	4.502e-06	8.0178e-06	403.28	207.6	88.609	47.285	1.52e-05	120.12	0.0058099	0.0055296	0.0014714	876.86	6.5665e-05	6.0525e-05	1184.6	315.48	6.5106e-05	5.9755e-05	542.11	258.55	139.97	63.035	5.6133e-05	140.78	160.732	325.029	389.347	92.212	160.571	340.589	92.455	97.137	139.014	280.545	96.414	100.083	100.783	104.925	334.827	103.844	-8191	255	
3389.827	1	1	0	0	0.2674	0.19125	0.17578	0.20691	0.047213	0.24307	0.078163	0.18973	0.21336	0.035768	0.23274	0.084382	0.16149	0.23042	0.12607	0.24984	-1.3542	-1.8062	-1.4813	-2.0021	-1.7896	-1.5875	-2.0563	-1.6292	-1.8354	-2.0458	-1.7792	-2.1167	-2.0208	-1.7417	-2.0354	-1.8563	147.544	346.843	205.877	331.599	319.043	232.794	80.679	235.703	302.745	395.587	87.094	106.510	203.587	103.850	280.450	349.597	0.00082028	0.0020352	0.00040218	587.86	7.4859e-06	4.8218e-06	903.67	221.64	2.5792e-05	3.8503e-05	404.51	207.89	88.754	47.388	3.7153e-05	120.36	0.0056337	0.0053638	0.0014436	896.43	6.2995e-05	5.8778e-05	1183.9	320.12	6.224e-05	5.7873e-05	543.57	261.44	137.63	62.687	5.6987e-05	142.09	153.396	263.072	146.152	92.362	416.703	378.326	92.526	97.281	375.953	301.686	96.647	100.238	100.833	104.878	207.091	104.253	-8191	255	
3389.923	1	1	0	0	0.097141	0.10678	0.097975	0.14373	0.3043	0.24459	0.023852	0.059814	0.2961	0.16615	0.21156	0.075239	0.19296	0.30183	0.030436	0.19877	-1.4562	-1.9958	-1.4521	-1.9042	-1.8771	-1.6938	-2.1937	-1.7854	-1.825	-2.1146	-1.9146	-1.9229	-1.9583	-1.6833	-2.0146	-1.7896	111.361	80.187	419.561	126.321	180.894	193.091	175.695	190.406	337.190	189.053	361.926	318.130	292.150	402.362	123.722	321.980	0.00090875	0.0015299	0.0015309	584.66	7.6293e-06	1.1682e-05	912.07	221.19	7.8241e-06	2.0535e-05	408.2	208.63	89.253	47.395	2.8622e-05	120.05	0.0054094	0.005222	0.0014869	906.47	6.0391e-05	5.746e-05	1202.1	323.71	6.0312e-05	5.6437e-05	552.93	262.88	136.14	62.519	6.0183e-05	142.03	158.662	186.666	150.917	91.890	393.585	282.661	92.510	97.165	278.518	298.442	96.842	100.389	100.709	105.297	196.312	104.369	-8191	255	
3390.020	1	1	0	0	0.17094	0.1027	0.09772	0.0991	0.20033	0.17457	0.27447	0.094299	0.15586	0.082358	0.3025	0.26579	0.15206	0.072865	0.014811	0.23315	-1.0542	-1.9521	-1.5812	-1.875	-1.8771	-1.7042	-2.175	-1.9729	-1.7896	-1.9937	-1.7646	-2.0729	-1.9458	-1.8354	-1.9021	-1.8771	195.392	342.874	183.722	91.559	401.936	107.196	399.275	379.929	323.057	315.380	432.764	413.323	362.048	196.417	170.925	87.066	0.00095223	0.0015893	0.00087432	586.06	6.9021e-06	4.8344e-06	910.92	221.59	1.5097e-05	1.218e-05	410.12	207.28	89.874	47.692	1.7192e-05	119.16	0.0052449	0.0051014	0.0015629	904.62	5.8758e-05	5.6291e-05	1221.7	322.17	5.8631e-05	5.5579e-05	563.07	260.39	134.71	62.243	6.3065e-05	140.28	160.824	311.656	135.392	92.130	198.839	238.552	92.750	96.735	302.119	208.430	96.255	100.338	100.487	104.701	236.141	104.166	-8191	255	
3390.140	1	1	0	0	0.12663	0.21101	0.26627	0.17365	0.073299	0.15028	0.10817	0.11767	0.1492	0.16427	0.3273	0.10665	0.26811	0.1537	0.17551	0.40754	-1.2958	-1.95	-1.7938	-1.8104	-1.8667	-1.7979	-2.0458	-1.8521	-1.8146	-1.9833	-1.7708	-1.9896	-2.0563	-1.8479	-2.1604	-2.0812	308.480	196.236	368.546	378.626	107.883	337.601	368.479	394.909	250.764	249.847	206.727	387.702	93.802	414.049	221.154	407.968	0.0010706	0.0020217	0.00060912	582.06	9.156e-06	8.0534e-06	913.24	220.4	2.5001e-06	2.9041e-05	406.27	207.02	90.192	47.644	1.7471e-05	119.82	0.0051085	0.005106	0.0016245	890.12	5.6918e-05	5.7232e-05	1237	317.33	5.715e-05	5.6941e-05	567.86	257.9	133.73	62.881	6.4531e-05	139.06	156.160	211.317	123.286	91.491	134.538	180.881	92.382	96.715	398.798	217.758	96.343	100.270	100.513	105.267	190.432	104.338	-8191	255	
3390.236	1	1	0	0	0.10931	0.18575	0.17452	0.10417	0.20292	0.28037	0.16669	0.027111	0.073329	0.21152	0.18246	0.23642	0.16625	0.22509	0.26703	0.22699	-1.1667	-2.0271	-1.725	-2.0312	-1.875	-1.6625	-2.0563	-1.7646	-1.6833	-2.0521	-1.675	-1.9979	-2.0187	-1.6104	-1.9729	-1.9958	222.040	87.767	127.111	329.030	275.555	142.803	404.216	285.682	384.419	153.578	81.232	362.415	436.037	385.709	220.463	79.451	0.0011344	0.00092731	0.00065086	584.7	1.5527e-05	3.4867e-05	917.22	220.52	1.1427e-05	3.0646e-05	409.18	207.79	90.475	47.545	2.1337e-05	119.86	0.0049869	0.0053164	0.0016532	878.23	5.5725e-05	5.9888e-05	1240.5	314.23	5.6073e-05	6.0164e-05	569.62	256.87	133.4	64.171	6.4238e-05	139.06	141.741	131.093	152.226	92.479	433.722	139.384	92.561	96.700	191.096	206.847	96.343	100.424	100.826	104.962	345.776	104.458	-8191	255	
3390.332	1	1	0	0	0.074382	0.06835	0.12515	0.17611	0.028209	0.057527	0.18856	0.18503	0.10123	0.16264	0.36793	0.38659	0.19271	0.23443	0.12646	0.12037	-1.0833	-1.9292	-1.675	-1.8375	-1.9521	-1.8813	-2.2042	-2.0083	-1.6	-1.9417	-1.8417	-1.5729	-2.0729	-1.8854	-1.7437	-2.1604	112.990	395.479	329.965	390.346	110.005	187.042	341.459	130.907	366.586	204.752	410.650	368.666	394.043	418.970	264.510	371.313	0.00095141	0.0018911	0.00075778	583.08	6.2109e-06	2.746e-05	920.04	223.78	2.7333e-05	1.58e-05	406.17	207.44	90.629	47.345	2.1977e-05	119.74	0.0049847	0.0056837	0.0016315	875.79	5.5692e-05	6.3769e-05	1234.9	312.92	5.686e-05	6.3806e-05	562.15	255.49	133.86	64.859	6.213e-05	137.98	161.608	168.008	319.136	92.436	217.437	212.505	92.525	97.345	207.692	213.410	96.226	100.510	100.484	104.994	345.612	104.412	-8191	255	
3390.427	1	1	0	0	0.30181	0.09605	0.25638	0.33178	0.35342	0.13625	0.060819	0.028491	0.35071	0.058599	0.10306	0.36502	0.091359	0.28438	0.11392	0.40455	-1.1521	-1.9729	-1.7313	-1.8146	-2.0271	-1.9062	-2.0167	-2.0646	-1.5896	-2.075	-1.8292	-1.8042	-2.0792	-1.9062	-1.8292	-2.2083	84.904	354.669	321.463	86.619	290.496	435.719	107.843	355.362	320.777	275.525	99.762	372.564	377.429	413.794	335.414	380.282	0.0013088	0.001775	0.00084333	583.52	1.9004e-05	1.314e-05	907.93	220.98	2.6068e-05	1.4501e-05	400.75	206.15	90.579	47.261	9.4405e-06	118.4	0.0050607	0.0059098	0.0015622	863.88	5.7269e-05	6.5344e-05	1213	308.1	5.8409e-05	6.4779e-05	550.08	252.51	135.37	64.677	5.9457e-05	136.03	143.895	162.855	411.386	92.134	199.783	119.647	92.603	97.137	184.486	106.772	96.342	100.575	100.437	105.170	301.710	104.095	-8191	255	
3390.547	1	1	0	0	0.17978	0.12398	0.21819	0.043522	0.086506	0.20464	0.19773	0.17169	0.20965	0.06615	0.16735	0.18986	0.14239	0.30774	0.15944	0.093515	-1.2938	-1.9792	-1.7563	-1.7917	-2.1292	-1.6292	-1.9146	-1.9688	-1.4188	-2.1208	-2.0458	-1.9354	-1.9354	-1.7	-1.6833	-2.2417	105.961	168.333	401.621	184.091	305.902	340.796	397.094	372.898	351.032	200.745	408.150	88.913	425.882	402.586	121.762	426.589	0.0014586	0.0013377	0.00020272	581.95	2.6892e-05	1.1786e-05	907.18	218.45	1.8184e-06	2.4045e-05	402.34	205.78	89.709	46.588	1.5323e-05	118.28	0.0052856	0.0058629	0.0015021	855.28	6.038e-05	6.4405e-05	1199.5	304.96	6.162e-05	6.3592e-05	544.84	251.14	137.78	63.813	5.861e-05	136.01	158.432	268.293	137.325	92.022	220.166	215.257	92.561	97.093	438.198	242.995	96.197	100.331	100.411	105.441	415.019	104.427	-8191	255	
3390.619	1	1	0	0	0.14492	0.12031	0.21791	0.087747	0.21104	0.32259	0.36146	0.18207	0.36924	0.07577	0.40216	0.080358	0.17557	0.32918	0.13705	0.1254	-1.3813	-1.7458	-1.9521	-1.6625	-1.9042	-1.9146	-1.8813	-2.1354	-1.7188	-1.9979	-2.0479	-1.8479	-1.875	-2.1	-1.6	-2.1479	157.282	309.881	430.737	149.907	204.789	407.652	356.479	407.373	378.294	178.602	89.148	424.041	356.197	434.557	215.539	153.184	0.001551	0.0024383	0.00031952	577.59	2.9509e-05	6.0328e-06	902.55	218.75	1.0941e-05	2.0477e-05	400.59	205	89.132	46.381	6.6836e-06	118.11	0.0055957	0.0057307	0.0014734	857.67	6.3742e-05	6.2258e-05	1191.1	305.61	6.4459e-05	6.1573e-05	540.13	252.79	139.57	62.871	5.7385e-05	137.06	143.884	351.655	259.472	92.075	199.513	257.771	92.630	97.216	204.187	379.553	95.976	100.052	101.112	105.387	118.743	103.929	-8191	255	
3390.715	1	1	0	0	0.3003	0.19146	0.19586	0.033972	0.083577	0.085815	0.25722	0.1865	0.05801	0.15196	0.24786	0.26784	0.087177	0.40352	0.10945	0.39018	-1.4146	-1.7	-1.9125	-1.4583	-1.9271	-1.7917	-1.7875	-2.1458	-1.7437	-1.8083	-2.2146	-1.6833	-2.0708	-1.9021	-1.5875	-2.2	251.997	218.958	295.272	200.902	384.598	215.302	316.778	351.325	267.692	153.695	341.808	392.559	434.698	93.314	111.092	417.354	0.0014278	0.00063986	0.00033313	579.76	9.6905e-06	6.8763e-06	903.56	220.31	6.1317e-06	7.3104e-06	399.84	206.44	87.854	46.545	1.4318e-05	118.27	0.0057079	0.0055033	0.0014312	865.91	6.4589e-05	5.999e-05	1184.2	310.59	6.4742e-05	5.9693e-05	536.54	255.86	139.15	62.277	5.6341e-05	138.31	155.685	221.158	95.475	92.020	137.230	175.494	92.080	96.937	225.156	181.273	96.652	100.568	100.587	105.072	248.434	104.553	-8191	255	
3390.811	1	1	0	0	0.36895	0.26327	0.11369	0.47515	0.086412	0.13487	0.019729	0.10898	0.2571	0.19489	0.14423	0.098748	0.25132	0.17185	0.23819	0.15358	-1.0938	-1.6625	-2.1396	-1.8583	-1.8354	-1.8042	-1.7479	-1.9833	-1.8417	-1.7396	-2.2	-2.0229	-1.9104	-2.1333	-1.5771	-2.2042	171.194	298.610	437.137	423.064	260.484	321.186	82.632	245.291	332.396	237.893	342.604	374.796	435.529	131.271	94.668	335.398	0.00094516	0.0015517	0.00030961	578.32	1.7671e-05	1.7489e-05	896.89	216.73	1.589e-05	4.2171e-06	399.91	203.93	86.952	46.22	1.9804e-05	117.28	0.0056168	0.005364	0.0014117	880.76	6.2775e-05	5.796e-05	1174.2	313.34	6.2252e-05	5.7902e-05	532	257.28	136.79	61.527	5.7021e-05	138.7	164.706	328.798	283.025	91.964	407.357	95.330	92.571	97.645	328.331	387.518	96.213	100.401	100.774	105.400	188.245	104.014	-8191	255	
3390.932	1	1	0	0	0.17015	0.13742	0.12193	0.20368	0.0927	0.10828	0.16806	0.11897	0.28242	0.4614	0.23903	0.13091	0.18203	0.10982	0.026757	0.2945	-1.3792	-1.7812	-2.1229	-1.6292	-1.8083	-2.0146	-1.7604	-2.0354	-1.7083	-1.6958	-2.3542	-1.7104	-1.825	-2.2354	-1.6167	-2.0396	205.325	285.583	134.696	434.450	281.800	188.714	392.118	436.704	200.695	306.937	401.479	113.647	433.470	351.455	140.778	411.834	0.0010962	0.00090551	0.00039943	569.18	9.5985e-06	6.1726e-06	901.45	215.56	1.6134e-05	5.2093e-06	399.23	203.64	87.077	46.16	3.7608e-05	117.48	0.0054129	0.0052789	0.0014476	891.07	6.0988e-05	5.6884e-05	1182.1	316.42	6.0149e-05	5.7181e-05	539.52	258.23	134.53	61.012	5.9628e-05	139.25	176.035	270.648	141.359	91.422	262.422	277.283	92.221	96.818	376.723	373.126	96.424	99.881	100.314	104.841	202.657	104.030	-8191	255	
3391.028	1	1	0	0	0.21552	0.1224	0.26845	0.24778	0.081079	0.087464	0.26395	0.25239	0.094477	0.26012	0.26816	0.18588	0.015404	0.057149	0.098719	0.31035	-1.5646	-1.575	-1.9896	-1.6708	-1.7458	-1.9771	-1.725	-1.8583	-1.7708	-1.7479	-2.0646	-1.8104	-1.7542	-2.1875	-1.7292	-2.1333	384.473	417.340	176.398	157.306	93.165	237.562	92.782	379.707	95.151	341.257	390.685	340.980	279.264	209.611	278.565	366.420	0.0009875	0.00045378	0.0014788	569.28	1.4355e-05	1.6077e-05	899.98	215.58	1.6024e-05	7.7014e-06	400.77	202.95	87.495	46.269	4.5454e-05	117.52	0.0052441	0.0051869	0.0015287	891.9	5.9431e-05	5.6206e-05	1205.8	316.72	5.8827e-05	5.6674e-05	551.2	257.27	133.75	61.027	6.3197e-05	138.74	176.797	250.828	130.744	91.729	305.017	367.843	92.411	97.356	86.095	132.208	96.295	99.907	100.684	105.351	181.333	104.145	-8191	255	
3391.124	1	1	0	0	0.12606	0.099035	0.09934	0.11299	0.119	0.23331	0.076908	0.22419	0.053977	0.15173	0.31498	0.18549	0.12413	0.16155	0.067946	0.20437	-1.5187	-1.5917	-2.1917	-1.8104	-1.7354	-1.9604	-1.7625	-1.95	-1.9333	-1.6021	-2.1188	-2.0979	-1.6667	-1.9896	-1.8396	-1.9917	355.232	369.006	370.269	438.145	303.152	312.031	346.568	354.898	278.268	141.938	306.116	358.387	395.384	352.866	327.443	371.981	0.00078319	0.0005774	0.0009975	568.08	1.7526e-05	2.5447e-05	894.67	214.45	6.9175e-06	1.8137e-05	396.1	203.42	86.457	46.021	9.5537e-06	116.75	0.005181	0.0052353	0.0016341	887.42	5.9506e-05	5.7926e-05	1231.8	315.82	5.9726e-05	5.9692e-05	564.34	257.4	134.79	62.335	6.8522e-05	138.7	161.699	407.009	155.293	92.240	364.161	205.574	92.546	97.398	387.048	202.507	96.588	99.964	100.290	105.244	218.258	104.263	-8191	255	
3391.221	1	1	0	0	0.094996	0.17581	0.12851	0.50456	0.21896	0.10615	0.17121	0.10727	0.014148	0.1481	0.16802	0.42617	0.20465	0.19045	0.058248	0.29085	-1.4229	-1.5812	-1.8021	-1.9562	-1.725	-2.1917	-2.0604	-1.9125	-1.9542	-1.8604	-2.0042	-1.9396	-1.6313	-1.9542	-1.7104	-1.9583	435.711	354.964	142.451	387.984	147.049	322.059	363.855	221.464	425.481	127.342	429.890	388.358	278.391	439.133	187.293	362.247	0.00092817	0.0013451	0.00035788	567.88	7.6093e-06	3.052e-05	890.17	212.96	1.5518e-05	2.224e-05	397.89	202.35	87.251	46.367	1.2438e-05	116.61	0.0053341	0.005699	0.0017611	888.47	6.0787e-05	6.2872e-05	1245.4	314.86	6.0053e-05	6.421e-05	569.15	255.84	134.73	63.496	6.8641e-05	137.73	149.533	199.393	401.873	92.227	319.100	234.550	92.559	97.581	274.695	163.711	96.672	100.359	100.909	105.672	379.292	104.520	-8191	255	
3391.317	1	1	0	0	0.20088	0.29228	0.37483	0.079335	0.15301	0.055685	0.24443	0.20656	0.057478	0.17508	0.18749	0.31317	0.053044	0.20537	0.17775	0.19787	-1.5938	-1.6313	-1.9958	-2.0167	-1.775	-2.0625	-2.1229	-1.8979	-1.9292	-1.7458	-1.9104	-2.1354	-1.7625	-2.0542	-1.7896	-1.8792	85.591	362.138	406.261	294.822	139.141	189.728	128.754	362.350	259.152	398.771	384.646	84.222	339.929	418.574	136.892	393.778	0.0012335	0.0013241	0.00078092	570.8	8.2402e-06	1.8462e-05	895.41	214.92	1.7465e-05	2.2698e-05	395.36	202.4	87.519	46.081	1.0845e-05	116.7	0.0052504	0.005961	0.0017187	873.29	5.9103e-05	6.501e-05	1232.1	309.92	5.7629e-05	6.5157e-05	557.29	251.6	132.19	63.567	6.3296e-05	135.62	162.465	112.631	317.300	92.557	114.472	179.268	92.665	97.578	222.931	184.395	97.035	100.731	101.043	105.529	407.570	104.799	-8191	255	
3391.413	1	1	0	0	0.24297	0.13269	0.14832	0.26044	0.17644	0.058865	0.13963	0.2889	0.11773	0.21958	0.24501	0.11569	0.24177	0.16152	0.25924	0.24896	-1.6625	-1.475	-1.6604	-1.9354	-1.6208	-1.925	-1.9438	-1.9917	-2.1312	-1.7396	-1.9271	-2.2292	-1.4979	-2.0396	-1.7917	-2.0417	329.543	133.140	286.429	378.619	380.862	355.337	350.129	254.252	178.502	267.936	408.388	84.681	334.169	388.119	375.434	383.750	0.00091648	0.0012158	0.00049525	569.6	1.3249e-05	1.9891e-05	899.16	214.14	1.6475e-05	1.4761e-05	395.75	202.17	87.545	46.182	1.4887e-05	116.72	0.0050339	0.005955	0.0015972	853.99	5.8029e-05	6.5473e-05	1209.1	305.51	5.8499e-05	6.6098e-05	548.29	250.26	134.31	64.144	6.165e-05	135.87	161.834	184.317	296.175	92.443	206.375	161.385	92.587	97.152	288.782	157.148	96.336	100.481	101.221	105.345	323.072	104.766	-8191	255	
3391.509	1	1	0	0	0.31419	0.13601	0.068217	0.19693	0.24528	0.076479	0.29926	0.18105	0.26089	0.085707	0.18012	0.23188	0.17778	0.28345	0.31887	0.28867	-1.8062	-1.7375	-1.7625	-2.1354	-1.5938	-2.0917	-2.0354	-1.8104	-2.2104	-1.7687	-1.8229	-2.1562	-1.5771	-1.9771	-1.8521	-2	372.445	124.140	411.342	354.021	253.048	139.526	380.503	391.478	326.211	334.629	81.001	406.191	260.900	412.688	128.124	320.294	0.0015125	0.0024197	0.00087075	566.04	9.8564e-06	5.0491e-06	893.49	215.64	2.6446e-05	2.0764e-05	397.06	202.33	88.405	46.174	8.3218e-06	116.28	0.0053415	0.0061212	0.0015799	857.26	6.2581e-05	6.7511e-05	1205.9	307.2	6.3573e-05	6.7319e-05	549.03	250.49	138.6	64.319	6.1556e-05	135.58	150.798	405.140	350.209	92.423	238.283	160.511	92.842	97.683	213.473	334.636	97.072	101.041	101.179	105.076	136.409	103.844	-8191	255	
3391.628	1	1	0	0	0.18309	0.20672	0.18833	0.13127	0.15136	0.18519	0.22639	0.48421	0.17804	0.026065	0.13032	0.1798	0.19316	0.093663	0.1152	0.33968	-1.4208	-1.725	-1.8312	-2.0854	-1.7292	-2.0687	-2.1125	-1.4896	-2.1167	-1.8167	-1.6875	-2.1896	-2.0333	-1.9625	-1.9479	-1.8542	347.031	337.928	231.023	374.904	272.311	170.091	323.816	403.654	263.917	272.297	108.970	401.510	327.116	201.864	258.483	409.877	0.0012397	0.0014425	0.00060966	567.95	2.3198e-05	7.1754e-06	893.89	214.83	3.4085e-05	1.0912e-05	395.07	201.43	86.641	45.662	1.2789e-05	115.73	0.0057431	0.0060255	0.0015651	857.86	6.6092e-05	6.5845e-05	1196.5	306.45	6.6286e-05	6.4732e-05	543.46	250.18	140.07	63.012	5.9446e-05	135.39	136.764	326.269	340.299	92.430	246.253	412.398	92.230	96.620	160.148	383.139	95.820	99.877	100.099	105.104	380.679	103.946	-8191	255	
3391.724	1	1	0	0	0.064411	0.19837	0.097841	0.25464	0.064748	0.096989	0.23574	0.27342	0.28617	0.17125	0.13659	0.13484	0.24071	0.089131	0.050138	0.30993	-1.4104	-1.9125	-1.6354	-1.9896	-1.7313	-1.7938	-2	-1.5646	-1.7479	-1.8312	-1.7563	-2.0042	-1.8167	-1.8937	-2.2729	-1.7958	422.067	111.062	119.396	429.941	103.307	199.406	389.542	370.676	379.434	141.624	357.514	364.869	396.811	333.785	296.033	389.002	0.0012935	0.0026302	0.00035914	568.09	8.688e-06	2.0355e-05	890.69	214.24	1.057e-05	1.0838e-05	393.64	202.61	86.253	45.752	3.2843e-06	116.06	0.0058756	0.0057862	0.001519	861.78	6.6954e-05	6.2886e-05	1184.3	308.86	6.6678e-05	6.1698e-05	538.93	252.78	139.83	62.386	5.8055e-05	137.29	158.030	332.255	311.953	92.154	212.775	410.488	92.132	96.969	152.819	407.542	95.977	99.652	100.541	104.857	225.043	103.875	-8191	255	
3391.820	1	1	0	0	0.083367	0.30781	0.18349	0.24355	0.18968	0.30674	0.12689	0.25157	0.085722	0.13281	0.29397	0.19618	0.077717	0.094943	0.31537	0.59607	-1.3646	-1.7625	-1.4896	-1.975	-1.7646	-1.95	-2.1	-1.8229	-1.8354	-1.9417	-1.6562	-2.1333	-1.7292	-1.7521	-1.8917	-1.7917	337.467	115.898	224.847	376.009	165.706	306.535	436.343	110.182	334.657	87.584	394.403	322.676	160.522	290.573	121.230	367.945	0.00096124	0.0016629	0.00044561	573.34	4.3362e-06	8.3554e-06	899.37	215.34	2.2312e-05	2.8015e-06	395.6	202.33	87.55	45.909	1.8015e-05	116.6	0.0058698	0.0056292	0.0015081	887.95	6.6832e-05	6.2565e-05	1191.5	319.71	6.774e-05	6.2471e-05	546.46	259.56	140.95	63.011	6.0776e-05	140.24	140.308	385.985	275.936	92.164	150.306	262.337	92.371	97.232	87.616	353.532	96.101	100.048	100.294	104.476	240.453	104.231	-8191	255	
3391.916	1	1	0	0	0.030413	0.17637	0.098881	0.24219	0.14767	0.010588	0.19369	0.090935	0.011076	0.14366	0.24733	0.30229	0.21503	0.2195	0.083513	0.12012	-1.4	-1.8375	-1.6187	-2.0542	-1.7125	-1.6812	-2.2271	-1.6167	-1.7313	-2.0771	-1.7521	-1.9813	-1.9104	-1.8083	-2.0375	-1.7396	329.224	387.376	118.952	93.967	124.139	205.786	436.294	300.478	226.281	149.315	427.243	101.609	383.459	406.454	138.971	90.429	0.00078127	0.0010042	0.00081547	569.24	2.1866e-05	1.0179e-05	891.44	216.13	1.1215e-05	8.2574e-06	394.16	201.94	86.655	45.64	2.6488e-05	115.46	0.0059218	0.0057073	0.0015752	913.91	6.6599e-05	6.3416e-05	1205	325.58	6.6482e-05	6.2441e-05	552.35	262.42	139.27	62.665	6.3758e-05	139.99	150.236	201.342	94.139	92.063	390.011	88.090	92.396	97.107	389.038	354.528	96.158	100.119	100.614	105.016	185.845	104.085	-8191	255	
3392.012	1	1	0	0	0.32824	0.17421	0.18331	0.16217	0.1369	0.30415	0.26093	0.10701	0.055072	0.13937	0.079886	0.24039	0.12421	0.31906	0.092168	0.14899	-1.5604	-2.0167	-1.625	-1.9813	-1.8042	-1.7458	-2.0167	-1.7771	-1.6146	-2.1125	-1.6458	-2.075	-1.7896	-1.7208	-1.9521	-1.9937	116.794	127.045	316.356	125.793	276.992	122.227	88.620	385.336	266.853	303.725	419.314	352.438	391.343	170.358	423.582	393.381	0.00071527	0.0019844	0.00056567	563.49	5.5131e-06	1.0489e-05	893.3	211.75	8.8115e-06	3.2854e-06	392.65	199.55	85.86	45.444	2.8524e-05	114.8	0.0057809	0.0056519	0.0016519	916.33	6.455e-05	6.2314e-05	1217	323.39	6.4461e-05	6.1e-05	556.61	259.21	136.34	61.989	6.6243e-05	138.73	158.212	237.495	144.734	91.974	294.810	120.406	92.465	96.732	331.746	351.368	96.204	100.101	100.602	105.453	240.728	104.150	-8191	255	
3392.109	1	1	0	0	0.089477	0.1458	0.19606	0.20298	0.15843	0.047991	0.11968	0.22748	0.32686	0.17174	0.19472	0.3025	0.040573	0.14777	0.34555	0.25951	-1.3229	-1.8875	-1.4813	-1.9354	-1.725	-1.5583	-2.2062	-1.825	-1.7146	-1.8937	-1.6208	-1.9146	-2.0646	-1.6229	-1.9875	-2.1104	404.694	202.525	349.615	417.085	274.555	172.545	344.326	370.142	334.029	86.877	83.917	415.670	224.643	311.240	234.810	390.770	0.00081115	0.0023435	8.1625e-05	558.77	3.5869e-06	2.0922e-05	883.38	209.03	6.9784e-06	1.6842e-05	389.8	197.86	85.345	44.965	1.9899e-05	114.6	0.0055733	0.0054872	0.0017098	900.6	6.2394e-05	6.0972e-05	1226.5	315.97	6.2386e-05	6.0427e-05	559.78	254.79	133.48	61.505	6.8421e-05	137.02	174.867	178.001	211.161	92.583	386.087	271.337	92.535	97.162	225.554	261.177	96.152	100.107	100.480	105.398	276.067	104.036	-8191	255	
3392.229	1	1	0	0	0.012045	0.1464	0.037256	0.0969	0.27225	0.18887	0.20619	0.15715	0.11303	0.32396	0.30427	0.34622	0.21545	0.13409	0.25141	0.026305	-1.1708	-1.9	-1.6771	-1.8958	-1.9688	-1.4479	-1.9083	-1.8354	-1.7	-1.7375	-1.475	-1.8458	-1.8687	-1.7271	-1.8604	-2.0521	135.065	242.937	321.075	401.306	286.155	363.426	273.038	153.368	312.766	418.729	387.407	437.649	122.104	199.747	323.644	382.718	0.00078375	0.0026741	0.00064849	552.68	8.9913e-06	2.6411e-05	881.66	207.77	1.2567e-05	4.4227e-05	387.37	199.46	85.162	45.402	1.5209e-05	114.72	0.0054137	0.0055594	0.0017533	879.37	6.0543e-05	6.2684e-05	1235.1	310.6	6.0999e-05	6.2787e-05	564.43	253.8	132.76	62.68	6.9387e-05	136.55	178.817	186.157	122.330	92.416	387.421	195.478	92.358	97.326	371.755	185.555	96.193	100.541	100.415	105.136	370.430	104.378	-8191	255	
3392.325	1	1	0	0	0.1035	0.057617	0.27287	0.13255	0.25047	0.15676	0.31636	0.16283	0.26135	0.30393	0.33052	0.22641	0.22761	0.069744	0.18274	0.31749	-1.3271	-1.9833	-1.6396	-1.8292	-1.9417	-1.6542	-2.0333	-2.0583	-1.4583	-1.9125	-1.8042	-1.6792	-1.9667	-1.9292	-1.9937	-2.1083	280.769	419.438	357.261	193.763	158.459	209.982	359.673	432.185	106.485	185.392	385.691	387.452	406.379	208.649	403.300	380.151	0.001043	0.0029425	0.00019849	553.76	9.2948e-06	5.498e-05	881.12	210.2	3.5209e-06	3.8698e-05	388.61	199.39	85.41	45.442	3.9159e-06	114.1	0.0054457	0.0060109	0.0017979	884.15	6.2017e-05	6.8665e-05	1249.5	313.6	6.3528e-05	6.9276e-05	569.24	255.73	135.41	64.928	7.1432e-05	136.66	169.634	189.203	215.988	92.287	373.855	223.488	92.184	97.140	79.678	190.287	96.602	100.206	100.500	105.051	153.938	104.104	-8191	255	
3392.420	1	1	0	0	0.15676	0.24763	0.048429	0.27992	0.093722	0.05482	0.30713	0.16844	0.13079	0.0582	0.15428	0.19471	0.43437	0.21287	0.13748	0.31385	-1.1021	-1.8312	-1.8208	-1.7563	-1.9729	-1.6646	-1.8083	-2.0229	-1.7313	-2.0917	-1.8479	-1.7437	-1.9354	-1.8563	-1.7458	-2.0854	349.165	320.850	206.555	266.439	306.455	234.295	369.073	400.551	410.380	248.324	342.752	269.107	436.809	435.830	85.760	436.004	0.0011471	0.0019678	0.00094035	554.16	2.0793e-05	1.6284e-05	882.45	208.99	2.8041e-05	2.1744e-05	389.05	198.85	86.769	45.542	1.6845e-05	114.86	0.0057145	0.0065792	0.0018275	897.88	6.5633e-05	7.4378e-05	1254.8	317.49	6.7274e-05	7.4738e-05	571.93	257.23	139.5	66.381	7.1262e-05	137.33	165.734	206.665	316.864	92.610	274.800	182.602	92.543	97.201	226.027	177.803	96.299	100.261	101.135	104.863	85.152	104.167	-8191	255	
3392.493	1	1	0	0	0.20121	0.07812	0.31306	0.10084	0.34349	0.17971	0.13082	0.39105	0.15961	0.17302	0.3251	0.25321	0.093991	0.24503	0.23041	0.31292	-1.0187	-1.9396	-1.7313	-1.4875	-2.0854	-1.5938	-1.8729	-2.0687	-1.7771	-1.9396	-2.1063	-1.6333	-2.1917	-1.8104	-1.8042	-2.1458	134.491	348.994	141.218	132.956	241.023	117.539	91.557	326.850	88.508	97.675	415.812	394.109	385.754	162.328	308.375	343.321	0.0015649	0.0011819	0.00044059	561.07	2.2736e-05	2.1536e-06	889.33	211.76	2.3811e-05	1.1124e-05	395.9	200.72	87.46	45.898	2.1814e-05	115.33	0.0060367	0.0068366	0.0017735	895.51	6.7418e-05	7.3996e-05	1236.9	313.46	6.7524e-05	7.1925e-05	559.14	253.33	139.71	65.132	6.4811e-05	135.7	159.226	295.405	367.355	92.282	196.326	248.178	92.506	97.135	221.577	197.200	96.127	100.278	100.424	105.454	365.839	103.980	-8191	255	
3392.612	1	1	0	0	0.17668	0.23448	0.093974	0.29724	0.34061	0.19603	0.058533	0.14997	0.31355	0.095384	0.25288	0.43658	0.16786	0.22421	0.17638	0.058326	-1.2083	-1.9583	-1.7812	-1.7771	-2.0229	-1.7417	-1.6833	-2.1875	-1.6125	-1.8271	-1.95	-1.875	-2.1167	-1.9146	-1.7917	-2.2479	284.121	253.050	197.419	398.294	234.362	377.360	431.430	372.964	120.028	182.240	391.301	414.860	395.827	427.312	272.187	355.818	0.0017307	0.00084403	0.00048039	568.84	2.2688e-05	1.4623e-05	892.93	216.18	2.2675e-05	3.2517e-05	395.09	202.24	88.453	45.893	9.9952e-06	115.98	0.0058871	0.0062928	0.0016046	867.66	6.6047e-05	6.753e-05	1210.8	308.53	6.6721e-05	6.6732e-05	548.98	252.55	141.34	64.22	6.2631e-05	135.88	152.646	243.204	82.652	92.380	168.041	427.406	92.529	97.324	212.653	380.120	96.126	100.389	100.892	105.458	122.790	104.176	-8191	255	
3392.708	1	1	0	0	0.30097	0.14795	0.074537	0.03699	0.10825	0.40739	0.10496	0.18323	0.10659	0.081324	0.36537	0.10318	0.13482	0.1732	0.27256	0.10317	-1.0271	-1.7042	-1.9042	-1.6667	-1.8708	-1.7229	-1.6	-2.0708	-1.6042	-1.6875	-1.9479	-1.6437	-1.8563	-1.8	-1.6646	-2.1583	398.642	205.872	178.819	167.182	271.553	91.166	95.634	397.248	359.504	103.483	364.295	436.791	395.513	401.439	217.171	80.125	0.0013151	0.00023813	0.00054196	572.01	1.2465e-05	1.0824e-05	897.27	217.26	1.0761e-05	5.6797e-06	395.4	202.76	87.552	45.893	9.0322e-06	115.46	0.0060653	0.0060407	0.0015602	878.16	6.8578e-05	6.5248e-05	1206.1	312.49	6.8545e-05	6.3928e-05	543.1	253.41	141.24	62.808	5.9293e-05	135.3	162.545	319.798	212.410	92.907	265.539	369.089	92.409	97.414	182.629	153.398	96.592	100.296	100.675	105.314	243.555	104.314	-8191	255	
3392.804	1	1	0	0	0.13901	0.049196	0.13864	0.36855	0.23166	0.021199	0.24618	0.068365	0.29897	0.098778	0.23163	0.325	0.26272	0.094563	0.070792	0.5291	-1.1792	-1.7583	-2.0917	-1.5271	-1.7062	-1.8312	-1.5854	-1.9062	-1.6812	-1.7292	-2.0833	-1.8375	-1.9813	-1.7917	-1.5938	-2.1854	120.032	266.563	306.146	370.803	210.685	412.825	209.002	420.449	329.008	116.783	405.586	413.241	113.921	227.524	229.000	362.736	0.0010065	0.0016485	0.0004824	577.69	2.5802e-06	7.0091e-06	901.55	220.51	1.9568e-05	1.9776e-05	401.03	204.33	88.434	46.432	1.5394e-05	115.81	0.0058401	0.0055859	0.0014589	880.7	6.5426e-05	6.0327e-05	1183.8	314.96	6.417e-05	5.9031e-05	534.09	254.35	138.29	61.693	5.5467e-05	136.28	158.342	283.862	320.587	92.329	302.803	242.864	92.414	97.238	300.796	103.889	96.235	100.259	100.780	105.764	226.120	104.646	-8191	255	
3392.901	1	1	0	0	0.31737	0.34488	0.070708	0.11135	0.26264	0.026061	0.11423	0.33762	0.26046	0.16791	0.33096	0.1177	0.088028	0.28901	0.21072	0.18546	-1.2646	-1.6771	-1.7396	-1.6792	-1.9667	-1.9208	-1.8208	-2.0396	-1.7938	-1.7458	-2.2687	-1.9271	-1.9146	-1.9354	-1.5146	-2.2479	274.761	350.637	214.656	417.056	139.874	93.413	411.551	377.605	119.718	291.984	327.444	336.955	308.815	408.594	157.185	369.211	0.0013372	0.0011475	0.00011089	582.11	1.8229e-05	2.8431e-06	912.46	221.99	1.8738e-05	2.1586e-05	403.45	204.05	88.504	46.531	2.1044e-05	116.94	0.0054297	0.0052292	0.0013864	886.27	6.0591e-05	5.5949e-05	1176.9	316.96	5.9196e-05	5.5438e-05	531.56	255	134.61	60.712	5.4829e-05	136.85	171.393	89.159	162.808	92.261	362.502	181.806	92.756	97.440	350.541	284.967	96.574	100.650	101.373	105.795	183.972	104.565	-8191	255	
3393.021	1	1	0	0	0.10904	0.10679	0.11911	0.22018	0.058359	0.20404	0.22324	0.03195	0.017464	0.17991	0.1151	0.22501	0.42312	0.27258	0.033351	0.45781	-1.3292	-1.6	-1.8937	-1.6229	-1.7104	-1.9271	-1.725	-1.9292	-1.7708	-1.725	-1.9708	-1.9146	-1.7542	-2.0208	-1.5708	-1.9479	321.512	322.005	402.273	207.911	302.597	419.037	424.588	317.526	270.649	167.737	337.930	92.341	419.595	102.641	394.523	346.645	0.00086882	0.0024365	0.0011615	584.09	1.4519e-05	1.4821e-05	913.89	221.8	7.2699e-06	5.5205e-06	408.49	204.78	89.564	46.898	3.7951e-05	117.02	0.0050309	0.0049108	0.0013821	885.34	5.6196e-05	5.2495e-05	1184.5	317.32	5.5341e-05	5.2558e-05	539.25	254.89	132.13	60.223	5.6497e-05	136.41	147.518	241.513	133.561	92.859	345.343	373.639	93.503	98.210	373.722	84.654	96.961	100.399	101.111	104.472	199.768	103.553	-8191	255	
3393.093	1	1	0	0	0.15924	0.17962	0.14351	0.36893	0.21123	0.20957	0.053286	0.2221	0.10795	0.16157	0.18041	0.23487	0.089121	0.13443	0.24988	0.24834	-1.1646	-1.65	-2.1417	-1.6542	-1.8125	-2.1417	-1.4771	-1.8146	-1.8646	-1.6375	-2.0917	-1.7125	-1.7563	-1.9854	-1.5729	-1.9708	202.518	209.420	274.432	91.052	279.789	385.896	100.401	362.743	259.986	144.787	179.688	397.100	98.918	408.458	338.733	375.036	0.00095979	0.00037132	0.00087862	580.15	6.431e-06	1.384e-05	916.44	222.51	5.7496e-06	2.109e-05	405.22	202.94	89.22	46.653	2.7727e-05	115.56	0.0047791	0.0047278	0.0014425	875.27	5.4276e-05	5.1231e-05	1198.5	313.93	5.3306e-05	5.1988e-05	544.64	251.06	130.88	60.051	5.9377e-05	134.45	165.000	99.698	128.727	91.982	258.040	196.290	92.316	96.703	404.797	231.329	95.959	100.089	100.264	104.884	184.379	103.901	-8191	255	
3393.189	1	1	0	0	0.13678	0.06258	0.050927	0.14257	0.069783	0.20562	0.14574	0.13227	0.13556	0.15203	0.073343	0.18812	0.083404	0.1822	0.1062	0.43604	-1.5438	-1.5729	-2.0187	-1.8062	-1.7646	-2.0667	-1.675	-1.8479	-2.0854	-1.4937	-2.1396	-2.0042	-1.6021	-2.0563	-1.5625	-1.8854	170.976	268.776	425.943	287.254	421.320	268.859	145.254	236.139	340.890	292.102	108.988	408.103	346.952	344.628	353.715	355.600	0.00083917	0.0012146	0.00072759	577.85	1.1263e-05	2.4713e-05	905.61	220.64	9.5508e-06	2.8985e-05	402.62	203.1	88.55	46.92	1.0237e-05	115.04	0.0046667	0.0047901	0.0015164	860.53	5.3215e-05	5.2586e-05	1209	309.59	5.2365e-05	5.403e-05	550.69	249.07	129.71	60.952	6.1193e-05	133.69	153.275	159.530	211.090	91.484	106.494	189.296	92.186	96.890	343.972	198.631	96.331	100.112	100.544	105.188	404.435	104.047	-8191	255	
3393.310	1	1	0	0	0.11926	0.12493	0.44975	0.21696	0.2749	0.17024	0.15915	0.12341	0.17862	0.1352	0.05559	0.18144	0.17457	0.20675	0.17703	0.14107	-1.3438	-1.5292	-1.9208	-1.7896	-1.7208	-1.8438	-1.9813	-1.9208	-1.9917	-1.6375	-2.0333	-1.8667	-1.5417	-2.1625	-1.7333	-1.9188	307.376	300.338	122.454	277.907	184.776	248.186	94.495	309.610	434.643	231.814	407.524	87.609	88.201	335.798	158.433	411.364	0.001048	0.0016392	0.0005234	575.98	2.1078e-05	2.4032e-05	907.96	218.46	1.0997e-05	3.0257e-05	398.85	201.51	88.046	46.959	1.3287e-05	115.59	0.0046166	0.0051023	0.0015597	849.78	5.2821e-05	5.6542e-05	1209.2	305.82	5.2393e-05	5.8443e-05	550.17	247.6	129.92	62.458	6.1543e-05	134.03	155.662	171.285	139.767	92.657	301.201	192.689	92.470	96.619	165.308	171.036	96.293	100.117	100.849	105.514	394.989	104.101	-8191	255	
3393.406	1	1	0	0	0.10082	0.23975	0.31841	0.19529	0.12601	0.21522	0.068818	0.05458	0.10704	0.1488	0.23861	0.064664	0.16019	0.25905	0.082755	0.081214	-1.375	-1.4937	-1.7958	-1.9562	-1.5854	-2.075	-1.925	-1.7979	-1.7208	-1.6146	-1.7333	-2.05	-1.6542	-1.8854	-1.7417	-1.7208	219.268	389.668	160.894	103.866	269.677	427.652	378.256	348.851	308.127	305.747	352.526	191.913	285.217	399.691	142.071	384.209	0.0011208	0.0022312	0.00084387	576.22	1.3594e-05	1.9298e-05	900.76	221.23	1.4909e-05	1.3762e-05	401.68	202.45	89.174	46.646	2.6079e-05	115.52	0.0047472	0.0056043	0.0015771	856.72	5.554e-05	6.3234e-05	1218.7	309.52	5.6155e-05	6.4477e-05	554.67	249.63	133.37	64.104	6.1858e-05	134.17	143.167	148.538	288.019	92.424	79.868	175.182	92.395	97.059	189.369	158.773	96.341	100.210	101.065	105.202	396.652	104.358	-8191	255	
3393.502	1	1	0	0	0.18067	0.19075	0.17375	0.30355	0.15532	0.095287	0.30974	0.21943	0.30183	0.22115	0.25526	0.071559	0.33789	0.38218	0.044476	0.29399	-1.6146	-1.6167	-1.6688	-1.9958	-1.65	-1.9167	-1.8583	-1.7979	-1.9562	-1.6646	-1.9083	-2.1229	-1.5583	-2.1604	-1.9312	-1.725	358.685	128.834	179.055	365.226	216.889	415.039	342.950	392.565	186.157	181.558	422.385	325.791	342.663	369.790	374.158	392.996	0.0014652	0.000859	0.00046623	574.47	1.0297e-05	1.1556e-05	896.95	218.23	3.7075e-05	1.4044e-05	396.36	200.91	88.873	46.505	1.3825e-05	114.52	0.0050655	0.0059691	0.0015645	851.73	5.8636e-05	6.5291e-05	1199.5	307.24	5.8326e-05	6.4643e-05	543.81	246.41	135.22	63.868	5.8968e-05	132.95	145.903	206.363	192.728	92.085	265.050	192.936	92.858	97.365	219.785	262.160	96.522	100.454	101.104	105.618	267.051	104.538	-8191	255	
3393.621	1	1	0	0	0.27208	0.15841	0.16832	0.3087	0.12328	0.064102	0.39332	0.27438	0.20571	0.11891	0.34581	0.28309	0.29523	0.26015	0.16813	0.16383	-1.6396	-1.6583	-1.6583	-2.0812	-1.425	-1.8979	-2.2188	-1.8438	-2.0604	-1.6396	-1.6271	-2.2292	-1.7542	-1.8937	-1.9125	-1.8	396.252	89.521	250.541	412.122	238.658	143.290	433.906	425.161	136.083	368.410	87.299	363.152	300.772	103.335	356.096	370.142	0.0017716	0.00237	0.00058499	571.8	2.5755e-05	7.6696e-06	894.39	218.44	1.9745e-05	1.3588e-05	395.39	201.82	88.944	46.54	1.1331e-05	115.38	0.005271	0.0058456	0.0014926	839.85	6.0465e-05	6.3282e-05	1181.7	303.81	6.0981e-05	6.2346e-05	536.82	245.74	137.3	63.096	5.6771e-05	132.96	159.665	299.707	383.290	92.794	224.218	376.227	92.949	97.565	204.253	408.705	96.428	100.773	102.045	104.972	302.680	103.765	-8191	255	
3393.717	1	1	0	0	0.33832	0.13265	0.030018	0.15787	0.094701	0.30456	0.16738	0.21912	0.057252	0.15194	0.11566	0.094656	0.080353	0.23997	0.10854	0.25288	-1.6042	-1.7021	-1.7458	-2.1917	-1.5562	-1.8563	-1.9917	-1.6562	-1.9917	-1.8896	-1.7604	-2.1521	-1.6562	-1.9042	-1.8417	-1.8875	327.856	374.687	84.945	393.833	145.374	157.108	237.267	424.363	400.943	134.324	385.694	427.190	142.317	398.746	423.981	418.117	0.0010954	0.0021841	0.0004832	571.83	1.8156e-05	2.2069e-05	896.1	217.55	1.3708e-05	1.0337e-05	396.4	202.82	87.526	46.448	1.969e-05	115.95	0.0054642	0.0055321	0.0014438	838.75	6.2768e-05	6.0389e-05	1170.9	303.45	6.2927e-05	5.9354e-05	532.43	247.16	137.9	62.264	5.5044e-05	134.06	153.330	314.087	398.204	91.774	178.389	363.921	92.179	96.974	180.172	130.524	95.985	100.223	100.131	105.051	355.488	104.102	-8191	255	
3393.789	1	1	0	0	0.21904	0.23291	0.19944	0.37309	0.10398	0.2484	0.15406	0.20659	0.088352	0.20955	0.13786	0.31124	0.25452	0.35049	0.076363	0.13922	-1.4167	-1.7917	-1.5583	-2.0708	-1.7917	-1.8125	-2.0708	-1.5333	-1.8979	-1.7479	-1.5896	-2.1396	-1.6875	-1.8146	-2.0062	-1.925	171.186	137.467	138.505	377.297	207.214	359.841	222.956	84.317	276.183	197.755	353.078	368.707	395.864	416.951	223.101	430.899	0.00086372	0.00083385	0.00019942	574.87	5.6206e-06	2.2092e-05	891.71	217.08	6.9656e-06	1.0654e-05	395.16	201.77	87.81	46.375	1.2366e-05	115.45	0.0055781	0.0053302	0.0014135	851.26	6.3353e-05	5.8498e-05	1161.9	308.17	6.3068e-05	5.7433e-05	529.02	250.45	137.44	61.585	5.438e-05	135.18	161.983	293.799	243.761	92.615	351.562	430.783	92.339	97.333	136.330	422.213	96.273	100.102	100.844	105.337	356.761	104.161	-8191	255	
3393.909	1	1	0	0	0.34236	0.16333	0.37576	0.32626	0.15664	0.14947	0.1283	0.19131	0.18554	0.079493	0.22296	0.21207	0.15983	0.12261	0.17171	0.39935	-1.6896	-1.7979	-1.4729	-1.9062	-1.6875	-1.7188	-2.0021	-1.6562	-1.8479	-1.9729	-1.725	-2.1396	-1.8542	-1.7437	-1.7833	-1.9312	103.783	240.848	85.259	83.072	223.882	291.868	357.291	387.164	243.529	100.297	365.848	94.879	205.745	105.340	184.620	426.791	0.00077029	0.00096591	0.00092654	567.17	9.9779e-06	1.618e-05	891.16	215.41	1.4536e-05	1.509e-05	394.75	199.68	87.204	46.249	2.3211e-05	114.78	0.0054911	0.0051943	0.001403	869.32	6.1544e-05	5.7214e-05	1155.7	312.23	6.0988e-05	5.6103e-05	527.53	251.96	134.83	61.238	5.5179e-05	135.7	153.367	261.384	98.729	92.610	121.843	166.272	92.175	96.848	365.328	228.212	96.595	100.501	101.483	105.527	128.554	104.908	-8191	255	
3394.005	1	1	0	0	0.12268	0.152	0.060264	0.082122	0.22752	0.015265	0.16719	0.12787	0.055871	0.13862	0.28196	0.10337	0.31536	0.38378	0.11526	0.48372	-1.5771	-1.9229	-1.6083	-1.9	-1.7958	-1.525	-2.0354	-1.7208	-1.5854	-2.0104	-1.7604	-2	-1.9375	-1.5771	-1.9937	-1.8979	153.705	156.224	438.623	391.206	159.108	330.008	435.425	354.510	399.857	431.912	171.859	429.931	373.091	405.840	202.765	390.795	0.0010125	0.00040795	0.00074423	568.57	8.4227e-06	7.835e-06	891.98	214.82	7.8999e-06	1.7001e-05	394.01	200.08	87.004	46.103	2.9636e-05	114.79	0.0052929	0.0050653	0.0014382	879.63	5.8987e-05	5.6132e-05	1166.6	314.83	5.8978e-05	5.4951e-05	534.25	253.85	132.45	60.801	5.803e-05	136.06	160.785	271.981	160.132	92.522	328.311	174.342	93.425	97.760	98.558	271.047	97.010	100.435	101.141	105.739	224.656	104.467	-8191	255	
3394.102	1	1	0	0	0.32389	0.19422	0.30982	0.23333	0.27853	0.075435	0.12	0.27105	0.16626	0.31898	0.16702	0.14808	0.19297	0.1291	0.11866	0.28266	-1.1063	-2.0312	-1.6542	-2.0104	-1.8813	-1.4458	-2.1771	-1.65	-1.5875	-1.9375	-1.5875	-1.9542	-1.9604	-1.6708	-1.9271	-1.9646	410.742	296.214	405.028	381.321	312.531	149.024	241.321	336.623	236.902	139.876	410.623	104.470	433.755	154.395	336.858	390.142	0.00082643	0.00023921	0.0012905	563.92	6.8323e-06	8.2309e-06	893.74	212.34	1.97e-06	1.3586e-05	395.42	200.75	86.887	46.115	3.8646e-05	114.83	0.0051172	0.0049647	0.0015121	876.61	5.6873e-05	5.5058e-05	1186.9	311.61	5.7082e-05	5.3934e-05	542.83	252.11	130.55	60.516	6.0984e-05	135.31	166.754	140.379	94.935	93.170	303.011	178.388	93.215	97.785	315.150	378.312	96.905	100.558	101.008	105.544	242.835	104.654	-8191	255	
3394.198	1	1	0	0	0.16138	0.077353	0.18974	0.15212	0.11094	0.29709	0.25596	0.41684	0.21186	0.13297	0.16829	0.17326	0.098866	0.37027	0.1952	0.27399	-1.0021	-1.9625	-1.8062	-1.8792	-1.8687	-1.5729	-1.9833	-1.6979	-1.5979	-1.9375	-1.8438	-1.8208	-1.875	-1.6187	-1.7396	-1.8604	260.368	341.360	249.459	436.860	357.698	133.729	373.761	400.130	412.536	333.609	139.362	370.604	232.590	126.394	111.636	403.697	0.00093688	0.0016868	0.00047503	563.47	1.0152e-05	5.0168e-06	892.36	212.72	1.3515e-05	3.0329e-05	392.09	198.37	85.808	46.256	2.0868e-05	113.83	0.0049565	0.0049063	0.0015634	859.49	5.4431e-05	5.4326e-05	1194.6	304.26	5.4456e-05	5.341e-05	542.34	246.49	127.32	60.133	6.0994e-05	132.06	158.389	133.624	170.625	92.710	103.920	271.839	93.307	97.852	324.384	157.861	96.703	100.834	101.558	105.870	267.898	104.356	-8191	255	
3394.317	1	1	0	0	0.043837	0.30715	0.25189	0.13582	0.18883	0.20824	0.2759	0.18003	0.2606	0.09064	0.16507	0.22613	0.21334	0.41412	0.19448	0.31211	-1.3167	-1.9062	-1.7292	-1.7792	-1.9708	-1.6938	-1.9292	-1.6542	-1.4125	-1.8896	-1.6854	-1.8146	-1.9729	-1.6437	-1.9396	-1.9146	163.123	134.534	420.642	155.480	248.119	325.995	282.356	423.659	160.073	382.239	368.600	383.574	152.490	405.984	122.898	407.258	0.00091669	0.0019462	0.00031622	554.34	5.7263e-06	2.5631e-05	881.3	211.33	2.8715e-06	5.0037e-05	385.8	198.04	85.927	45.782	2.8577e-06	113.94	0.004674	0.0049091	0.0015513	831.8	5.1534e-05	5.5289e-05	1181.7	295.3	5.1716e-05	5.5216e-05	535.03	242.08	125.14	60.627	5.9691e-05	130.61	153.478	180.528	430.131	93.028	278.407	196.918	93.474	97.735	245.284	182.142	97.118	101.019	101.054	106.010	230.452	104.877	-8191	255	
3394.390	1	1	0	0	0.32246	0.20186	0.070181	0.27659	0.29458	0.28187	0.3922	0.22632	0.35169	0.14749	0.2479	0.18129	0.22434	0.43166	0.14056	0.033493	-1.1437	-1.9312	-1.6646	-1.5583	-2.075	-1.6708	-1.9521	-2.0417	-1.5688	-1.9604	-1.7125	-1.8687	-1.8979	-1.7062	-1.8	-2.0687	122.727	405.967	127.738	214.300	159.236	425.323	363.301	433.769	222.430	439.121	426.862	390.851	402.354	428.588	422.526	418.321	0.0012942	0.0026403	0.00088698	554.22	1.259e-05	2.2722e-05	880.88	211.19	6.2845e-06	1.5337e-05	386.43	198.81	86.977	45.963	1.4478e-05	113.97	0.0045893	0.0051991	0.0015135	823.21	5.1355e-05	5.9044e-05	1177	293.92	5.2543e-05	5.9317e-05	532.2	242.51	126.65	62.176	5.8855e-05	130.96	156.167	151.691	340.072	92.961	230.627	171.222	93.318	97.571	106.518	223.809	96.812	100.899	101.362	105.773	428.201	104.349	-8191	255	
3394.486	1	1	0	0	0.13458	0.10792	0.14265	0.21016	0.10506	0.02874	0.21643	0.18208	0.14758	0.034604	0.33867	0.12325	0.18931	0.089212	0.28685	0.24022	-1.4208	-1.7333	-1.7729	-1.6021	-2.0292	-1.4979	-1.9708	-1.925	-1.4562	-1.9458	-1.8687	-1.7375	-1.9521	-1.6646	-1.8333	-2.2812	232.953	205.562	216.001	95.904	138.036	106.684	168.498	302.781	429.354	166.409	372.947	405.408	419.117	124.456	387.798	370.263	0.0015141	0.0015989	0.00059938	553.08	2.2108e-05	1.4559e-05	873.15	208.85	2.2782e-05	9.3729e-06	385.16	198.65	86.402	45.799	7.7648e-06	114.3	0.004741	0.0055619	0.001484	822.39	5.4076e-05	6.2659e-05	1169.2	293.92	5.6548e-05	6.3426e-05	531.4	243.93	130.74	63.159	5.9429e-05	131.94	160.557	133.778	316.874	92.207	212.549	214.793	92.507	96.884	194.104	187.201	96.000	100.376	100.588	105.715	327.430	104.379	-8191	255	
3394.582	1	1	0	0	0.22571	0.15979	0.20273	0.040299	0.19147	0.27208	0.23273	0.19383	0.19242	0.1884	0.21525	0.25832	0.12166	0.31464	0.15482	0.25727	-1.175	-1.9312	-1.8292	-1.6125	-1.9688	-1.8062	-1.8813	-2.0792	-1.7437	-2.1312	-2.0208	-1.7167	-2.0917	-1.9146	-1.7042	-2.3312	372.369	368.974	295.473	396.398	258.185	220.875	388.849	136.303	257.554	197.036	333.367	83.839	143.658	87.692	224.644	357.257	0.0015329	0.0015745	0.00044734	558.73	1.0168e-05	2.2027e-05	878.39	210.51	1.9476e-05	6.9111e-06	384.14	198.03	86.318	45.676	1.6244e-05	113.53	0.00526	0.005905	0.0015016	832.8	5.9851e-05	6.481e-05	1177.7	296.51	6.1862e-05	6.4646e-05	531.5	244.79	135.71	63.262	6.0507e-05	132.35	157.700	282.158	265.576	92.641	218.973	257.560	92.770	97.360	176.692	391.956	96.764	100.682	100.777	105.395	372.485	104.325	-8191	255	
3394.701	1	1	0	0	0.26511	0.15177	0.24978	0.19885	0.30809	0.10938	0.23822	0.088745	0.40062	0.26704	0.17626	0.20248	0.072592	0.12557	0.24215	0.29415	-1.1458	-1.8125	-1.7333	-1.5521	-2.1021	-1.7938	-1.7125	-2.1292	-1.6583	-1.9604	-2.0604	-1.9375	-1.9	-1.8979	-1.7271	-2.2271	232.172	303.703	182.932	431.252	439.339	217.297	154.928	297.417	297.121	212.617	396.110	340.161	374.130	92.523	362.378	362.066	0.0010711	0.0013847	0.00063018	551.77	2.1647e-05	1.2858e-05	876.23	209.13	3.3537e-05	3.3873e-05	386.7	197.15	86.939	45.407	6.4353e-06	114.56	0.0057466	0.00598	0.0015288	847.07	6.5949e-05	6.5584e-05	1183.5	302.35	6.7588e-05	6.5637e-05	536.65	248.66	140.99	63.448	6.2176e-05	134.42	169.840	285.659	421.357	92.402	208.546	326.878	93.133	97.349	175.258	393.178	96.711	100.317	101.146	105.972	169.547	104.681	-8191	255	
3394.797	1	1	0	0	0.33897	0.19436	0.37099	0.11363	0.078273	0.22758	0.12189	0.35592	0.29709	0.094781	0.12648	0.17466	0.1264	0.44119	0.089764	0.15775	-1.1854	-1.7062	-1.8146	-1.5521	-1.9667	-1.775	-1.625	-2.0854	-1.6437	-1.8604	-2.0042	-1.6646	-1.9771	-1.9188	-1.6146	-2.2792	409.620	377.090	133.632	80.157	415.514	190.605	318.940	385.665	198.085	98.837	392.037	421.343	140.104	357.392	269.575	384.501	0.0012852	0.001318	0.00034275	558.41	1.1694e-05	2.3973e-06	876.93	211.99	1.267e-05	6.846e-06	385.66	199.18	85.181	45.79	4.3591e-06	114.15	0.0061411	0.0060116	0.0015732	874.08	7.0196e-05	6.5553e-05	1192.3	311.97	7.0621e-05	6.571e-05	539.61	254.17	142.18	63.372	6.2129e-05	136.67	163.729	317.462	325.418	92.525	220.287	356.853	92.438	98.030	361.713	287.119	96.396	100.449	101.025	105.319	237.081	104.756	-8191	255	
3394.893	1	1	0	0	0.029852	0.05052	0.20695	0.19675	0.24464	0.12259	0.21148	0.0073771	0.28487	0.074885	0.070398	0.1475	0.033282	0.34105	0.17144	0.30674	-1.3813	-1.7167	-1.9167	-1.7354	-1.9958	-1.9708	-1.8792	-2.1437	-1.6729	-1.7854	-2.1792	-1.8563	-1.9396	-2.1292	-1.6187	-2.1958	97.874	293.202	132.107	258.344	137.069	406.974	415.315	167.109	186.660	86.075	329.593	433.892	239.828	339.426	412.801	319.327	0.00098653	0.00078176	0.00067672	560.56	1.1151e-05	5.371e-06	879.44	210.72	7.2966e-06	1.323e-05	389.68	199.7	86.567	45.955	1.8612e-05	114.69	0.0061234	0.0058729	0.0015535	894.72	6.9032e-05	6.3592e-05	1189	317.52	6.8186e-05	6.3522e-05	538.39	257.63	139.9	62.671	6.0817e-05	138.01	165.557	188.625	201.498	93.012	380.928	282.937	93.337	97.559	414.264	260.168	96.122	100.151	100.483	105.327	207.339	104.249	-8191	255	
3394.990	1	1	0	0	0.50269	0.23298	0.07207	0.19941	0.094307	0.10482	0.35176	0.218	0.088252	0.46725	0.17067	0.27483	0.15848	0.24071	0.10685	0.13994	-1.1979	-1.7021	-1.8667	-1.6729	-1.7687	-1.8333	-1.7354	-2.0667	-1.6875	-1.7542	-2.0938	-1.8958	-1.6437	-1.8188	-1.4771	-2.0875	254.665	187.827	189.832	391.227	295.245	294.709	386.348	362.406	266.619	167.911	312.433	411.374	423.099	114.809	262.196	406.531	0.00075367	0.00098228	0.000963	555.58	9.5485e-06	1.2066e-05	887.09	210.85	7.6995e-06	1.1602e-05	393	199.4	86.728	45.939	4.7249e-05	114.59	0.0057751	0.0056204	0.0015151	896.61	6.4698e-05	6.0106e-05	1186.3	318.26	6.3187e-05	6.0093e-05	538.18	257.27	136.46	61.605	6.1745e-05	137.29	148.823	289.722	154.983	92.246	333.735	245.584	92.332	96.938	280.424	103.178	96.442	100.169	100.978	105.111	177.264	104.102	-8191	255	
3395.086	1	1	0	0	0.21674	0.22296	0.14319	0.12309	0.15254	0.28096	0.11157	0.099554	0.18181	0.18543	0.21165	0.29116	0.21568	0.081494	0.029404	0.16756	-1.4167	-1.6646	-1.8292	-1.7104	-2.0438	-1.8875	-1.7167	-1.9188	-1.8146	-1.6875	-2.15	-1.825	-1.8188	-2.0021	-1.5458	-2.0771	207.455	229.533	380.399	416.464	202.169	323.579	315.227	261.417	81.590	180.254	81.248	201.077	362.868	95.961	198.829	357.751	0.00090264	0.00050916	0.0010967	552.21	2.339e-06	1.6978e-05	878.96	210.47	2.575e-05	8.9453e-06	386.53	197.5	85.685	45.625	3.4132e-05	113.36	0.0054273	0.0053828	0.0015621	889.09	6.1232e-05	5.7767e-05	1191.6	315.46	6.0325e-05	5.8135e-05	541.35	253.55	133.22	60.866	6.4386e-05	136.06	171.863	151.581	158.839	91.565	156.898	202.978	92.142	97.132	346.897	221.710	96.279	100.190	100.383	104.825	196.194	103.872	-8191	255	
3395.182	1	1	0	0	0.074511	0.11226	0.1602	0.19565	0.16335	0.22704	0.081075	0.073804	0.15068	0.15011	0.14315	0.32417	0.25378	0.15769	0.096668	0.21581	-1.4146	-1.6187	-1.7979	-1.9271	-1.7938	-2.0271	-1.7729	-1.9792	-1.9167	-1.5771	-2.0792	-1.9562	-1.6958	-2.2562	-1.6521	-1.7333	166.648	169.533	144.318	122.715	198.837	335.039	439.208	390.813	277.340	178.529	106.920	393.342	431.459	351.189	137.008	109.018	0.001305	0.0015966	0.00087379	550.49	1.0134e-05	1.4332e-05	876.92	209.19	7.6809e-06	7.8016e-06	387.03	197.67	84.821	46.082	4.2909e-05	113.86	0.0052576	0.0053183	0.0016493	878.08	6.038e-05	5.8202e-05	1210.4	311.61	5.9475e-05	5.916e-05	552.81	251.77	132.73	61.466	6.7301e-05	135.38	164.489	330.925	165.195	92.144	163.265	210.583	92.471	97.220	238.604	168.819	95.691	99.961	100.761	105.240	198.631	104.251	-8191	255	
3395.303	1	1	0	0	0.11919	0.23028	0.10435	0.44101	0.26032	0.1416	0.25692	0.16292	0.22179	0.13328	0.057681	0.36169	0.27985	0.12035	0.2582	0.25044	-1.5354	-1.4937	-1.9354	-1.8729	-1.5792	-1.925	-1.7479	-1.8104	-1.8979	-1.675	-2.0875	-1.8354	-1.7521	-1.9771	-1.5896	-1.9104	117.589	222.823	144.673	295.292	201.928	201.510	389.411	400.728	410.741	220.373	186.314	394.922	100.908	404.098	388.749	361.897	0.0010231	0.0019768	0.00047941	550.15	2.6594e-06	2.5945e-05	874.02	208.05	2.6377e-06	9.6462e-06	385.44	198.29	86.061	46.373	2.329e-05	113.88	0.0052252	0.0055356	0.0017152	863.55	5.9739e-05	6.0653e-05	1219.9	307.17	5.8034e-05	6.1615e-05	555.35	249.43	131.9	62.584	6.6449e-05	134.45	162.968	160.159	148.321	92.122	201.073	187.987	92.542	96.954	358.133	205.693	96.143	100.247	100.617	105.111	389.539	104.034	-8191	255	
3395.399	1	1	0	0	0.029022	0.12494	0.28678	0.15077	0.33742	0.13117	0.17414	0.11699	0.1159	0.26855	0.31503	0.28837	0.026514	0.11065	0.088248	0.41898	-1.6604	-1.4542	-1.8771	-1.9583	-1.6229	-1.8625	-1.7188	-1.6688	-2.0375	-1.5438	-1.9	-1.9688	-1.6875	-2.0875	-1.7208	-1.9646	355.747	87.386	260.364	145.648	96.433	264.227	121.869	213.510	310.366	114.125	294.522	138.247	98.785	365.830	420.751	411.452	0.0010518	0.0032352	0.00041297	547.14	1.1347e-05	1.7438e-05	874.68	207.67	1.516e-05	2.2826e-05	384.34	197.94	85.617	46.001	1.1156e-05	113.03	0.0050078	0.0056956	0.0016745	844.8	5.7204e-05	6.2821e-05	1204	302.42	5.6488e-05	6.4343e-05	547.78	246.69	130.64	63.256	6.4082e-05	132.84	162.651	138.827	101.870	92.114	217.104	171.277	92.191	96.873	223.122	174.521	96.090	100.174	100.982	105.097	345.728	103.851	-8191	255	
3395.493	1	1	0	0	0.090731	0.28587	0.12847	0.20739	0.16725	0.16193	0.051999	0.1578	0.021108	0.2023	0.17738	0.10449	0.15624	0.091465	0.20267	0.30005	-1.4438	-1.7458	-1.8271	-1.8813	-1.5562	-1.8021	-1.8563	-1.6292	-2.0312	-1.7458	-1.9083	-2.1167	-1.7979	-1.9438	-1.6979	-1.775	216.096	243.015	375.403	357.830	345.258	299.292	224.848	401.623	124.394	120.540	410.498	383.052	362.299	311.493	367.758	384.547	0.0013904	0.0011845	0.0010968	549.9	2.3103e-05	1.4189e-05	870.94	207.91	2.129e-05	1.7585e-05	384.45	197.15	87.303	46.302	2.4182e-05	113.4	0.0050143	0.0059621	0.0016195	836.7	5.8082e-05	6.5526e-05	1188.2	301.11	5.8202e-05	6.6855e-05	541.89	245.59	133.21	64.197	6.1704e-05	133.04	162.240	85.200	288.531	92.181	251.935	205.130	92.241	97.175	165.638	222.050	96.565	100.578	101.693	105.827	418.411	104.904	-8191	255	
3395.589	1	1	0	0	0.11465	0.11996	0.12839	0.27309	0.23659	0.41845	0.0046704	0.28808	0.17283	0.15318	0.27342	0.16483	0.28126	0.22531	0.064839	0.05651	-1.5729	-1.6042	-1.5083	-2.0312	-1.7208	-1.8646	-1.9167	-1.6375	-1.9188	-1.7521	-1.9042	-2.1688	-1.6479	-2.0062	-1.775	-1.7583	196.024	117.220	346.632	371.823	256.961	305.468	162.342	198.252	127.323	247.862	110.352	107.552	410.228	86.964	226.483	236.465	0.001283	0.0011901	0.00040586	548.9	1.9489e-05	1.8088e-05	877.14	209.85	2.0875e-05	1.3468e-05	387.87	197.68	87.162	46.182	1.2651e-05	114.61	0.0052897	0.0061006	0.0015624	833.71	6.1152e-05	6.6339e-05	1180.8	299.67	6.1113e-05	6.6141e-05	538.03	244.97	136.68	64.332	6.019e-05	133.62	160.414	351.502	252.727	92.844	218.843	156.975	93.106	98.217	211.527	324.948	97.136	100.803	101.583	105.601	385.230	104.499	-8191	255	
3395.685	1	1	0	0	0.024298	0.099827	0.058432	0.061746	0.14877	0.038966	0.27276	0.049214	0.088811	0.18729	0.29189	0.26392	0.080197	0.025882	0.25861	0.096822	-1.4042	-1.8083	-1.5417	-1.975	-1.5833	-1.9125	-1.9229	-1.8292	-1.8854	-1.6458	-1.8375	-1.8813	-1.65	-1.9062	-2.0104	-1.6417	309.556	392.779	254.820	435.967	171.506	353.091	349.466	324.828	114.814	286.439	322.904	215.056	147.996	144.064	434.812	348.355	0.0017021	0.001513	0.00079463	559.22	2.3294e-05	1.5514e-05	881.46	214.25	2.3798e-05	3.5358e-05	394.13	200.52	88.292	46.776	6.1689e-06	116.07	0.0056312	0.006028	0.001553	842.14	6.565e-05	6.5863e-05	1184.1	305.07	6.5552e-05	6.431e-05	540.76	248.36	140.57	64.194	5.8993e-05	135.08	156.718	391.566	418.588	92.768	201.304	351.450	92.335	97.269	182.430	357.235	96.598	100.669	101.016	105.781	307.521	105.201	-8191	255	
3395.782	1	1	0	0	0.087731	0.086858	0.092649	0.21872	0.31309	0.15818	0.16628	0.025821	0.19173	0.047328	0.29666	0.22778	0.27035	0.27389	0.015334	0.10877	-1.3875	-1.675	-1.7292	-1.9854	-1.6417	-1.8167	-2.0833	-1.7458	-1.7938	-1.7396	-1.7542	-2.1083	-1.6708	-1.8875	-1.7729	-1.9542	315.886	243.451	149.842	346.367	237.723	317.825	82.455	227.462	302.061	418.942	332.633	363.884	232.265	335.678	294.077	426.962	0.0009731	0.0017862	0.0007697	564.41	1.7316e-05	1.3148e-05	891.29	217.35	1.4059e-05	9.3903e-06	394.25	201.9	88.08	47.055	1.2051e-05	114.95	0.0058497	0.0057771	0.0015167	856.53	6.7316e-05	6.3365e-05	1181.8	311.28	6.7161e-05	6.1869e-05	538.47	251.41	141.77	63.382	5.7366e-05	135.61	155.258	345.885	206.301	92.849	188.713	391.722	93.143	97.683	239.991	307.199	96.376	100.447	100.509	104.981	296.741	104.056	-8191	255	
#DATA ENDS
