BOXY.EXE: ISS Imagent and Oximeter Data Acquisition Program Version 0.80
Ascii Record File

#ACQ INFORMATION
2  Detector Channels 
16  External MUX Channels 
1  Auxiliary Channels 
5000  Waveform (CCF) Frequency (Hz)
1  Waveforms Skipped 
30  Waveforms Averaged 
1  Cycles Averaged 
16  Acquisitions per Waveform 
10.0806  Updata Rate (Hz) 

#FILE INFORMATION
TRUE -- External MUX Channel results are PARSED.
FALSE -- AC DC and Phase are NOT grouped.
TRUE -- Companion Program Settings File CREATED.
FALSE -- AC data not excluded
FALSE -- DC data not excluded
FALSE -- Phase data not excluded
FALSE -- Auxillary Chn. data not excluded
Tab delimiters

#CALIBRATION STATE
TRUE -- Waveform Calibration Values APPLIED.


#AUX CALIBRATION VALUES
Val Type	aux-1	

Term	1.0000e+00	
Factor	0.0000e+00	


#WF CALIBRATION VALUES
A = Detector Channel
Val Type	A-AC1	A-AC2	A-AC3	A-AC4	A-AC5	A-AC6	A-AC7	A-AC8	A-AC9	A-AC10	A-AC11	A-AC12	A-AC13	A-AC14	A-AC15	A-AC16	A-DC1	A-DC2	A-DC3	A-DC4	A-DC5	A-DC6	A-DC7	A-DC8	A-DC9	A-DC10	A-DC11	A-DC12	A-DC13	A-DC14	A-DC15	A-DC16	A-Ph1	A-Ph2	A-Ph3	A-Ph4	A-Ph5	A-Ph6	A-Ph7	A-Ph8	A-Ph9	A-Ph10	A-Ph11	A-Ph12	A-Ph13	A-Ph14	A-Ph15	A-Ph16	

Term	0.00000e+00	0.00000e+00	0.00000e+00	0.00000e+00	0.00000e+00	0.00000e+00	0.00000e+00	0.00000e+00	0.00000e+00	0.00000e+00	0.00000e+00	0.00000e+00	0.00000e+00	0.00000e+00	0.00000e+00	0.00000e+00	0.00000e+00	0.00000e+00	0.00000e+00	0.00000e+00	0.00000e+00	0.00000e+00	0.00000e+00	0.00000e+00	0.00000e+00	0.00000e+00	0.00000e+00	0.00000e+00	0.00000e+00	0.00000e+00	0.00000e+00	0.00000e+00	0.00000e+00	0.00000e+00	0.00000e+00	0.00000e+00	0.00000e+00	0.00000e+00	0.00000e+00	0.00000e+00	0.00000e+00	0.00000e+00	0.00000e+00	0.00000e+00	0.00000e+00	0.00000e+00	0.00000e+00	0.00000e+00	
Factor	1.00000e+00	1.00000e+00	1.00000e+00	1.00000e+00	1.00000e+00	1.00000e+00	1.00000e+00	1.00000e+00	1.00000e+00	1.00000e+00	1.00000e+00	1.00000e+00	1.00000e+00	1.00000e+00	1.00000e+00	1.00000e+00	1.00000e+00	1.00000e+00	1.00000e+00	1.00000e+00	1.00000e+00	1.00000e+00	1.00000e+00	1.00000e+00	1.00000e+00	1.00000e+00	1.00000e+00	1.00000e+00	1.00000e+00	1.00000e+00	1.00000e+00	1.00000e+00	X	X	X	X	X	X	X	X	X	X	X	X	X	X	X	X	

B = Detector Channel
Val Type	B-AC1	B-AC2	B-AC3	B-AC4	B-AC5	B-AC6	B-AC7	B-AC8	B-AC9	B-AC10	B-AC11	B-AC12	B-AC13	B-AC14	B-AC15	B-AC16	B-DC1	B-DC2	B-DC3	B-DC4	B-DC5	B-DC6	B-DC7	B-DC8	B-DC9	B-DC10	B-DC11	B-DC12	B-DC13	B-DC14	B-DC15	B-DC16	B-Ph1	B-Ph2	B-Ph3	B-Ph4	B-Ph5	B-Ph6	B-Ph7	B-Ph8	B-Ph9	B-Ph10	B-Ph11	B-Ph12	B-Ph13	B-Ph14	B-Ph15	B-Ph16	

Term	0.00000e+00	0.00000e+00	0.00000e+00	0.00000e+00	0.00000e+00	0.00000e+00	0.00000e+00	0.00000e+00	0.00000e+00	0.00000e+00	0.00000e+00	0.00000e+00	0.00000e+00	0.00000e+00	0.00000e+00	0.00000e+00	0.00000e+00	0.00000e+00	0.00000e+00	0.00000e+00	0.00000e+00	0.00000e+00	0.00000e+00	0.00000e+00	0.00000e+00	0.00000e+00	0.00000e+00	0.00000e+00	0.00000e+00	0.00000e+00	0.00000e+00	0.00000e+00	-1.39278e+02	-1.18623e+02	-1.35795e+02	-1.82111e+02	-6.77916e+01	-8.69060e+01	-1.58920e+02	-1.62015e+02	-8.07281e+01	-9.04246e+01	-1.70527e+02	-1.72392e+02	-1.77825e+02	-1.76618e+02	-8.58281e+01	-1.49177e+02	
Factor	2.08840e-05	1.12845e-04	4.51227e-05	1.72743e-01	1.01973e-06	1.29749e-06	1.94666e-01	5.53233e-02	1.05499e-06	1.31565e-06	9.43069e-02	3.35196e-02	2.78317e-02	9.88634e-03	1.30373e-06	1.45576e-02	1.37347e-06	1.43500e-06	4.00220e-07	8.51377e-02	1.56614e-08	1.57660e-08	8.99492e-02	2.72962e-02	1.56928e-08	1.57274e-08	4.45325e-02	1.58891e-02	1.37582e-02	4.84121e-03	1.57627e-08	6.86061e-03	X	X	X	X	X	X	X	X	X	X	X	X	X	X	X	X	



#DISTANCE SETTINGS
A = Detector Channel
A-1	A-2	A-3	A-4	A-5	A-6	A-7	A-8	A-9	A-10	A-11	A-12	A-13	A-14	A-15	A-16	

2.5000e+00	3.0000e+00	2.5000e+00	3.0000e+00	2.0000e+00	3.0000e+00	1.5000e+00	3.0000e+00	3.0000e+00	3.0000e+00	3.0000e+00	3.0000e+00	3.0000e+00	3.0000e+00	1.5000e+00	3.0000e+00	

B = Detector Channel
B-1	B-2	B-3	B-4	B-5	B-6	B-7	B-8	B-9	B-10	B-11	B-12	B-13	B-14	B-15	B-16	

1.0000e+01	1.0000e+01	1.0000e+01	1.4400e+00	1.0000e+01	1.0000e+01	1.5100e+00	1.9400e+00	1.0000e+01	1.0000e+01	1.9900e+00	2.4900e+00	2.4100e+00	2.9000e+00	1.0000e+01	2.9800e+00	




#DATA BEGINS
time	group	step	mark	flag	A-AC1	A-AC2	A-AC3	A-AC4	A-AC5	A-AC6	A-AC7	A-AC8	A-AC9	A-AC10	A-AC11	A-AC12	A-AC13	A-AC14	A-AC15	A-AC16	A-DC1	A-DC2	A-DC3	A-DC4	A-DC5	A-DC6	A-DC7	A-DC8	A-DC9	A-DC10	A-DC11	A-DC12	A-DC13	A-DC14	A-DC15	A-DC16	A-Ph1	A-Ph2	A-Ph3	A-Ph4	A-Ph5	A-Ph6	A-Ph7	A-Ph8	A-Ph9	A-Ph10	A-Ph11	A-Ph12	A-Ph13	A-Ph14	A-Ph15	A-Ph16	B-AC1	B-AC2	B-AC3	B-AC4	B-AC5	B-AC6	B-AC7	B-AC8	B-AC9	B-AC10	B-AC11	B-AC12	B-AC13	B-AC14	B-AC15	B-AC16	B-DC1	B-DC2	B-DC3	B-DC4	B-DC5	B-DC6	B-DC7	B-DC8	B-DC9	B-DC10	B-DC11	B-DC12	B-DC13	B-DC14	B-DC15	B-DC16	B-Ph1	B-Ph2	B-Ph3	B-Ph4	B-Ph5	B-Ph6	B-Ph7	B-Ph8	B-Ph9	B-Ph10	B-Ph11	B-Ph12	B-Ph13	B-Ph14	B-Ph15	B-Ph16	aux-1	digaux	

1470.380	1	1	0	256	0.13447	0.15772	0.17731	0.16939	0.32204	0.13248	0.20375	0.29891	0.11621	0.14465	0.11349	0.15488	0.19524	0.058097	0.13327	0.23451	-1.4521	-2.3917	-2.0875	-2.2812	-2.5479	-1.9333	-2.3625	-2.3521	-1.9188	-2.3479	-2.2917	-2.2021	-2.525	-2.0521	-2.2542	-2.4688	329.211	204.038	83.221	110.041	226.479	121.943	412.263	393.978	101.186	370.060	203.160	101.280	411.065	336.805	239.544	400.378	0.0004716	0.00022256	0.00021382	1346.1	4.0751e-06	3.5355e-06	1349.5	365.09	5.436e-06	9.1737e-06	418.8	140.1	120.58	42.073	3.684e-06	52.169	0.00071168	0.000707	0.00022945	1377.3	7.6794e-06	8.0379e-06	1385	375.08	7.8527e-06	8.1233e-06	434.2	145.9	124.82	43.841	9.0903e-06	54.379	153.704	209.205	136.348	90.163	156.342	216.967	89.881	94.748	296.741	179.184	94.162	98.444	98.984	103.508	255.146	102.929	-8191	255	
1470.476	1	1	0	0	0.12791	0.22391	0.16862	0.10097	0.22478	0.23326	0.22776	0.25064	0.28645	0.11522	0.23361	0.13384	0.054614	0.14687	0.1308	0.35426	-1.4854	-2.4833	-1.9813	-2.1625	-2.4979	-2.0042	-2.5167	-2.3083	-1.9583	-2.5042	-2.4333	-2.0458	-2.7521	-2.1771	-2.2812	-2.4625	229.470	408.359	407.654	362.601	215.767	136.468	394.984	97.912	430.064	209.433	430.891	360.243	388.570	382.836	381.593	237.677	0.00050822	0.00078655	0.00022823	1345.5	6.0849e-07	1.3878e-05	1348.9	363.71	5.3752e-06	9.661e-06	416.01	139.95	120.73	42.041	5.0494e-06	52.174	0.00070777	0.00076892	0.00022943	1375.2	7.5768e-06	8.6432e-06	1384.2	374.32	7.645e-06	8.6249e-06	432.18	145.66	124.75	43.916	8.5067e-06	54.229	154.330	148.181	335.560	89.866	167.524	165.142	89.922	94.733	235.067	208.937	94.460	98.789	99.113	103.788	204.336	102.863	-8191	255	
1470.597	1	1	0	0	0.14471	0.29462	0.20028	0.056825	0.34352	0.11433	0.23603	0.20143	0.1692	0.15748	0.10746	0.30734	0.34242	0.39092	0.10698	0.084313	-1.3771	-2.3396	-2.0417	-2.3479	-2.4333	-2.0312	-2.3333	-2.4729	-1.9708	-2.3438	-2.2562	-2.0917	-2.6188	-2.0563	-2.3146	-2.4833	98.114	78.298	317.899	375.875	318.075	322.369	379.660	413.111	354.017	160.129	372.587	83.173	94.119	398.225	268.748	346.007	0.00054806	0.00049189	0.00022171	1346.2	7.7711e-06	7.2692e-06	1350	365.16	8.6221e-06	2.1493e-06	415.96	140.8	120.9	42.029	3.209e-06	52.081	0.00068309	0.00078391	0.00020996	1373.2	7.3647e-06	8.6276e-06	1381.2	373.69	7.5766e-06	8.6152e-06	430.06	145.2	125.03	43.965	7.9431e-06	54.113	160.893	130.348	106.541	90.022	220.510	296.711	89.971	94.611	185.729	138.817	94.254	98.705	99.233	103.789	258.403	103.037	-8191	255	
1470.669	1	1	0	0	0.151	0.11793	0.18074	0.18773	0.21851	0.067971	0.098425	0.30595	0.22658	0.3238	0.18994	0.083736	0.20408	0.16851	0.10792	0.21127	-1.5063	-2.3729	-2.1688	-1.9667	-2.5062	-2.1625	-2.0708	-2.6583	-1.8042	-2.1021	-2.4417	-2.0167	-2.4958	-2.0979	-1.9146	-2.5958	121.552	98.762	411.825	283.305	360.353	93.597	95.689	378.314	364.693	264.130	431.663	387.087	89.573	126.983	418.870	204.482	0.00059748	0.00042415	0.00022912	1347.3	7.1632e-06	2.2893e-06	1348.9	364.29	8.8644e-06	7.7541e-07	417.1	141.22	121.21	42.123	2.6502e-06	52.374	0.00069711	0.00078163	0.00019745	1371.2	7.7396e-06	8.5731e-06	1378.5	373.31	7.9674e-06	8.5188e-06	429.13	145.26	125.5	43.94	7.7309e-06	54.161	148.173	165.466	173.809	90.166	214.354	334.412	90.058	94.685	219.100	365.876	94.152	98.610	99.255	103.796	97.574	102.962	-8191	255	
1470.765	1	1	0	0	0.11391	0.11916	0.29582	0.34949	0.066454	0.3203	0.36626	0.038878	0.14067	0.15001	0.34529	0.1545	0.16353	0.22603	0.22761	0.14315	-1.4208	-2.2708	-2.3021	-2.125	-2.1771	-2.1667	-2.3083	-2.4938	-2.0625	-2.0708	-2.4125	-1.9667	-2.4375	-2.4104	-1.9688	-2.4313	202.773	307.262	403.787	375.599	310.318	341.220	380.953	346.716	78.781	327.951	428.642	192.559	97.786	383.352	282.187	92.402	0.00067348	0.00032208	0.00039904	1345.2	8.2371e-06	3.4989e-06	1343.6	365.02	3.4724e-06	2.1314e-06	415.88	140.93	121.38	41.971	8.376e-06	52.341	0.00074625	0.00076127	0.00019095	1370.1	8.2091e-06	8.1563e-06	1375.1	373.37	8.3801e-06	8.1628e-06	428.63	145.45	126.06	43.767	7.4773e-06	54.109	157.224	266.883	182.387	90.070	193.583	294.624	90.003	94.687	250.360	340.485	94.176	98.515	99.331	103.506	231.875	103.174	-8191	255	
1470.885	1	1	0	0	0.04921	0.29981	0.29231	0.49939	0.068398	0.06638	0.2981	0.29012	0.41838	0.19683	0.39042	0.30839	0.046247	0.20584	0.069479	0.24247	-1.5396	-1.9312	-2.4	-2.0625	-2.3187	-2.2708	-2.0896	-2.5104	-2.1	-2.0458	-2.5938	-1.8896	-2.5292	-2.4208	-1.9729	-2.4521	85.325	188.032	135.580	410.804	374.331	212.490	327.123	383.702	362.738	268.747	345.312	357.675	415.379	416.037	376.026	366.750	0.0006519	0.00028436	4.0456e-05	1347.2	4.3872e-06	6.0249e-06	1346.4	364.82	6.7051e-06	2.2847e-06	414.5	141.56	121.12	42.122	6.1861e-06	52.283	0.00076889	0.00071781	0.00018273	1371.5	8.4397e-06	7.7203e-06	1376.7	374.18	8.3986e-06	7.643e-06	427.12	145.83	126.06	43.734	7.1852e-06	54.361	144.546	212.826	405.055	90.052	254.429	325.496	89.898	94.754	215.234	428.503	94.084	98.579	99.186	103.995	241.107	103.168	-8191	255	
1470.981	1	1	0	0	0.036013	0.23674	0.20015	0.18057	0.22848	0.23482	0.072478	0.086568	0.20019	0.15504	0.11869	0.48946	0.20653	0.19803	0.21495	0.16614	-1.6063	-1.9958	-2.3896	-2.1667	-2.2062	-2.2396	-2.2062	-2.4583	-2.175	-2.0875	-2.4604	-2.1271	-2.4333	-2.1417	-1.8021	-2.4833	236.247	304.666	284.665	378.139	428.289	161.590	402.515	93.262	256.422	273.730	111.455	81.807	347.600	409.085	207.263	281.642	0.00049136	0.0006444	0.00020413	1345.1	2.8213e-06	2.8896e-06	1351.3	366.1	8.9926e-06	3.2521e-06	417.25	141.5	121.27	42.1	6.4061e-06	52.413	0.00074815	0.00068357	0.00017735	1374.4	8.2631e-06	7.41e-06	1374.9	375.42	8.0881e-06	7.4786e-06	428.19	146.61	125.62	43.657	7.2214e-06	54.64	156.646	181.535	173.955	90.070	298.602	111.569	89.955	94.875	231.596	380.901	94.436	98.605	98.996	103.686	248.266	102.906	-8191	255	
1471.076	1	1	0	0	0.10277	0.15011	0.25093	0.21857	0.23657	0.26355	0.084105	0.30088	0.062114	0.19029	0.22905	0.17984	0.32007	0.22769	0.1365	0.15	-1.7167	-2.0062	-2.325	-2.125	-2.2604	-2.2854	-2.275	-2.5167	-2.0708	-1.9354	-2.4896	-2.0354	-2.2771	-2.4313	-1.9312	-2.2896	180.501	139.164	182.728	332.735	237.851	127.734	383.015	424.971	389.814	200.828	133.363	371.260	404.360	397.777	91.464	354.141	0.00044947	0.00027188	0.00010449	1347.5	2.7334e-06	4.1927e-06	1353.8	364.55	6.1752e-06	2.8044e-06	416.7	141.21	121.43	42.324	6.9624e-06	52.436	0.00072532	0.00067172	0.00018117	1377.7	7.9398e-06	7.207e-06	1377.9	375.24	7.736e-06	7.2258e-06	428.34	146.71	125.44	43.644	7.4046e-06	54.769	164.486	225.833	152.092	90.093	396.784	200.864	90.143	94.702	222.030	393.183	94.361	98.625	99.133	103.590	251.462	102.769	-8191	255	
1471.172	1	1	0	0	0.026377	0.1607	0.031388	0.33585	0.26854	0.16284	0.15182	0.17149	0.20327	0.017392	0.1823	0.35058	0.1219	0.18577	0.17726	0.018663	-1.9937	-1.85	-2.25	-2.2292	-2.1937	-2.35	-2.1604	-2.4479	-2.2375	-2.0563	-2.6083	-2.175	-2.3333	-2.5812	-2.2687	-2.2396	269.901	290.956	353.388	369.044	394.495	89.187	356.885	129.811	367.544	308.839	326.833	419.323	144.904	85.395	380.647	92.840	0.00047565	0.00058291	0.00022856	1344.5	3.8772e-06	7.9829e-06	1347.1	366.28	1.0783e-06	9.7633e-07	417.43	141.29	121.39	42.009	3.2492e-06	52.35	0.00067778	0.00065229	0.00018799	1376.6	7.5574e-06	7.0004e-06	1379.3	376.13	7.444e-06	7.0771e-06	430.68	146.67	125.14	43.555	7.9728e-06	54.621	151.412	167.500	196.586	90.184	322.638	203.591	90.011	94.812	147.668	138.997	94.262	98.362	99.267	103.730	187.802	103.009	-8191	255	
1471.268	1	1	0	0	0.14598	0.25945	0.11339	0.48525	0.11962	0.18506	0.26605	0.3207	0.043267	0.11275	0.31708	0.3544	0.21779	0.26293	0.21972	0.024291	-1.9521	-2.0687	-2.35	-2.2833	-2.1833	-2.2479	-2.1667	-2.5312	-2.3646	-2.0417	-2.4479	-2.3875	-2.0833	-2.5875	-1.8875	-2.3375	99.026	334.982	328.122	404.443	369.905	207.501	369.309	405.138	241.417	153.793	351.608	382.017	123.071	400.726	255.731	361.688	0.00053555	9.7482e-05	0.00033712	1342.9	3.5022e-06	6.3315e-06	1347.1	365.56	5.4215e-06	8.1979e-07	417.39	140.73	121.05	42.011	7.9689e-06	52.408	0.00066175	0.00064479	0.00020267	1374.9	7.3694e-06	6.9504e-06	1380.5	375.46	7.224e-06	7.1183e-06	431.27	145.98	124.95	43.633	8.3346e-06	54.568	152.627	212.194	148.936	90.242	201.578	193.116	89.978	94.687	220.662	313.024	94.170	98.592	99.400	103.865	200.872	103.269	-8191	255	
1471.364	1	1	0	0	0.28823	0.11366	0.23973	0.16708	0.18243	0.29687	0.19387	0.41636	0.15996	0.13022	0.045222	0.23288	0.19479	0.2007	0.15743	0.14777	-1.9479	-1.9521	-2.4271	-2.4396	-2.0146	-2.2521	-2.2708	-2.0792	-2.3625	-1.875	-2.4958	-2.3354	-1.875	-2.5208	-2.0896	-1.9646	427.331	326.367	418.147	209.892	201.749	267.914	384.128	368.959	197.813	253.802	250.199	403.065	384.868	100.820	266.971	395.251	0.00057252	0.00048054	0.00026308	1346	6.547e-06	7.3003e-06	1350.3	365.03	2.8923e-06	1.2666e-05	417.85	141.16	121.55	42.123	4.5666e-06	52.555	0.00065547	0.00067539	0.00021555	1374.2	7.2948e-06	7.404e-06	1382.5	374.8	7.1414e-06	7.565e-06	432.82	146.02	125.24	43.805	8.4253e-06	54.503	151.388	123.948	394.996	90.174	245.847	190.708	89.871	94.876	235.832	188.151	94.108	98.688	99.147	103.641	180.328	103.174	-8191	255	
1471.460	1	1	0	0	0.16715	0.083516	0.067327	0.22769	0.1737	0.11119	0.26089	0.56028	0.1893	0.15181	0.046065	0.19387	0.27205	0.089567	0.025778	0.14983	-1.8208	-2.0708	-2.3708	-2.4875	-1.8458	-2.3396	-2.175	-2.3125	-2.3979	-2.1479	-2.3375	-2.5333	-2.0917	-2.3875	-2.1229	-2.0396	295.275	334.795	168.140	400.605	365.971	94.820	310.385	425.586	412.864	430.253	411.685	362.885	393.696	384.697	233.025	108.930	0.00058094	0.00065432	0.00036552	1347.9	5.7171e-06	5.1214e-06	1347.7	365.44	3.6223e-06	9.0114e-06	418.95	141.47	121.92	42.363	5.0088e-06	52.522	0.00063958	0.00070826	0.00021326	1374.5	7.1381e-06	7.8881e-06	1383.4	375.08	6.9551e-06	7.9937e-06	432.33	146.18	125.51	44.122	7.8943e-06	54.48	154.720	123.085	161.696	90.023	213.863	188.662	89.847	94.743	229.458	193.222	94.356	98.588	99.144	103.727	210.267	103.077	-8191	255	
1471.557	1	1	0	0	0.32774	0.25448	0.45027	0.15954	0.07491	0.21594	0.27538	0.39217	0.32148	0.13111	0.32081	0.12018	0.23945	0.28817	0.092735	0.34972	-1.9917	-2.0229	-2.2083	-2.4083	-1.8917	-2.4208	-2.4125	-2.0271	-2.4396	-2.1958	-2.2958	-2.4292	-1.9937	-2.6146	-2.2062	-2.2646	196.135	363.402	317.742	334.258	436.274	127.515	377.998	345.719	127.006	359.241	180.990	321.544	416.324	321.329	244.822	357.462	0.00054574	0.00034015	0.00017746	1347	7.2351e-06	7.7913e-06	1351.2	366.16	5.3903e-06	8.6524e-06	417.54	141.32	121.97	42.103	2.3475e-06	52.319	0.00063019	0.00073471	0.00019911	1370.5	7.0949e-06	8.1443e-06	1379.1	374.32	7.0932e-06	8.2603e-06	431.07	145.55	125.56	44.055	7.618e-06	54.207	159.100	128.532	156.737	90.251	229.109	175.819	89.828	94.929	187.703	262.413	94.039	98.487	99.037	103.771	271.208	102.926	-8191	255	
1471.677	1	1	0	0	0.10613	0.21416	0.24434	0.10535	0.026206	0.16472	0.15338	0.23066	0.12534	0.1985	0.13629	0.27228	0.29773	0.12386	0.11972	0.17047	-2.0208	-2.1854	-2.1937	-2.7333	-2.0896	-2.3104	-2.5833	-2.2958	-2.6188	-1.8875	-2.3021	-2.5625	-2.1792	-2.4604	-2.3563	-2.1437	204.457	286.234	183.432	429.024	215.300	425.683	414.022	364.215	105.403	170.558	292.596	92.607	405.408	312.755	181.597	251.147	0.00061081	6.0695e-05	0.00013177	1342.1	6.7673e-06	2.9961e-06	1347.3	365.88	9.2113e-06	6.2926e-06	418.39	142.1	121.94	42.289	7.7683e-06	52.441	0.0006728	0.00075911	0.00019337	1368.4	7.5022e-06	8.2366e-06	1376.5	373.52	7.5566e-06	8.1219e-06	429.65	145.47	125.84	44.053	7.1749e-06	54.119	158.712	82.927	197.095	90.066	248.498	182.113	89.887	94.889	190.675	205.970	94.231	98.594	99.126	103.792	184.515	103.054	-8191	255	
1471.773	1	1	0	0	0.15957	0.14616	0.050199	0.28769	0.0045858	0.28768	0.087569	0.22261	0.30121	0.15341	0.16924	0.20377	0.069858	0.084054	0.11914	0.24012	-1.9708	-2.0812	-1.9646	-2.625	-1.9958	-2.3438	-2.3917	-2.1771	-2.3875	-2.2104	-2.05	-2.625	-2.1917	-2.4167	-2.425	-2.0792	181.248	140.335	254.459	415.005	235.127	249.438	332.857	380.583	235.872	245.273	389.226	332.227	96.182	167.761	324.060	302.086	0.00059192	0.00033148	7.8394e-05	1345.4	7.8389e-06	8.6713e-07	1349.9	366.17	5.8785e-06	4.4471e-06	417.8	142.41	121.93	42.449	6.2662e-06	52.723	0.00069087	0.00070808	0.00018163	1364.3	7.5815e-06	7.4974e-06	1375.6	373.37	7.5291e-06	7.2238e-06	427.66	145.76	125.9	43.943	6.3997e-06	54.243	152.669	128.603	189.059	89.984	220.357	256.070	89.936	94.890	249.635	281.469	94.415	98.445	99.142	103.634	159.412	102.640	-8191	255	
1471.870	1	1	0	0	0.093623	0.15058	0.20277	0.073434	0.25563	0.076284	0.30045	0.28051	0.22847	0.15397	0.18889	0.22505	0.045002	0.16269	0.087099	0.13498	-1.9958	-2.2792	-2.05	-2.5062	-2.2521	-2.0563	-2.4375	-2.2021	-2.2875	-2.0667	-2.1375	-2.5542	-2.1562	-2.1021	-2.3375	-2.0667	314.079	249.776	148.026	87.133	144.670	89.380	345.997	425.237	202.795	119.617	411.074	95.505	389.796	276.079	334.173	90.242	0.00064062	0.00034655	0.00016856	1346.9	3.1436e-06	4.2223e-06	1349.5	365.48	1.869e-06	3.7663e-06	418.19	142.87	122.07	42.444	3.6246e-06	52.37	0.00066091	0.00061281	0.00016172	1365.6	7.1949e-06	6.6347e-06	1368.5	372.62	7.2893e-06	6.5132e-06	426.47	146.22	125.83	43.795	6.2568e-06	54.317	144.187	178.592	146.302	90.128	207.028	100.800	90.025	94.873	167.895	230.918	94.295	98.607	99.376	103.427	196.669	103.150	-8191	255	
1471.966	1	1	0	0	0.16542	0.22554	0.088936	0.12463	0.15335	0.13803	0.19739	0.21844	0.11376	0.23312	0.081557	0.19399	0.25882	0.22533	0.035761	0.10872	-1.6646	-2.2458	-1.9292	-2.4333	-2.1792	-2.0042	-2.5917	-2.2396	-2.2729	-2.3083	-2.0542	-2.4792	-2.2313	-2.1667	-2.2917	-1.9979	231.358	359.354	187.596	168.038	268.525	78.407	378.515	348.223	137.422	138.706	390.748	270.984	415.288	134.103	160.456	117.364	0.00053857	0.00012414	0.00022161	1343.9	3.0603e-07	4.1871e-06	1347.8	364.34	3.3565e-06	7.7968e-06	417.44	142.49	122.16	42.593	6.0879e-06	52.667	0.00067298	0.00061064	0.00016153	1366.8	7.3501e-06	6.7071e-06	1369.8	373.87	7.3893e-06	6.7035e-06	426.85	146.78	125.85	43.871	6.3109e-06	54.624	161.370	258.370	194.963	90.164	431.478	225.990	90.028	94.741	154.018	174.089	94.368	98.823	99.142	103.737	222.491	102.698	-8191	255	
1472.062	1	1	0	0	0.39905	0.13794	0.042676	0.1676	0.21935	0.062592	0.31232	0.31636	0.21944	0.18342	0.3084	0.089532	0.19394	0.090935	0.17125	0.20612	-1.9042	-2.3438	-1.9062	-2.6479	-2.1583	-2.0729	-2.4188	-2.1833	-2.0563	-2.2188	-2.0625	-2.2646	-2.2396	-2.0833	-2.2083	-2.1979	186.616	271.816	320.711	384.152	187.303	424.724	328.097	428.512	159.259	344.751	343.351	432.456	83.119	433.508	135.316	412.587	0.0004557	0.00047806	0.00019057	1346.6	5.1038e-06	3.2159e-06	1345.7	366.41	1.6693e-06	8.0744e-06	420.01	142.87	122.04	42.525	6.3388e-06	52.663	0.00065504	0.00058908	0.00016506	1372.1	7.0103e-06	6.5344e-06	1367.6	374.99	6.9027e-06	6.1946e-06	426.95	147.13	125.25	43.748	6.3208e-06	54.568	160.251	234.566	194.532	90.223	225.620	207.154	89.880	94.619	141.921	235.436	94.241	98.575	99.494	103.652	185.135	103.134	-8191	255	
1472.158	1	1	0	0	0.03878	0.13464	0.13847	0.20538	0.16729	0.23339	0.074026	0.10453	0.14008	0.15205	0.030389	0.37244	0.25561	0.33847	0.17918	0.18521	-1.7625	-2.1958	-1.9375	-2.4146	-2.2	-1.7854	-2.4271	-2.2417	-1.9646	-2.4771	-2.1354	-2.4708	-2.2188	-2.0854	-2.3208	-2.0521	353.828	241.436	422.629	86.857	151.533	423.818	401.192	429.872	187.949	322.859	344.096	388.557	89.384	431.743	138.827	92.814	0.00054206	0.00046326	0.00030267	1344.3	1.0485e-06	9.2336e-07	1351	366.34	1.9573e-06	3.4347e-06	418.97	142.65	122.02	42.813	8.687e-06	52.699	0.00060505	0.00055033	0.00016452	1370.5	6.3485e-06	6.0416e-06	1372.5	374.21	6.3483e-06	5.8825e-06	428.35	147.07	125.2	43.843	6.6267e-06	54.478	151.620	208.506	143.708	90.099	214.494	197.811	90.212	94.863	250.194	253.748	94.148	98.675	99.189	103.486	205.632	102.911	-8191	255	
1472.277	1	1	0	0	0.31447	0.14679	0.12783	0.30573	0.13692	0.089898	0.20483	0.16251	0.088953	0.025663	0.28335	0.17118	0.119	0.15244	0.066529	0.2494	-1.5729	-2.1896	-2.0687	-2.3063	-2.425	-1.9458	-2.6042	-2.1854	-2.1354	-2.5042	-2.1437	-2.1958	-2.4188	-2.1146	-2.2979	-2.2438	180.734	413.137	341.818	410.901	302.634	129.402	420.599	300.918	385.590	278.356	424.852	126.026	137.309	116.467	139.352	187.017	0.00045997	0.00026175	0.00015007	1348.9	1.026e-06	3.666e-06	1345.9	364.07	2.2162e-06	7.8079e-06	417.84	141.99	122.55	42.638	7.8305e-06	52.771	0.00057519	0.00053471	0.00017339	1369.3	6.1475e-06	6.0385e-06	1374.9	373.37	6.2407e-06	5.9772e-06	428.92	146.44	125.12	43.745	7.0446e-06	54.377	163.581	220.225	169.336	90.285	187.857	380.602	90.061	94.572	240.888	193.429	94.516	98.808	99.043	103.742	196.763	102.968	-8191	255	
1472.373	1	1	0	0	0.28432	0.14163	0.065883	0.17167	0.2448	0.13794	0.03387	0.2482	0.17746	0.039379	0.18834	0.080517	0.18622	0.30074	0.068599	0.24502	-1.7167	-2.4167	-2.3438	-2.1667	-2.3312	-1.9146	-2.5438	-2.3104	-1.9167	-2.5229	-2.2792	-2.2979	-2.625	-2.0771	-2.2521	-2.3688	367.208	302.160	199.705	397.195	290.596	212.166	322.123	395.416	178.323	159.498	427.552	154.392	380.962	351.818	413.067	377.872	0.00055657	0.0005335	0.00010613	1347.9	1.437e-06	5.8449e-06	1347.6	365.71	2.0985e-06	1.132e-05	417.71	142.82	122.66	42.717	6.1602e-07	52.378	0.00056505	0.00055886	0.00018055	1367.6	6.0173e-06	6.2973e-06	1375.4	372.72	6.0461e-06	6.2166e-06	428.23	145.98	124.94	43.783	7.0033e-06	54.085	158.340	179.122	169.885	90.127	295.610	262.371	90.069	94.968	131.471	195.719	94.144	98.540	99.259	103.570	213.750	102.811	-8191	255	
1472.469	1	1	0	0	0.090036	0.1988	0.3111	0.39741	0.18938	0.28465	0.22008	0.25233	0.15184	0.14408	0.20669	0.08001	0.33874	0.097871	0.088008	0.2204	-1.4833	-2.3958	-2	-2.2042	-2.6146	-1.9354	-2.2708	-2.4813	-1.8438	-2.2667	-2.4562	-2.1458	-2.4813	-2.0542	-2.2229	-2.4521	284.699	217.957	177.531	393.352	115.366	114.982	394.975	383.932	221.786	393.602	407.097	220.414	306.023	409.731	289.349	381.897	0.00053935	0.0005108	3.3544e-05	1344	7.2826e-06	3.8918e-06	1349.5	366.12	3.5942e-06	7.4486e-06	418.08	141.86	122.12	42.822	3.4654e-06	52.371	0.00054313	0.00058728	0.00017556	1364.4	5.8334e-06	6.6499e-06	1374.1	371.89	5.9368e-06	6.5864e-06	427.3	145.6	124.61	43.955	6.7497e-06	53.91	159.825	188.014	122.205	90.045	232.050	178.818	89.964	94.592	255.528	211.969	94.245	98.664	99.273	103.531	215.182	102.953	-8191	255	
1472.541	1	1	0	0	0.16276	0.08537	0.43475	0.21553	0.28263	0.12848	0.26929	0.046501	0.13288	0.17095	0.086459	0.27564	0.067918	0.029059	0.21357	0.23542	-1.6083	-2.2292	-2.2104	-2.1854	-2.4375	-2.0312	-2.6021	-2.4083	-1.8354	-2.4167	-2.3521	-2.2604	-2.5417	-2.1188	-2.1937	-2.5542	98.491	340.274	270.887	183.151	211.655	158.471	412.429	404.215	123.014	343.673	264.304	81.772	349.955	424.008	139.434	375.732	0.00064936	0.00046161	0.00020122	1344	4.0222e-06	4.353e-06	1346.3	364.44	6.211e-07	2.1735e-06	419.34	142.64	122.38	42.341	4.0259e-06	52.742	0.00054828	0.00062079	0.00016827	1362.7	5.9734e-06	6.9976e-06	1370.9	371.21	6.1109e-06	7.0188e-06	426.29	145.82	124.98	43.924	6.5227e-06	54.093	156.401	147.765	228.317	90.285	177.765	152.883	90.213	94.948	223.065	162.799	94.234	98.613	98.946	103.645	215.770	102.825	-8191	255	
1472.661	1	1	0	0	0.053101	0.48367	0.0879	0.14027	0.10142	0.19378	0.2884	0.048644	0.18831	0.15049	0.26179	0.1929	0.24981	0.087743	0.1613	0.3367	-1.6792	-2.0729	-2.1042	-2.1396	-2.3708	-2.2812	-2.3917	-2.625	-1.8417	-2.3479	-2.2604	-2.0771	-2.4896	-2.1583	-2.0563	-2.5354	121.084	296.548	124.764	389.225	255.186	308.448	388.738	209.499	282.830	175.831	350.598	110.078	381.081	432.312	156.932	395.433	0.0005951	0.00076205	0.00021452	1343.4	4.6494e-06	6.9859e-06	1344.4	364.51	7.9966e-06	5.4801e-06	417.04	142.52	122.42	42.493	4.0795e-06	52.549	0.00057966	0.0006385	0.00015947	1359.5	6.3001e-06	6.9339e-06	1368.3	370.76	6.4333e-06	6.8665e-06	425.79	145.72	125.44	43.983	6.1679e-06	54.001	146.167	218.829	192.241	90.190	296.313	166.894	90.293	94.888	195.209	222.668	94.311	98.736	99.093	103.655	317.236	102.937	-8191	255	
1472.758	1	1	0	0	0.16656	0.23404	0.25905	0.19288	0.17438	0.22936	0.38091	0.2776	0.041045	0.1275	0.046794	0.01953	0.17232	0.063174	0.21022	0.32246	-1.4729	-2.2	-2.225	-2.0771	-2.4125	-2.1688	-2.4313	-2.5292	-1.8604	-2.0438	-2.4542	-2.1188	-2.4792	-2.3875	-2.0604	-2.6688	188.096	78.867	267.193	102.154	163.223	248.837	379.077	324.005	283.119	141.314	404.423	347.412	310.363	152.044	369.483	411.018	0.00062738	0.0003723	0.00018138	1341.1	4.8908e-06	1.0753e-06	1348.9	366.01	1.9612e-06	6.079e-06	417.48	143.11	122.54	42.592	1.8988e-06	52.834	0.00059795	0.00060716	0.00015281	1361.4	6.5944e-06	6.58e-06	1369.8	371.72	6.7906e-06	6.6045e-06	425.37	145.93	125.94	43.928	6.0845e-06	54.088	152.319	153.442	174.918	90.175	234.395	425.723	90.038	94.799	223.685	218.091	94.362	98.727	99.207	103.384	232.037	103.086	-8191	255	
1472.854	1	1	0	0	0.32309	0.16566	0.15048	0.35411	0.17419	0.31129	0.10699	0.3958	0.1389	0.12268	0.081576	0.41551	0.23629	0.23058	0.24293	0.41963	-1.5833	-2.05	-2.3479	-2.0875	-2.3958	-2.3333	-2.2479	-2.4146	-2.2146	-2.1458	-2.4938	-1.9792	-2.4333	-2.3229	-2.0187	-2.5687	141.409	110.608	145.343	98.542	105.848	278.594	322.319	390.857	186.211	353.019	84.217	356.081	416.355	85.484	294.263	365.299	0.00048764	0.00058247	0.00016436	1348.9	1.4565e-06	4.9813e-06	1348.6	365.26	6.6947e-06	3.7994e-06	417.55	142.77	122.03	42.567	4.5266e-06	52.652	0.00063771	0.0006027	0.0001543	1365	7.0216e-06	6.4669e-06	1368.8	372.33	7.0643e-06	6.4306e-06	425.26	145.96	125.8	43.755	6.0993e-06	54.158	149.598	222.512	140.796	90.141	187.167	169.048	89.863	94.985	218.904	238.497	94.129	98.791	99.227	103.659	187.855	102.769	-8191	255	
1472.950	1	1	0	0	0.12599	0.051437	0.1948	0.13891	0.090354	0.1299	0.078503	0.084636	0.22452	0.066949	0.23355	0.092324	0.3225	0.36357	0.10757	0.028217	-1.7729	-1.9708	-2.2083	-2.2875	-2.4437	-2.3229	-2.2083	-2.4625	-2.1771	-2.0875	-2.4854	-2.2479	-2.275	-2.4417	-2.0104	-2.3812	352.208	200.244	163.861	430.872	406.071	310.434	399.075	407.330	151.879	222.854	88.262	368.688	434.539	435.110	108.069	151.955	0.00059879	0.00038641	0.00015509	1339.4	2.0919e-06	5.8776e-06	1351.1	364.47	4.5493e-06	4.7827e-06	417.12	142.04	121.26	42.241	8.1034e-06	52.594	0.00063731	0.0005841	0.00015094	1365.1	6.9734e-06	6.333e-06	1366.7	371.72	6.9281e-06	6.3517e-06	423.74	146.07	125.13	43.585	6.1345e-06	54.294	157.646	102.564	232.979	90.097	267.758	210.786	90.077	94.909	343.008	280.065	94.129	98.459	99.226	103.843	198.326	102.679	-8191	255	
1473.069	1	1	0	0	0.063254	0.16842	0.089164	0.19764	0.22315	0.22468	0.0063045	0.25013	0.20338	0.080307	0.032871	0.12441	0.27716	0.35494	0.17744	0.015722	-1.9271	-2.0167	-2.3563	-2.2875	-2.2625	-2.3583	-2.1854	-2.4271	-1.9833	-2.0146	-2.3979	-2.2333	-2.2479	-2.5854	-1.975	-2.425	193.897	215.920	386.881	78.717	170.328	221.794	159.412	332.631	250.538	191.264	83.567	92.568	270.244	426.385	345.156	162.106	0.00050477	0.00024256	0.00022812	1344.3	3.725e-06	2.0537e-06	1350.7	363.58	1.1063e-06	7.0382e-06	415.18	142.56	121.86	42.568	4.5592e-06	52.841	0.00062509	0.00057512	0.0001534	1367.8	6.8094e-06	6.1989e-06	1369.2	373.1	6.6426e-06	6.1944e-06	424.1	146.69	125.07	43.716	6.3036e-06	54.484	161.116	234.078	108.789	90.041	310.409	226.944	90.055	94.790	224.686	216.168	94.345	98.775	99.091	103.671	201.709	102.821	-8191	255	
1473.165	1	1	0	0	0.15335	0.03015	0.10422	0.4923	0.089318	0.15118	0.16172	0.14834	0.13226	0.22717	0.1801	0.22802	0.12673	0.2316	0.060265	0.25161	-1.7083	-1.85	-2.4062	-2.1896	-2.1479	-2.4354	-2.2875	-2.4604	-2.2146	-2.0417	-2.5375	-2.0312	-2.0896	-2.6229	-1.9271	-2.3146	316.238	134.698	268.236	391.599	263.998	237.059	344.423	352.626	285.094	434.711	364.493	381.641	335.978	121.205	149.232	84.464	0.00053874	0.00052965	0.00037834	1348.5	4.3463e-06	5.2793e-06	1349.5	364.6	4.0565e-06	5.6297e-06	418.04	142.19	122.56	42.544	5.7224e-06	52.635	0.00058224	0.00055249	0.00016091	1368.5	6.3722e-06	5.8703e-06	1371.1	373.01	6.2418e-06	5.9167e-06	426.62	146.63	125.11	43.61	6.6984e-06	54.501	158.273	200.031	113.673	90.212	218.143	239.295	90.013	94.780	245.993	141.678	94.171	98.600	99.266	103.626	222.111	102.989	-8191	255	
1473.238	1	1	0	0	0.19956	0.1914	0.023718	0.40868	0.11362	0.013825	0.28908	0.21518	0.10532	0.27298	0.23421	0.20581	0.1433	0.17299	0.19585	0.32305	-1.9312	-2.0125	-2.2812	-2.125	-2.1229	-2.3292	-2.2167	-2.4146	-2.3563	-2.0563	-2.5271	-2.2313	-2.1979	-2.5354	-2.075	-2.2604	142.389	119.282	428.946	383.790	234.984	244.527	342.726	402.309	373.225	242.290	383.786	391.864	315.373	434.257	177.000	382.024	0.00052517	0.00045063	0.00026653	1344.8	5.33e-06	2.1719e-06	1346.9	363.97	2.4279e-06	3.6874e-06	418.83	142.5	122.3	42.524	9.7869e-06	52.639	0.00056854	0.00054952	0.0001713	1366.3	6.2322e-06	5.9346e-06	1372.2	372.44	6.1777e-06	6.0549e-06	428.26	146.3	125.17	43.636	7.1369e-06	54.276	151.583	156.744	157.722	90.076	251.850	145.757	90.061	94.967	169.202	210.418	94.105	98.438	99.266	103.497	173.435	103.245	-8191	255	
1473.357	1	1	0	0	0.31832	0.023116	0.266	0.07516	0.22281	0.27112	0.26629	0.25678	0.055564	0.069158	0.2689	0.098158	0.050809	0.19464	0.12439	0.16841	-1.7854	-2.0083	-2.4083	-2.275	-2.1208	-2.5	-2.3521	-2.2333	-2.1688	-1.9771	-2.4104	-2.2458	-2.1875	-2.5875	-2.3354	-2.1479	135.539	279.039	276.754	108.957	141.057	339.018	371.859	396.210	234.615	251.772	94.313	112.855	278.108	412.276	385.965	356.957	0.00055189	0.00059707	0.0002091	1342.9	3.142e-06	4.7648e-06	1345.6	364.39	5.6137e-06	3.35e-06	416.74	142.26	122.1	42.595	9.3993e-06	52.443	0.0005528	0.0005646	0.00018245	1364.8	6.1978e-06	6.1578e-06	1373.3	372.46	6.0797e-06	6.4257e-06	428.34	146.18	124.88	43.777	7.0909e-06	54.166	156.602	224.454	179.080	90.180	250.146	168.872	90.058	94.908	221.447	208.550	94.180	98.434	98.957	103.511	225.197	102.633	-8191	255	
1473.453	1	1	0	0	0.28448	0.19782	0.33387	0.057945	0.16804	0.1518	0.38323	0.53792	0.21697	0.2563	0.19669	0.068703	0.29599	0.32735	0.03933	0.089715	-1.8958	-1.9396	-2.1562	-2.4583	-1.9833	-2.4917	-2.3521	-2.2271	-2.5729	-2.1625	-2.2021	-2.3063	-1.9438	-2.5312	-2.1125	-2.1604	176.389	181.202	263.474	112.042	181.543	164.704	360.091	355.834	429.093	275.277	406.681	372.891	384.168	404.980	276.239	395.477	0.00050545	0.00077307	0.00019567	1340.7	6.0365e-06	1.0186e-05	1349.5	363.81	7.3807e-06	7.5072e-06	416.19	142.3	122.13	42.428	5.9081e-06	52.637	0.0005464	0.00060528	0.00017984	1363.2	6.053e-06	6.7356e-06	1374.1	371.65	5.9546e-06	6.8529e-06	427.45	145.67	124.75	43.809	6.8697e-06	54.204	162.467	172.606	145.922	90.159	234.047	205.775	89.724	94.775	220.648	161.150	94.131	98.507	99.443	103.494	163.056	103.021	-8191	255	
1473.550	1	1	0	0	0.074682	0.11493	0.03744	0.16845	0.093343	0.33808	0.28022	0.20735	0.044577	0.0564	0.086629	0.20152	0.34189	0.19988	0.090426	0.18085	-1.8833	-1.9042	-2.075	-2.5083	-2.0062	-2.225	-2.1979	-2.0333	-2.5208	-2.1646	-2.4313	-2.65	-2.1083	-2.4583	-2.0354	-1.8854	315.795	221.462	211.594	106.903	101.655	279.882	360.908	84.746	370.717	155.970	146.609	414.206	418.935	428.267	176.999	367.421	0.00057199	0.00022952	3.5295e-05	1341.1	2.9028e-06	5.6837e-06	1346	364.64	6.8625e-06	3.6635e-06	418.03	142.02	122.03	42.593	4.952e-06	52.338	0.00054898	0.00064683	0.00017637	1361.8	6.1794e-06	7.1481e-06	1371	371.62	6.2143e-06	7.2092e-06	426.7	145.2	124.8	43.98	6.5458e-06	54.03	161.011	271.179	347.076	90.053	174.068	207.287	90.102	94.800	194.390	221.739	94.362	98.576	99.141	103.547	161.280	103.161	-8191	255	
1473.670	1	1	0	0	0.11542	0.093149	0.036109	0.27478	0.24734	0.36803	0.32311	0.36689	0.21874	0.23986	0.23815	0.14788	0.12022	0.16341	0.16956	0.19369	-2.0083	-2.0187	-2.1521	-2.5417	-1.9042	-2.3646	-2.3271	-2.0062	-2.3958	-2.0125	-2.3417	-2.4396	-2.05	-2.4167	-2.1312	-2.0062	295.615	414.651	262.922	410.468	432.704	385.647	390.167	385.622	93.017	279.782	151.895	400.173	320.498	430.578	162.106	401.621	0.00053606	0.00084363	8.151e-05	1341.6	5.3797e-06	3.4978e-06	1341.3	364.62	9.2757e-06	4.735e-06	417.35	142.11	122.23	42.326	6.5506e-06	52.398	0.00058109	0.00065793	0.00016715	1359.5	6.548e-06	7.1915e-06	1365.5	371.28	6.586e-06	7.1244e-06	425.47	145.28	125.26	43.836	6.3909e-06	53.89	154.529	205.625	165.861	90.162	218.711	186.632	89.788	94.671	196.518	149.862	94.168	98.604	98.946	103.701	280.239	102.848	-8191	255	
1473.766	1	1	0	0	0.14187	0.248	0.13113	0.37156	0.040583	0.17868	0.29502	0.10611	0.23486	0.22916	0.26272	0.23288	0.23636	0.18593	0.13955	0.049656	-2.0354	-2.1146	-1.9521	-2.5625	-1.9542	-2.1167	-2.4437	-2.1771	-2.4479	-2.2875	-2.2333	-2.4979	-2.2188	-2.1771	-2.2417	-2.1375	96.923	301.514	179.821	427.107	251.215	369.827	370.753	360.208	222.766	328.582	414.851	185.962	427.244	357.299	202.661	264.994	0.00069731	0.00046889	0.00011717	1342.7	9.0278e-06	6.0093e-06	1344.8	364.32	6.7142e-06	3.4174e-06	416.42	141.84	121.81	42.384	2.2641e-06	52.324	0.00062714	0.00063775	0.00016517	1360.4	6.9894e-06	7.0057e-06	1365.8	371.13	7.061e-06	6.8745e-06	425.08	145.58	125.48	43.798	6.2912e-06	54.078	157.154	245.144	336.927	90.230	241.727	192.402	90.098	94.847	249.597	235.258	94.401	98.756	99.310	103.816	114.393	103.200	-8191	255	
1473.838	1	1	0	0	0.18321	0.16989	0.056108	0.34474	0.19465	0.12786	0.27343	0.24389	0.10389	0.25558	0.1328	0.13023	0.036658	0.09364	0.1835	0.090991	-2.0917	-2.1958	-1.9208	-2.6333	-2.1479	-2.2833	-2.3729	-2.125	-2.4667	-2.3646	-2.0563	-2.4417	-2.3229	-2.3521	-2.4229	-2.375	123.194	151.958	233.154	342.158	404.698	299.133	371.178	347.883	102.737	236.777	368.762	378.695	114.901	107.846	424.698	302.661	0.00059734	2.9327e-05	0.00017073	1343.8	4.4468e-06	7.328e-06	1341.8	363.61	5.3509e-06	2.8857e-06	415.51	142.13	121.58	42.341	7.1806e-06	52.366	0.0006664	0.00062122	0.00016303	1361.8	7.4171e-06	6.8725e-06	1366.1	371.84	7.4945e-06	6.8e-06	425.15	145.73	125.66	43.758	6.452e-06	54.245	152.647	369.408	342.375	90.155	239.060	183.389	90.066	94.812	236.902	305.700	94.182	98.708	99.384	103.906	225.213	102.756	-8191	255	
1473.959	1	1	0	0	0.11172	0.26695	0.087192	0.1339	0.017407	0.17962	0.089597	0.13729	0.17631	0.090126	0.23973	0.20249	0.37609	0.28954	0.14094	0.24383	-1.7354	-2.2646	-2.0438	-2.5854	-2.1792	-2.1021	-2.4229	-2.1813	-2.3	-2.3354	-2.2188	-2.3417	-2.4646	-2.1229	-2.6458	-2.4875	380.461	332.579	183.808	319.869	273.899	338.098	285.845	370.783	279.389	294.539	414.464	344.796	374.707	375.630	428.738	341.358	0.00045569	0.00049023	0.0002225	1340.1	1.9478e-06	8.6278e-06	1343.7	363.55	2.3118e-06	5.8993e-06	415.35	141.91	121.17	42.232	3.8615e-06	52.421	0.00068844	0.00062141	0.00016697	1366.3	7.5221e-06	6.826e-06	1366.6	372.74	7.5344e-06	6.7922e-06	424.83	145.95	125.22	43.631	6.4952e-06	54.414	166.888	189.006	122.567	90.108	345.887	199.135	90.025	94.954	398.389	240.723	94.362	98.401	99.100	103.607	206.737	102.994	-8191	255	
1474.055	1	1	0	0	0.23635	0.29242	0.064761	0.34061	0.21488	0.2482	0.2389	0.32195	0.21967	0.19044	0.11758	0.1684	0.10406	0.24517	0.16242	0.33395	-1.8604	-2.2	-1.9542	-2.4292	-2.2021	-2.0896	-2.6063	-2.1958	-2.1479	-2.4083	-2.0354	-2.5917	-2.4333	-2.2188	-2.3688	-2.1229	350.354	327.194	360.576	403.915	412.711	314.547	347.559	294.094	83.542	436.081	392.572	420.098	323.227	343.979	187.961	399.504	0.00048463	0.00016195	0.00027613	1340.3	2.4894e-06	8.0804e-07	1343.6	361.77	3.2418e-06	7.6635e-06	417.15	140.8	120.99	42.13	6.007e-06	52.16	0.00067271	0.00061118	0.00016913	1366.6	7.2933e-06	6.8183e-06	1365.9	372.87	7.3085e-06	6.6244e-06	425.99	145.97	124.79	43.513	6.9048e-06	54.344	162.444	123.947	177.031	90.020	242.040	356.462	89.868	94.600	286.199	158.825	94.257	98.714	99.156	103.680	210.132	102.890	-8191	255	
1474.149	1	1	0	0	0.055309	0.1414	0.35311	0.1667	0.28036	0.10962	0.19963	0.15959	0.059892	0.23691	0.059506	0.18712	0.19856	0.36086	0.13656	0.21505	-1.6958	-2.4313	-1.925	-2.5125	-2.1562	-2.0312	-2.7708	-2.3979	-1.9792	-2.4292	-2.0938	-2.4354	-2.2833	-1.9479	-2.3354	-2.3604	272.414	244.181	269.538	414.554	351.500	195.804	376.629	317.699	80.315	179.807	244.848	231.298	267.048	316.036	260.069	377.479	0.00050011	0.00041862	0.00024456	1339.7	4.8636e-06	4.6978e-06	1338.6	362.08	5.2321e-06	1.608e-06	414.97	141.2	121.08	42.23	6.1076e-06	52.332	0.00065116	0.00060264	0.00018219	1367.7	7.0489e-06	6.7637e-06	1368.3	372.8	7.1972e-06	6.5377e-06	426.33	146.27	124.69	43.483	7.4858e-06	54.436	158.638	200.601	140.758	89.960	233.317	193.319	90.098	94.903	259.006	280.884	94.229	98.529	99.373	103.642	171.164	102.792	-8191	255	
1474.245	1	1	0	0	0.18925	0.068224	0.17218	0.37706	0.062489	0.12943	0.33873	0.3225	0.11366	0.21682	0.34714	0.12724	0.096957	0.20141	0.21516	0.2393	-1.675	-2.4396	-1.9833	-2.2979	-2.3979	-1.7792	-2.5104	-2.3063	-2.0521	-2.4396	-2.2333	-2.4021	-2.25	-2.0438	-2.3667	-2.3958	316.011	109.325	301.202	366.061	274.584	238.611	368.913	392.442	246.062	148.783	82.553	272.399	311.926	106.665	241.608	317.706	0.00051963	0.0004749	0.00022733	1340.9	3.4447e-06	2.1606e-06	1340.7	361.61	4.0669e-06	8.8374e-06	415.37	140.78	120.73	41.945	7.5118e-06	52.207	0.00063576	0.00060196	0.00019346	1366.9	6.8767e-06	6.7117e-06	1371.4	372.23	7.0205e-06	6.6189e-06	428.21	145.71	124.32	43.465	7.8393e-06	54.178	157.107	194.421	152.421	90.083	188.057	262.089	90.045	95.038	273.942	237.107	94.080	98.853	99.474	103.697	175.668	102.692	-8191	255	
1474.366	1	1	0	0	0.43446	0.20314	0.224	0.094246	0.1382	0.22168	0.19596	0.34607	0.20754	0.037987	0.2021	0.26634	0.13513	0.081389	0.13294	0.19749	-1.5417	-2.4104	-2.1417	-2.3333	-2.3896	-1.9375	-2.475	-2.2146	-2.1104	-2.4708	-2.3104	-2.1458	-2.4479	-2.0104	-2.1937	-2.3896	186.797	345.679	212.773	396.160	101.084	414.303	354.939	395.166	269.207	314.936	424.827	406.221	320.680	421.938	398.973	400.945	0.00053751	0.00060811	8.8844e-05	1335.6	8.2393e-07	8.4758e-06	1341.3	361.65	5.1729e-06	9.0287e-06	414.99	141.11	121	42.238	1.8757e-06	52.07	0.00062755	0.00062015	0.00020199	1365.3	6.7209e-06	6.9833e-06	1372.9	371.23	6.7787e-06	7.034e-06	428.53	145.43	124.29	43.614	7.9028e-06	54.021	152.022	157.724	425.838	89.993	436.874	227.681	90.092	94.909	218.394	196.755	94.413	98.317	99.252	103.654	122.776	102.996	-8191	255	
1474.438	1	1	0	0	0.33251	0.12806	0.19172	0.2248	0.19918	0.12779	0.22673	0.21704	0.31821	0.19548	0.21559	0.15857	0.4088	0.36938	0.16493	0.39722	-1.4854	-2.3646	-2.0667	-2.2833	-2.4792	-2.0771	-2.3563	-2.3187	-1.7917	-2.3229	-2.1583	-1.9562	-2.5854	-2.2333	-2.2771	-2.3063	143.336	119.874	241.500	322.694	350.217	155.383	406.302	426.863	80.691	213.894	99.488	379.653	419.959	104.951	425.060	427.696	0.00053771	0.00059923	0.0002777	1343.1	5.3428e-06	2.7217e-06	1343.9	362.48	7.2479e-06	6.9517e-06	415.37	141.48	120.92	42.178	2.3384e-06	51.997	0.00061086	0.00066339	0.00019835	1365.5	6.6343e-06	7.4936e-06	1371	371.02	6.6722e-06	7.5074e-06	427.45	145.15	124.17	43.735	7.5949e-06	53.897	157.415	99.190	191.047	90.167	255.064	223.465	89.869	94.565	216.189	187.202	94.021	98.614	99.276	103.750	419.949	103.073	-8191	255	
1474.534	1	1	0	0	0.060013	0.17389	0.10694	0.3826	0.26747	0.16047	0.30343	0.2101	0.10036	0.094214	0.078346	0.31624	0.054907	0.24377	0.22421	0.29117	-1.5958	-2.4146	-2.025	-2.2333	-2.4188	-2.1104	-2.2021	-2.6083	-2.0646	-2.45	-2.4604	-1.9375	-2.4188	-2.35	-2.025	-2.3979	152.110	230.917	195.486	424.470	217.616	128.325	427.693	373.360	339.706	90.699	418.350	425.382	77.569	126.660	225.096	344.286	0.00055404	0.00037168	0.00015766	1334.2	7.0978e-06	4.0364e-06	1344	362.42	6.4184e-06	1.111e-06	414.82	141.2	120.57	42.032	4.0025e-06	52.39	0.00060907	0.00070175	0.00018889	1362.1	6.6033e-06	7.7389e-06	1368.6	370.54	6.7191e-06	7.6809e-06	425.83	144.73	124.31	43.759	7.1042e-06	53.815	153.987	168.733	245.823	90.172	241.183	139.562	89.951	94.740	224.218	116.322	94.393	98.533	99.415	103.505	243.839	102.955	-8191	255	
1474.630	1	1	0	0	0.13395	0.14358	0.28995	0.20979	0.1534	0.20674	0.1114	0.24458	0.30919	0.17697	0.132	0.23577	0.17765	0.036376	0.25475	0.30781	-1.8104	-2.1708	-2.2292	-2.3167	-2.4542	-2.1729	-2.5062	-2.5229	-2.0854	-2.2979	-2.4417	-2.0333	-2.5812	-2.2917	-1.9	-2.5292	411.981	134.780	227.102	376.839	356.872	147.328	316.441	415.836	141.900	277.117	412.323	430.839	354.820	307.363	115.688	379.032	0.0006629	0.00059803	0.00030204	1338.8	8.7871e-06	3.8774e-06	1344.6	362.86	7.2102e-06	3.5052e-06	416.18	141.24	121.01	42.206	1.0232e-05	52.299	0.00062693	0.00069847	0.0001749	1359.7	6.8924e-06	7.6842e-06	1368.2	369.99	7.122e-06	7.6053e-06	425.47	144.76	124.75	43.837	6.8871e-06	53.903	154.429	197.684	155.955	89.961	207.774	295.088	89.955	94.874	228.059	241.564	94.471	98.552	99.191	103.661	138.393	103.012	-8191	255	
1474.751	1	1	0	0	0.047851	0.28031	0.15865	0.29239	0.29956	0.28486	0.075814	0.18968	0.13889	0.12501	0.11418	0.069977	0.15826	0.085038	0.16036	0.2478	-1.5938	-2.2313	-2.2896	-2.2708	-2.3083	-2.2667	-2.1542	-2.7417	-2.0354	-2.3312	-2.4437	-2.0333	-2.4229	-2.2938	-2.1312	-2.6771	324.123	266.253	96.445	373.790	124.718	272.146	422.797	122.876	135.477	332.943	122.635	192.522	294.272	336.285	225.844	88.668	0.00066168	0.00040018	0.00029406	1336.4	7.6837e-06	3.1038e-07	1342.6	361.9	7.2356e-06	2.0153e-06	414.55	141.34	121.29	42.045	7.3802e-06	52.192	0.00067556	0.00068822	0.00017388	1359.8	7.4278e-06	7.4537e-06	1366.8	369.71	7.7163e-06	7.3825e-06	424.61	144.71	125.37	43.592	6.7892e-06	53.853	151.455	326.572	229.350	90.150	242.562	405.646	89.893	94.713	242.555	183.461	94.121	98.823	99.260	103.569	164.325	103.047	-8191	255	
1474.847	1	1	0	0	0.09624	0.15066	0.15382	0.20503	0.22332	0.056181	0.27846	0.13426	0.10893	0.36506	0.13512	0.14642	0.074117	0.13662	0.13022	0.12836	-1.7146	-2.1354	-2.2562	-2.0771	-2.3271	-2.3667	-2.1	-2.5521	-2.1792	-2.0875	-2.6333	-1.9917	-2.1583	-2.1604	-2.0146	-2.4479	372.883	296.443	139.147	382.545	205.087	345.359	426.639	378.330	370.885	136.639	405.573	136.970	291.074	123.066	249.190	382.749	0.00062587	0.00064761	8.7379e-05	1341.7	5.3765e-06	4.0612e-06	1341.4	364.28	1.938e-06	1.3663e-06	415	141.67	121.28	42.09	2.0951e-06	52.036	0.00069717	0.0006552	0.00016825	1360.3	7.7472e-06	7.0689e-06	1364.5	371.16	7.7913e-06	7.1109e-06	424.93	145.47	125.44	43.493	6.7118e-06	54.162	154.098	170.743	210.669	90.049	201.551	326.049	90.006	94.914	273.906	203.577	94.202	98.645	99.090	103.614	154.063	103.068	-8191	255	
1474.943	1	1	0	0	0.14748	0.31808	0.16648	0.25384	0.21329	0.14606	0.20271	0.065584	0.079698	0.1296	0.27865	0.14636	0.27542	0.35329	0.27491	0.019512	-1.7062	-2.1542	-2.5479	-2.1	-2.3729	-2.3	-2.1208	-2.6625	-2.1271	-2.0708	-2.6	-2.2062	-2.2646	-2.3292	-1.9542	-2.4	208.535	356.273	154.673	426.742	363.895	333.158	267.609	400.456	311.709	233.940	358.339	407.718	365.582	378.775	122.330	436.466	0.000506	0.00051954	7.7282e-05	1342.8	7.756e-06	9.0468e-06	1345.2	362.68	4.0284e-06	7.4186e-06	414.46	140.65	120.4	42.106	5.1895e-06	52.475	0.00071198	0.00064319	0.00016724	1364.5	7.8132e-06	7.0366e-06	1367.4	371.15	7.7104e-06	7.0793e-06	423.61	145.67	124.91	43.471	6.8334e-06	54.38	153.143	244.231	153.108	90.112	237.607	246.184	90.089	94.736	173.734	245.628	94.326	98.373	99.318	103.442	268.657	103.056	-8191	255	
1475.039	1	1	0	0	0.065015	0.31636	0.258	0.097673	0.17639	0.23743	0.031269	0.30434	0.30232	0.1614	0.12797	0.14645	0.17633	0.17736	0.16117	0.044198	-1.5312	-1.975	-2.2979	-2.075	-2.2833	-2.3354	-2.2146	-2.5354	-2.2354	-2.0896	-2.5312	-2.1833	-2.1958	-2.5687	-2.1417	-2.5042	420.871	105.832	216.262	87.391	195.024	283.392	88.483	124.230	131.028	162.345	423.930	83.958	328.120	257.958	220.955	104.375	0.00055686	0.00017822	9.15e-05	1340.9	2.4693e-06	2.6074e-06	1339.5	361.81	3.1379e-06	4.2863e-06	415.62	141.67	121.1	42.203	8.4423e-06	51.959	0.00067858	0.00063548	0.0001678	1367.6	7.3555e-06	6.6862e-06	1364.3	371.94	7.2974e-06	6.7745e-06	424.21	146.04	124.63	43.39	6.9481e-06	54.336	164.525	195.741	119.086	90.105	220.514	232.974	89.934	94.934	129.886	295.499	94.225	98.820	99.072	103.756	198.573	102.787	-8191	255	
1475.135	1	1	0	0	0.11559	0.2433	0.15506	0.11466	0.11632	0.25962	0.17626	0.10254	0.17427	0.14907	0.1812	0.11313	0.12987	0.082868	0.10244	0.11387	-1.6646	-2.0458	-2.3667	-2.3979	-2.0708	-2.5396	-2.2438	-2.4896	-2.3625	-1.8667	-2.6688	-2.3458	-1.9229	-2.5833	-2.0708	-2.4	322.889	137.972	138.686	406.536	346.345	229.306	421.868	267.060	79.874	296.235	352.765	365.406	172.840	381.517	425.378	300.241	0.00048466	0.00027848	0.00017038	1339.1	2.0839e-06	1.5175e-06	1343.1	362.35	3.3268e-07	6.6995e-06	415.12	141.32	121.09	42.075	1.0669e-05	52.162	0.00064417	0.00061267	0.00017654	1366.1	7.0681e-06	6.5035e-06	1368.4	372.1	6.8313e-06	6.5108e-06	425.4	145.88	124.38	43.365	7.2656e-06	54.271	162.794	177.259	147.089	90.025	170.724	201.077	89.944	94.955	265.194	229.827	94.241	98.504	99.185	103.677	226.675	103.079	-8191	255	
1475.231	1	1	0	0	0.40659	0.084167	0.0066981	0.29649	0.1493	0.13268	0.16601	0.28648	0.18063	0.09524	0.21838	0.23871	0.2106	0.076157	0.34181	0.11069	-2.0938	-1.8667	-2.5396	-2.0896	-2.1771	-2.3542	-2.0854	-2.4479	-2.3063	-1.9125	-2.5667	-2.3542	-2.1146	-2.6854	-2.025	-2.2146	164.515	206.496	306.561	351.986	343.092	252.471	414.901	406.991	266.799	124.156	281.716	95.675	308.028	328.782	124.874	114.246	0.00044419	0.00059087	0.00034117	1334	3.4947e-06	6.6476e-06	1338.1	362.05	4.106e-06	3.9224e-06	414.64	140.79	120.92	42.101	8.2706e-06	52.316	0.00061282	0.00059536	0.00018737	1361.7	6.8619e-06	6.4376e-06	1369.3	371.51	6.7367e-06	6.6485e-06	426.87	145.18	124.15	43.338	7.604e-06	54.15	165.603	200.542	149.010	90.330	252.740	237.695	90.041	94.812	254.088	178.942	94.483	98.575	99.165	103.589	187.018	102.895	-8191	255	
1475.350	1	1	0	0	0.14728	0.21933	0.15854	0.14621	0.072523	0.20575	0.21089	0.2274	0.18649	0.23598	0.14815	0.093952	0.063322	0.098089	0.26499	0.19442	-2.0083	-1.9562	-2.475	-2.1833	-2.0646	-2.5646	-2.25	-2.3333	-2.5	-2.0083	-2.3583	-2.2792	-2.0958	-2.5042	-2.0438	-2.2958	349.893	209.980	341.322	313.339	426.206	152.187	98.405	81.136	212.212	294.380	145.393	424.648	90.075	436.357	324.205	101.449	0.00047621	0.00045134	0.00020279	1339.3	6.7035e-06	1.0139e-05	1344	361.86	3.1155e-06	7.2963e-06	414.28	140.97	121.01	42.212	4.1666e-06	52.289	0.00059593	0.00060554	0.00018979	1360.9	6.4691e-06	6.5362e-06	1370.3	370.17	6.2318e-06	6.6363e-06	426	144.94	123.99	43.488	7.3979e-06	53.957	158.008	164.025	181.142	90.044	182.891	209.960	89.999	94.735	204.133	180.613	94.277	98.441	99.022	103.999	356.837	103.110	-8191	255	
1475.446	1	1	0	0	0.11902	0.17668	0.136	0.28307	0.20515	0.13598	0.2894	0.15037	0.3292	0.1961	0.22452	0.26382	0.22535	0.11739	0.15272	0.19311	-1.925	-2.025	-2.2521	-2.6146	-1.9188	-2.2583	-2.3646	-2.1792	-2.4021	-2.0187	-2.2125	-2.3042	-2.025	-2.3896	-2.1312	-2.1	196.353	374.935	281.697	399.964	360.234	86.619	365.729	350.601	236.715	79.602	393.930	337.015	350.278	99.091	309.295	240.078	0.00047203	0.00037051	7.7749e-05	1335.3	1.6348e-06	3.4426e-06	1338.5	360.37	3.8331e-06	4.6473e-06	413.71	141.12	121.02	42.136	3.1499e-06	52.307	0.00056418	0.00062384	0.00018627	1357.7	6.2577e-06	7.0119e-06	1367.7	369.37	6.2067e-06	7.1666e-06	425.58	144.67	123.92	43.546	7.1127e-06	53.789	157.171	195.014	283.236	90.386	200.286	193.416	89.965	94.624	185.103	224.003	94.430	98.653	99.118	103.839	181.400	103.023	-8191	255	
1475.542	1	1	0	0	0.20749	0.15341	0.14154	0.066282	0.23848	0.18285	0.39124	0.28316	0.14784	0.2533	0.033169	0.34315	0.26754	0.1748	0.10848	0.24162	-2.0708	-1.9854	-2.2208	-2.4021	-1.6875	-2.45	-2.3229	-2.2396	-2.4854	-1.9792	-2.3812	-2.4479	-1.9771	-2.4146	-2.1479	-2.1312	346.778	357.203	89.849	385.111	174.857	261.235	343.027	373.650	318.263	433.149	263.994	165.317	420.045	205.623	184.711	114.482	0.00054687	0.00039067	0.00020969	1337.9	6.6675e-06	1.1688e-06	1338.1	363.26	4.8093e-06	3.0909e-06	414.25	141.13	120.69	42.247	3.4311e-06	52.339	0.00056719	0.00066751	0.00017834	1359.5	6.3247e-06	7.2731e-06	1366	369.9	6.3194e-06	7.335e-06	424.39	144.63	124.12	43.642	6.7824e-06	53.7	157.346	150.147	83.332	89.982	217.938	243.462	90.070	94.847	238.282	337.873	94.439	98.762	99.343	103.670	231.829	103.205	-8191	255	
1475.639	1	1	0	0	0.10833	0.11078	0.12398	0.34246	0.20992	0.045584	0.15815	0.24921	0.14818	0.097175	0.19917	0.10185	0.1256	0.24912	0.32354	0.11597	-1.8937	-2.0146	-1.9438	-2.4188	-1.8833	-2.2625	-2.5312	-1.9979	-2.2396	-2.0687	-2.3521	-2.4521	-1.975	-2.3896	-2.3146	-2.0771	135.349	96.491	209.076	394.659	158.648	262.550	367.058	414.235	284.908	346.592	396.676	381.767	331.239	354.959	313.905	401.443	0.00051708	0.00029563	0.00025143	1332.3	4.482e-06	8.4688e-06	1340.2	362.96	9.9088e-06	2.2545e-06	414.66	141.21	120.79	42.112	3.4978e-06	52.026	0.00059268	0.00067779	0.00017287	1353.3	6.7687e-06	7.4167e-06	1362	369.2	6.7332e-06	7.3091e-06	423.57	144.34	124.41	43.703	6.4283e-06	53.631	152.460	186.703	211.875	90.071	219.840	205.764	90.128	94.955	210.226	262.486	94.467	98.734	99.328	103.713	251.821	102.788	-8191	255	
1475.735	1	1	0	0	0.028573	0.22164	0.013019	0.099771	0.22022	0.13607	0.13988	0.15861	0.087689	0.048516	0.097031	0.26843	0.21171	0.37317	0.084685	0.12771	-1.675	-1.9208	-2.05	-2.4208	-1.8729	-2.1333	-2.4	-2.1646	-2.2604	-2.1833	-2.0958	-2.5438	-2.2229	-2.3812	-2.2375	-2.0479	113.821	373.701	303.351	78.290	374.472	185.069	355.166	249.309	377.361	341.817	84.434	183.247	415.648	420.903	340.544	95.944	0.0005383	0.00044939	0.00015746	1335.4	6.5271e-06	4.7077e-06	1341.1	361.91	6.5413e-06	2.6291e-06	414.61	142.31	121.51	42.333	1.9808e-06	52.155	0.00062368	0.00064546	0.00016389	1355	6.9728e-06	6.9674e-06	1363.4	369.26	7.0268e-06	6.8606e-06	422.7	144.81	125.11	43.648	6.2144e-06	53.719	154.618	139.603	143.088	90.130	246.475	209.179	90.105	94.753	213.579	226.330	94.133	98.803	99.283	103.840	181.033	102.824	-8191	255	
1475.831	1	1	0	0	0.074646	0.22003	0.19003	0.29836	0.23561	0.3085	0.13215	0.20623	0.08952	0.17568	0.17605	0.15698	0.16488	0.32747	0.26566	0.28628	-1.8646	-2.2313	-1.8167	-2.6208	-1.9312	-2.0896	-2.7104	-2.0354	-2.2875	-2.2542	-2.2188	-2.4	-2.1521	-2.1688	-2.2125	-2.2188	363.581	171.120	270.550	347.638	430.900	124.065	341.173	402.589	368.267	391.000	364.867	274.098	133.022	390.749	342.977	404.477	0.00053014	0.0009631	5.0661e-05	1338	8.401e-06	4.5126e-06	1344.6	362.92	6.4392e-06	4.8707e-06	413.58	142.03	121.84	42.378	3.3426e-06	52.301	0.00064655	0.00059965	0.0001585	1355.7	7.0799e-06	6.5662e-06	1361.2	369.35	7.0207e-06	6.3646e-06	422.69	144.93	125.13	43.485	5.8461e-06	54.016	157.826	162.540	289.036	90.113	246.110	229.095	89.950	94.931	182.858	354.869	94.286	98.548	99.213	103.851	193.007	103.095	-8191	255	
1475.927	1	1	0	0	0.072723	0.083438	0.039587	0.31823	0.10659	0.33592	0.19073	0.12663	0.20511	0.14097	0.13497	0.29035	0.43956	0.37186	0.16035	0.16143	-1.8625	-2.1521	-1.7417	-2.5354	-2.3542	-2	-2.6562	-2.1354	-2.0812	-2.2125	-1.9083	-2.5854	-2.2125	-1.9375	-2.425	-2.275	107.824	433.507	290.211	435.041	311.888	138.498	382.535	100.640	395.612	206.980	343.297	430.145	80.786	411.691	118.692	375.493	0.00049366	0.00039805	0.00017048	1336.8	3.9183e-06	3.5196e-06	1342.7	362.96	2.9203e-07	4.3834e-06	414.49	141.75	121.47	42.471	3.8405e-06	52.472	0.00063111	0.00057311	0.00015188	1358.9	6.877e-06	6.32e-06	1361.1	370.21	6.8787e-06	6.1672e-06	422.16	145.38	124.86	43.516	5.8363e-06	54.144	159.357	421.671	247.116	90.217	223.825	168.865	90.161	94.748	314.859	235.334	94.404	98.493	99.288	103.545	152.397	102.949	-8191	255	
1476.048	1	1	0	0	0.28466	0.39731	0.079716	0.30972	0.10497	0.1372	0.54699	0.21973	0.23934	0.42208	0.23264	0.26919	0.17053	0.32434	0.09856	0.15289	-1.925	-2.5021	-2.0667	-2.5729	-2.0417	-2.1	-2.4979	-2.3646	-2.3312	-2.3708	-2.1292	-2.3042	-2.4646	-2.0687	-2.5583	-2.2625	97.730	84.207	195.320	361.759	206.357	336.161	364.258	336.641	338.655	99.451	414.430	336.109	436.746	101.537	351.563	102.461	0.00041656	0.00020198	0.00023688	1338	3.0918e-06	6.5132e-06	1335.2	362.25	4.7327e-06	3.4011e-06	416.07	141.75	121.69	42.531	3.1964e-06	52.368	0.00060612	0.00054729	0.00015129	1359.9	6.5134e-06	6.1043e-06	1357.9	370.56	6.4775e-06	5.8637e-06	422.59	146	124.52	43.517	6.0323e-06	54.195	150.035	201.423	190.518	90.169	270.406	191.758	90.151	94.845	237.968	149.116	94.306	98.573	99.305	103.671	229.231	103.184	-8191	255	
1476.142	1	1	0	0	0.14208	0.14127	0.059724	0.28297	0.1212	0.10147	0.16039	0.27249	0.080973	0.25687	0.10738	0.082237	0.36332	0.31396	0.1851	0.18975	-1.7792	-2.4	-2.0062	-2.6604	-2.25	-2.0896	-2.6521	-2.2167	-2.1375	-2.4646	-2.1625	-2.4167	-2.5729	-2.0646	-2.5	-2.125	365.553	94.300	224.233	348.371	121.797	103.377	352.784	331.220	100.941	373.378	107.456	433.731	97.771	98.563	290.936	148.728	0.00049837	0.00079901	0.00025535	1338.4	3.2929e-06	2.0526e-06	1346	362.47	2.0494e-06	6.7742e-06	412.54	141.47	121.81	42.305	7.339e-06	52.341	0.00057952	0.00053025	0.00015789	1361.2	6.1743e-06	5.8805e-06	1361.9	370.14	6.1906e-06	5.6815e-06	422.27	145.57	124.29	43.396	6.42e-06	54.13	165.405	157.320	158.494	89.994	179.974	143.554	90.172	94.898	196.374	232.754	94.437	98.353	99.291	103.799	199.827	103.102	-8191	255	
1476.238	1	1	0	0	0.22739	0.12597	0.2086	0.09212	0.18423	0.20664	0.40799	0.055725	0.20768	0.092889	0.3047	0.014776	0.1988	0.53024	0.18766	0.26885	-1.7521	-2.5417	-1.9521	-2.4646	-2.3688	-2.1396	-2.4083	-2.3396	-2.3583	-2.3771	-2.3563	-2.2708	-2.3917	-2.0417	-2.4042	-2.4708	425.186	117.253	357.332	421.834	146.128	190.184	329.479	146.914	272.824	371.185	286.592	184.314	138.469	416.458	251.680	376.508	0.00059023	0.00064025	0.00030192	1332.3	2.3267e-06	2.0852e-06	1342	362.13	6.1119e-06	7.0647e-06	412	141.37	121.56	42.297	3.9484e-06	52.397	0.00056291	0.00052124	0.00016721	1357.9	5.9696e-06	5.8487e-06	1364.1	369.61	6.0113e-06	5.7597e-06	423.31	145.44	123.98	43.388	6.7051e-06	53.962	149.093	212.886	167.104	90.184	251.942	265.525	90.112	94.896	210.857	232.632	94.491	98.480	99.256	103.530	242.031	102.948	-8191	255	
1476.334	1	1	0	0	0.17339	0.19662	0.14168	0.33682	0.19556	0.19453	0.37421	0.1681	0.15304	0.05707	0.23847	0.36409	0.11503	0.088575	0.11245	0.091416	-1.7687	-2.2833	-1.9062	-2.3333	-2.4521	-2.1021	-2.4979	-2.3354	-2.0312	-2.3354	-2.1458	-2.3125	-2.6271	-2.2208	-2.2771	-2.2979	138.465	104.933	424.996	403.335	106.416	216.813	359.579	343.254	309.137	329.982	360.302	369.292	369.324	367.582	345.638	114.750	0.00052837	0.0005688	0.00015366	1337	4.7932e-06	6.1853e-06	1339	361.56	2.3556e-06	5.98e-06	413.84	141.61	121.91	42.533	9.4515e-06	52.382	0.00053818	0.00053033	0.00017171	1356.3	5.7535e-06	5.9738e-06	1364	368.68	5.7835e-06	5.9529e-06	424.48	145	123.99	43.622	6.7486e-06	53.87	150.397	169.621	134.396	90.078	173.500	175.588	89.959	94.702	205.881	272.936	94.122	98.408	99.025	103.527	188.228	102.979	-8191	255	
1476.431	1	1	0	0	0.1218	0.28657	0.26563	0.35112	0.23512	0.060428	0.14384	0.144	0.3112	0.23196	0.11906	0.16645	0.32949	0.45322	0.19311	0.30271	-1.6063	-2.5542	-2.1333	-2.3854	-2.5292	-2.0208	-2.55	-2.5938	-2.0333	-2.4542	-2.4479	-2.1792	-2.5062	-2.2833	-2.3312	-2.4667	400.545	283.552	366.269	435.929	93.100	179.096	420.734	404.708	406.507	188.063	393.102	375.320	403.434	186.738	325.044	409.294	0.0006274	0.0011702	0.00011208	1334.7	3.775e-06	6.789e-06	1339.3	363.56	4.3492e-06	6.3853e-06	413.62	141.88	121.65	42.151	6.5198e-06	52.347	0.00052611	0.00056922	0.00017013	1353.9	5.6996e-06	6.4125e-06	1361.9	368.96	5.8082e-06	6.4394e-06	423.35	144.93	123.83	43.62	6.5937e-06	53.726	157.596	177.359	181.694	90.204	251.914	223.888	90.028	94.910	221.753	221.466	94.357	98.578	99.286	103.605	260.809	102.986	-8191	255	
1476.527	1	1	0	0	0.17036	0.26897	0.1821	0.25124	0.23931	0.12044	0.17069	0.43681	0.042527	0.047792	0.19077	0.35104	0.20492	0.099636	0.045987	0.13404	-1.4208	-2.4958	-2.2604	-2.2729	-2.4958	-2.0646	-2.2938	-2.3292	-2.0833	-2.4229	-2.3125	-2.1854	-2.4708	-2.1854	-2.1542	-2.4833	411.564	273.707	248.915	90.455	213.787	87.249	384.615	334.655	248.440	370.285	409.471	337.991	335.230	136.024	384.826	155.510	0.00056588	0.00031792	0.00024006	1337.8	5.6618e-06	2.4166e-06	1338.1	360.93	7.0435e-06	4.1799e-06	413.83	141.52	121.22	42.093	4.3924e-06	52.31	0.00053559	0.00060481	0.00016369	1353.6	5.752e-06	6.7431e-06	1360.3	368.2	5.8936e-06	6.7262e-06	422.02	144.5	123.72	43.555	6.3173e-06	53.65	151.908	178.885	171.216	90.186	200.487	242.330	89.923	94.768	217.362	190.199	94.311	98.654	99.316	103.698	158.749	103.067	-8191	255	
1476.623	1	1	0	0	0.11294	0.14984	0.13816	0.10811	0.28431	0.34553	0.1014	0.15112	0.24994	0.23123	0.13421	0.29247	0.065062	0.18644	0.21328	0.19171	-1.7146	-2.2562	-2.1417	-2.1354	-2.4229	-2.0021	-2.3438	-2.6854	-2.0979	-2.2458	-2.4958	-2.1271	-2.5062	-2.1146	-1.9979	-2.3958	206.003	170.218	423.956	83.333	335.312	283.519	328.769	385.753	115.393	336.048	420.102	368.253	292.304	406.496	220.470	136.537	0.00052074	0.00035963	0.00016085	1336.8	6.3559e-06	4.6343e-06	1338.5	361.56	7.9909e-06	1.4762e-06	412.72	141.07	121.22	42.046	3.2534e-06	52.681	0.00055417	0.00062295	0.0001577	1351.6	6.1667e-06	6.8489e-06	1358.1	367.99	6.3912e-06	6.8815e-06	421.62	144.01	124.13	43.515	6.279e-06	53.654	157.234	220.483	173.323	90.103	243.669	239.491	90.175	94.902	204.709	114.279	94.278	98.758	99.086	103.647	289.855	102.811	-8191	255	
1476.719	1	1	0	0	0.2653	0.31223	0.13325	0.11413	0.16723	0.12826	0.084196	0.21578	0.13327	0.28157	0.25493	0.24959	0.31564	0.35004	0.20559	0.24294	-1.8146	-2.3937	-2.2875	-2.1688	-2.3833	-2.2604	-2.2354	-2.4604	-2.0625	-2.2771	-2.5458	-2.2	-2.5187	-2.3896	-2.025	-2.6083	89.018	171.106	78.816	394.862	81.633	79.980	263.262	390.844	250.093	118.049	405.429	379.949	83.781	420.318	143.347	323.810	0.00061429	0.0001368	0.00022085	1330.8	6.6329e-06	3.019e-06	1333.6	360.83	7.1863e-06	3.55e-06	414.47	141.32	121.2	42.306	8.1726e-07	52.265	0.00060937	0.00062046	0.00015725	1349.4	6.6972e-06	6.7479e-06	1355.5	367.82	6.8199e-06	6.647e-06	421.51	144.34	124.56	43.501	6.0704e-06	53.53	153.696	119.128	183.291	90.217	216.404	228.604	90.068	94.766	222.541	100.220	94.182	98.688	99.106	103.419	230.709	102.970	-8191	255	
1476.840	1	1	0	0	0.12079	0.078125	0.21965	0.01149	0.2779	0.13731	0.40922	0.2533	0.19825	0.11236	0.060504	0.036554	0.29	0.11984	0.097311	0.22174	-1.6938	-2.2354	-2.425	-2.2687	-2.2812	-2.225	-2.2625	-2.7479	-2.0938	-2.1271	-2.6896	-2.0792	-2.3229	-2.5292	-2.0708	-2.6917	106.797	140.902	326.574	287.837	264.905	269.234	376.715	421.142	243.859	301.212	364.067	139.284	401.435	332.523	376.903	271.158	0.00045078	0.0004791	0.00010308	1331.3	8.7945e-06	6.1979e-06	1340.7	361.11	4.3163e-06	4.574e-06	412.6	140.96	120.96	41.991	1.0968e-06	52.57	0.0006279	0.00059064	0.00015055	1350.7	6.86e-06	6.2985e-06	1354.9	368.07	6.8638e-06	6.2908e-06	419.99	144.36	124.24	43.288	5.8317e-06	53.753	155.549	231.092	166.095	90.069	233.454	191.299	89.985	94.818	250.593	222.788	94.309	98.696	99.100	103.755	245.546	102.961	-8191	255	
1476.936	1	1	0	0	0.11087	0.32341	0.052506	0.25433	0.13612	0.052854	0.22298	0.24378	0.1613	0.20265	0.045288	0.18983	0.26217	0.070428	0.12428	0.29233	-1.85	-2.1458	-2.3479	-2.0812	-2.3187	-2.4354	-2.2125	-2.5062	-2.1771	-2.1271	-2.6458	-2.3083	-2.3333	-2.4604	-1.8917	-2.3771	232.448	403.660	322.950	381.401	354.309	205.001	380.067	386.636	220.412	234.948	376.719	220.365	380.196	83.361	294.700	352.468	0.00061255	0.00058922	5.4862e-05	1332.2	5.8143e-06	3.3275e-06	1332.8	361.59	6.5893e-06	3.5105e-06	412.21	140.67	120.71	42.261	9.0136e-06	52.294	0.00061651	0.00056133	0.00014425	1351.6	6.7116e-06	5.97e-06	1352.5	368.89	6.6487e-06	6.0432e-06	419.63	144.63	124.24	43.268	5.8503e-06	53.838	158.448	242.203	407.854	90.130	240.274	87.587	89.965	94.933	250.359	236.199	94.175	98.813	99.350	103.704	208.515	103.094	-8191	255	
1477.032	1	1	0	0	0.12113	0.050615	0.23261	0.043108	0.22799	0.32093	0.30386	0.32941	0.18876	0.29061	0.37174	0.22688	0.34223	0.18612	0.25977	0.218	-1.7417	-2.0646	-2.3146	-2.2667	-2.1042	-2.4479	-2.0896	-2.4792	-2.2292	-1.875	-2.5979	-2.0563	-2.1021	-2.5208	-2.1854	-2.3958	98.256	303.571	156.744	317.097	416.947	86.089	406.947	418.872	247.364	128.314	398.856	370.811	342.254	151.126	135.057	408.459	0.00045813	0.00049759	0.00019319	1330.8	2.9966e-06	3.334e-06	1335.8	359.71	4.8942e-06	4.5924e-06	412.22	141.19	120.62	42.124	5.0624e-06	52.36	0.00060042	0.00054699	0.00014753	1352	6.543e-06	5.9397e-06	1353.4	368.42	6.4097e-06	5.9496e-06	419.57	145.01	123.92	43.158	6.108e-06	53.998	155.513	94.977	151.406	90.084	257.303	250.333	90.114	94.603	222.526	154.858	94.406	98.835	99.113	103.558	201.791	103.136	-8191	255	
1477.128	1	1	0	0	0.06983	0.13552	0.095171	0.36989	0.15683	0.035094	0.1633	0.072641	0.21602	0.11758	0.1129	0.2298	0.29835	0.34599	0.08725	0.049494	-1.7875	-1.9167	-2.4958	-2.2188	-2.2771	-2.4375	-2.1979	-2.4146	-2.375	-1.9583	-2.6146	-2.1042	-2.3604	-2.4625	-2.0917	-2.3896	315.969	154.987	394.240	401.441	290.518	271.753	272.710	426.299	188.350	229.287	293.224	365.017	414.524	427.622	313.135	352.465	0.00049	0.00054592	0.0002525	1327.7	5.4626e-06	5.8634e-06	1335.7	360.63	5.2272e-06	1.4008e-06	412.85	140.94	120.91	42.039	4.5851e-06	52.393	0.00056774	0.00053548	0.00015334	1353	6.1602e-06	5.7058e-06	1354.6	368.64	6.0866e-06	5.7338e-06	421.29	144.88	123.68	43.101	6.4871e-06	53.945	162.882	107.704	165.085	90.249	268.661	196.772	90.056	94.829	232.693	281.496	94.232	98.526	99.192	103.558	202.927	103.123	-8191	255	
1477.222	1	1	0	0	0.058472	0.33381	0.057027	0.33876	0.15855	0.17903	0.29597	0.21571	0.18538	0.15663	0.13259	0.29187	0.25094	0.06701	0.065225	0.32992	-1.8833	-2	-2.4771	-2.2104	-1.9854	-2.5542	-2.1979	-2.45	-2.3937	-1.9542	-2.2833	-2.2708	-2.2792	-2.5438	-2.1854	-2.2792	78.525	279.639	208.336	427.525	123.687	88.190	408.769	356.046	139.673	228.190	331.025	100.718	375.025	81.576	336.965	81.179	0.00051448	0.00024239	0.00029188	1324.9	4.5262e-06	4.4889e-06	1338.6	361.63	3.8863e-06	8.7966e-06	413.27	140.36	120.47	42.078	6.8548e-06	52.067	0.00055494	0.00052989	0.00016619	1349.8	6.113e-06	5.7361e-06	1357	368.58	5.978e-06	5.8448e-06	421.97	144.41	123.52	43.159	6.8748e-06	53.769	159.205	376.073	174.459	90.069	258.630	121.382	90.135	94.855	110.302	207.336	94.153	98.653	99.338	103.558	224.478	102.833	-8191	255	
1477.320	1	1	0	0	0.17808	0.058541	0.30977	0.25376	0.05814	0.26046	0.2646	0.22522	0.039975	0.23292	0.34048	0.17263	0.17117	0.20134	0.017888	0.12832	-1.9562	-1.9979	-2.3708	-2.5104	-2.0083	-2.5375	-2.2896	-2.3021	-2.4271	-2.05	-2.5	-2.3438	-2.1458	-2.5521	-2.1125	-2.2333	112.770	95.100	389.790	416.465	244.961	293.956	351.046	346.648	353.749	100.278	411.488	131.903	121.632	155.332	234.942	370.467	0.00046365	0.00066449	0.00029357	1325.9	1.9244e-06	7.245e-06	1334.1	359.73	5.5975e-06	2.6303e-06	413.09	140.43	121.14	42.273	4.7507e-06	52.308	0.00054294	0.00054786	0.00017484	1348	6.0277e-06	6.0053e-06	1357.5	367.45	5.839e-06	6.128e-06	423.33	144.26	123.56	43.32	6.7973e-06	53.695	153.143	200.899	213.351	90.080	269.110	256.399	89.976	94.697	240.617	190.706	94.581	98.486	98.982	103.630	223.703	102.918	-8191	255	
1477.439	1	1	0	0	0.093304	0.33406	0.093536	0.30304	0.20774	0.15147	0.27281	0.032552	0.11992	0.22227	0.17291	0.31119	0.20585	0.073374	0.15496	0.35682	-1.9729	-2.1292	-2.2646	-2.5771	-2.1875	-2.5062	-2.5438	-2.25	-2.4313	-2.0312	-2.3937	-2.3646	-2.1458	-2.3125	-2.0375	-2.3167	150.517	340.708	207.667	379.609	274.192	315.963	286.190	327.045	223.472	154.755	101.488	384.038	140.799	405.630	362.701	399.730	0.00056096	0.00059381	9.0577e-05	1328.3	5.7821e-06	3.2071e-06	1331.4	359.92	4.4148e-06	7.2047e-06	411.13	140.48	120.55	42.052	2.2411e-06	52.476	0.00052321	0.00056759	0.00017121	1346.9	5.6926e-06	6.2658e-06	1354.7	366.92	5.6348e-06	6.4073e-06	421.27	143.85	123.05	43.345	6.436e-06	53.615	153.825	163.167	153.778	90.159	236.367	212.100	90.189	94.739	211.912	210.131	94.214	98.575	99.189	103.651	121.049	102.991	-8191	255	
1477.535	1	1	0	0	0.19211	0.1955	0.11288	0.14845	0.25246	0.094419	0.11195	0.092467	0.071616	0.2613	0.37142	0.030418	0.24497	0.13569	0.1265	0.13343	-2.1729	-2.2854	-2.2146	-2.4458	-2.0208	-2.3563	-2.5979	-2.1646	-2.5292	-2.0875	-2.3271	-2.5354	-2.0938	-2.4146	-2.3521	-1.9146	319.448	197.942	333.975	87.386	212.118	377.598	362.842	341.464	316.842	412.322	401.925	192.502	153.826	96.172	356.893	88.151	0.00061833	0.00057828	0.00020468	1328.9	6.208e-06	8.7009e-06	1331.5	360.43	3.6585e-06	7.4699e-06	411.38	141.69	121.11	42.089	3.0763e-06	52.427	0.00051814	0.00059402	0.00016185	1345.5	5.6721e-06	6.5326e-06	1353.6	366.54	5.624e-06	6.5605e-06	420.63	144.02	123.63	43.514	6.0324e-06	53.607	164.706	172.051	183.509	89.962	230.708	191.015	89.916	94.920	222.026	203.589	94.312	98.471	98.932	103.623	241.074	103.032	-8191	255	
1477.607	1	1	0	0	0.15052	0.13063	0.25217	0.23941	0.093481	0.088046	0.16322	0.32605	0.01377	0.14783	0.13442	0.14532	0.18697	0.24008	0.20263	0.44636	-2.1188	-2.0146	-2.1417	-2.5938	-2.1021	-2.3646	-2.5833	-2.1917	-2.4062	-2.0938	-2.2167	-2.4229	-1.9917	-2.3063	-2.3417	-2.1458	379.819	204.101	116.102	148.711	217.670	327.057	361.516	339.369	171.577	233.834	235.465	400.654	392.408	94.390	99.423	398.756	0.0005713	0.00030754	0.00015144	1332.9	6.8348e-06	6.845e-06	1334.7	361.29	1.1144e-05	4.6471e-06	411.61	141.4	120.81	42.249	2.6822e-06	52.426	0.00052971	0.00059778	0.00015114	1346.1	5.8809e-06	6.5185e-06	1354.2	366.81	5.9419e-06	6.4777e-06	419.96	143.79	123.74	43.505	5.8751e-06	53.43	152.630	208.165	137.058	90.109	189.205	181.642	90.016	94.861	165.700	152.112	94.349	98.669	99.364	103.589	228.546	103.135	-8191	255	
1477.703	1	1	0	0	0.21205	0.27301	0.16434	0.039456	0.15008	0.13256	0.16896	0.025909	0.048863	0.17811	0.15083	0.11298	0.12105	0.16825	0.11267	0.27041	-1.9062	-1.9542	-2.0062	-2.5604	-1.9667	-2.3875	-2.6083	-2.1875	-2.5229	-2.1875	-2.3917	-2.4896	-2.1729	-2.2896	-2.4688	-2.1104	431.202	430.749	144.796	115.461	230.866	423.832	336.186	125.711	397.901	286.315	347.450	274.542	250.007	366.294	369.420	94.112	0.0005645	0.00043114	0.00020859	1332.6	6.2511e-06	4.3244e-06	1331.3	360.67	6.4405e-06	2.0429e-06	414.34	141.51	121.91	42.434	4.4309e-06	52.421	0.00056091	0.00058225	0.00014617	1343.8	6.2412e-06	6.2626e-06	1350.2	366.27	6.2147e-06	6.1322e-06	419.84	143.97	124.42	43.543	5.4816e-06	53.617	155.670	306.433	123.064	90.385	233.203	233.104	90.054	94.892	208.577	134.530	94.528	98.496	99.369	103.605	214.508	102.927	-8191	255	
1477.824	1	1	0	0	0.11046	0.12835	0.23949	0.15962	0.11747	0.17538	0.40472	0.49712	0.11176	0.10564	0.15057	0.24729	0.23616	0.076956	0.049266	0.094767	-2.0396	-2.0938	-2.0979	-2.6458	-1.9438	-2.1542	-2.5792	-2.2083	-2.2021	-2.2479	-2.0083	-2.4875	-2.2062	-2.3396	-2.2833	-2.0667	83.240	219.183	212.847	133.028	231.965	275.776	340.455	393.535	82.279	247.392	353.871	426.278	107.399	408.071	153.157	306.621	0.00060331	0.00021755	3.6177e-05	1329.1	4.1292e-06	4.8531e-06	1324.9	359.51	2.8883e-06	4.751e-06	412.63	141.89	121.27	42.373	2.4092e-06	52.366	0.00057565	0.00053972	0.00014153	1345.9	6.3838e-06	5.903e-06	1346.5	366.24	6.3939e-06	5.8092e-06	418.52	144.15	124.26	43.423	5.3907e-06	53.722	158.301	291.258	212.021	90.078	222.528	253.585	90.015	94.959	220.956	243.482	94.648	98.667	99.063	103.539	297.628	103.163	-8191	255	
1477.920	1	1	0	0	0.14184	0.0087332	0.11414	0.22709	0.17915	0.15485	0.37627	0.1871	0.36451	0.073941	0.40295	0.13517	0.079721	0.19579	0.039787	0.27685	-2.0625	-2.2083	-1.8208	-2.475	-2.0938	-2.2583	-2.55	-2.1104	-2.2083	-2.3	-2.1083	-2.4542	-2.2313	-2.2792	-2.3292	-2.225	216.496	78.458	304.421	409.206	113.855	183.131	393.861	401.565	210.465	247.108	343.986	435.773	215.249	210.227	148.571	101.388	0.00053947	0.00015627	0.00015333	1332.2	2.7909e-06	5.7159e-06	1335	361.23	4.5956e-06	2.7906e-06	413.49	142.28	121.94	42.519	5.7681e-06	52.717	0.00058027	0.00051976	0.00013867	1347.1	6.2294e-06	5.736e-06	1349.6	367.3	6.2136e-06	5.5408e-06	419.08	145.05	124.69	43.483	5.2591e-06	54.127	157.876	167.778	179.536	90.162	275.059	158.920	90.098	94.847	226.340	218.577	94.368	98.339	99.217	103.297	186.167	103.122	-8191	255	
1478.016	1	1	0	0	0.25569	0.048156	0.088426	0.18573	0.21076	0.28366	0.34703	0.27375	0.13221	0.25938	0.26361	0.20254	0.21485	0.32513	0.084942	0.22298	-1.7104	-2.3854	-2.0979	-2.5062	-2.2062	-2.2146	-2.4104	-2.1813	-2.1333	-2.4021	-2.1646	-2.4583	-2.2812	-2.225	-2.4771	-2.0854	262.438	192.648	227.689	367.536	377.565	402.541	364.975	411.933	152.541	154.727	313.971	393.992	93.941	436.989	157.166	98.899	0.00051559	0.00051728	0.0001994	1330.9	2.2524e-06	2.4208e-06	1337.8	362.4	2.7938e-06	2.5937e-06	413.58	142.61	121.52	42.383	6.693e-06	52.395	0.00055106	0.0005006	0.00013472	1349.5	5.8828e-06	5.5237e-06	1351.3	369.01	5.9011e-06	5.3291e-06	419.12	145.66	124.29	43.454	5.4854e-06	54.044	155.700	138.105	155.115	90.142	230.401	182.151	89.993	95.011	155.765	330.890	94.312	98.561	99.160	103.671	211.352	102.583	-8191	255	
1478.135	1	1	0	0	0.0073533	0.22989	0.38907	0.092468	0.15416	0.1224	0.1454	0.15465	0.21452	0.12326	0.018087	0.04703	0.077726	0.089196	0.16449	0.24012	-1.6688	-2.3563	-1.9562	-2.5687	-2.2125	-2.0667	-2.6292	-2.15	-2.0958	-2.5771	-2.0938	-2.4188	-2.4104	-2.1437	-2.4021	-2.075	205.141	340.017	333.837	332.925	189.442	300.194	383.589	347.292	222.129	139.129	296.367	100.506	379.285	111.018	133.279	407.080	0.0005109	0.00035042	0.00033703	1325.5	4.478e-06	4.3715e-06	1339.7	360.64	5.61e-06	5.8082e-06	413.11	141.93	121.38	42.689	1.1154e-05	52.748	0.00053316	0.00048771	0.00014399	1349.4	5.6708e-06	5.3901e-06	1354	368.57	5.6856e-06	5.2698e-06	420.58	145.28	123.98	43.473	5.8865e-06	54.095	151.807	198.731	180.741	90.167	205.810	225.669	90.244	94.808	244.603	207.425	94.372	98.827	98.977	103.653	187.820	102.826	-8191	255	
1478.231	1	1	0	0	0.064502	0.16199	0.06131	0.28943	0.12606	0.18871	0.19404	0.43356	0.15998	0.11601	0.1406	0.37902	0.25168	0.060114	0.21473	0.23368	-1.6917	-2.3917	-2.025	-2.3563	-2.2646	-2.0125	-2.7458	-2.4583	-2.2333	-2.7167	-2.1333	-2.4479	-2.4479	-2.1437	-2.3292	-2.2292	142.756	351.217	354.597	98.275	158.046	211.074	317.778	404.092	430.823	401.368	417.749	90.675	418.383	125.670	359.157	85.024	0.000547	0.00075008	0.00030059	1332.8	4.2972e-06	3.8288e-06	1340.5	360.15	4.0594e-06	4.1962e-06	414.25	141.64	121.79	42.572	5.6562e-06	52.633	0.00051507	0.0004805	0.0001535	1350.9	5.5275e-06	5.4059e-06	1357.3	367.59	5.6124e-06	5.2897e-06	421.78	145.19	123.87	43.465	6.3036e-06	53.948	146.019	192.677	122.858	90.091	251.323	178.535	89.998	94.831	224.803	247.526	94.136	98.750	98.983	103.457	267.257	102.957	-8191	255	
1478.303	1	1	0	0	0.23729	0.060958	0.17525	0.1934	0.12694	0.13249	0.17077	0.27921	0.062601	0.073869	0.29139	0.11097	0.10612	0.16831	0.2577	0.081829	-1.625	-2.4208	-1.9896	-2.4708	-2.3375	-2.0396	-2.4208	-2.3854	-1.8292	-2.5229	-1.9708	-2.225	-2.5042	-2.1333	-2.4771	-2.4979	416.394	130.401	140.791	342.972	241.947	137.421	419.660	390.430	116.615	160.328	416.823	181.517	364.068	422.462	258.529	351.097	0.00056022	0.00059066	0.00023027	1327.3	1.3662e-06	5.9114e-06	1333.4	361.43	3.2291e-06	9.1333e-06	413.69	142.04	121.46	42.675	3.5846e-06	52.46	0.0005105	0.00049387	0.00016035	1347.1	5.4374e-06	5.5478e-06	1356.3	367.56	5.4519e-06	5.5459e-06	421.74	144.95	123.77	43.613	6.2517e-06	53.836	156.137	171.775	197.496	90.186	222.902	133.437	90.069	94.879	166.567	195.642	94.278	98.478	99.194	103.543	215.353	102.724	-8191	255	
1478.401	1	1	0	0	0.15468	0.14525	0.029854	0.074236	0.11179	0.31415	0.38215	0.27122	0.2073	0.10779	0.16932	0.5208	0.066699	0.12227	0.2195	0.16029	-1.6917	-2.5229	-2.1271	-2.2938	-2.4667	-2.075	-2.5438	-2.4021	-1.9833	-2.3542	-2.2687	-2.1125	-2.5354	-2.1396	-2.1771	-2.4396	202.437	149.147	426.395	93.606	383.862	247.137	388.155	432.498	370.307	209.890	113.707	81.829	167.607	109.430	174.903	409.754	0.00059841	0.00071109	0.0002225	1330.2	4.1412e-06	6.8827e-06	1333.9	359.31	7.4977e-06	3.6491e-06	413.48	141.99	121.4	42.484	6.7458e-06	52.824	0.00049219	0.00052153	0.00015805	1346.8	5.262e-06	5.8915e-06	1356.8	366.61	5.3467e-06	5.8941e-06	421.4	144.76	123.59	43.722	6.0876e-06	53.841	153.045	189.636	230.203	90.142	271.960	244.456	90.154	94.801	207.841	174.027	94.550	98.682	99.288	103.706	218.120	102.897	-8191	255	
1478.520	1	1	0	0	0.12518	0.047961	0.025354	0.37115	0.13798	0.18165	0.16681	0.15302	0.12733	0.28365	0.39544	0.071988	0.12642	0.34494	0.17489	0.084518	-1.45	-2.2979	-2.1667	-2.2479	-2.3271	-2	-2.6813	-2.4	-2.0104	-2.2854	-2.2771	-2.1708	-2.5396	-2.1833	-2.0667	-2.45	165.465	231.137	193.411	412.795	373.709	194.925	399.837	376.597	86.773	191.146	419.767	403.777	212.602	431.083	433.898	196.964	0.00051933	0.00049883	6.6781e-05	1329.1	6.8933e-06	2.403e-06	1337.6	361.93	5.4424e-06	4.7053e-06	413.79	142.39	122.31	42.775	7.031e-06	52.679	0.00048458	0.00055285	0.00015118	1347.1	5.2707e-06	6.1283e-06	1356.9	367.24	5.3515e-06	6.1338e-06	420.42	144.77	124.06	43.89	5.8127e-06	53.759	157.627	199.021	380.121	90.209	221.027	230.031	90.147	95.051	237.486	175.072	94.313	98.532	99.143	103.654	161.537	103.056	-8191	255	
1478.616	1	1	0	0	0.14505	0.12262	0.10169	0.098349	0.15838	0.21576	0.27917	0.21555	0.05773	0.069223	0.25071	0.29885	0.28386	0.03501	0.043598	0.046023	-1.5958	-2.4062	-2.1479	-2.2167	-2.3042	-1.9208	-2.0792	-2.5833	-2.1167	-2.3187	-2.3729	-2.1646	-2.3521	-2.2542	-1.9667	-2.5	195.147	318.677	294.097	94.908	118.126	433.150	323.440	403.956	367.021	233.439	351.964	101.160	97.521	388.837	198.504	177.756	0.00063416	0.00020571	5.7663e-05	1331.2	7.0991e-06	8.1894e-06	1338.9	362.2	7.7592e-06	3.3419e-06	414.06	142.52	122.14	42.856	3.4282e-06	52.697	0.0005082	0.00056744	0.00014456	1346.2	5.5213e-06	6.2052e-06	1354.2	366.89	5.7141e-06	6.1105e-06	420.33	145.06	124.72	43.944	5.5014e-06	53.816	154.226	95.549	97.747	90.331	243.437	195.312	90.140	94.843	223.079	225.853	94.306	98.606	99.232	103.677	166.101	102.924	-8191	255	
1478.712	1	1	0	0	0.17947	0.056715	0.14171	0.50694	0.10644	0.11153	0.38263	0.25358	0.073599	0.074446	0.062767	0.15864	0.12648	0.29278	0.21612	0.42519	-1.3583	-2.15	-2.2438	-2.1833	-2.3667	-2.1292	-2.1562	-2.4188	-2.0146	-2.2	-2.4313	-2.0396	-2.5771	-2.1771	-2.0896	-2.4833	76.979	239.373	252.955	374.738	134.026	426.928	363.638	403.935	140.082	202.947	418.407	335.964	210.249	84.877	175.136	343.418	0.00062012	0.00063256	0.00014733	1334.1	4.1589e-06	3.2635e-06	1337.5	361.38	9.543e-06	2.9034e-06	415.94	143.38	123.19	43.175	9.9219e-06	52.949	0.00053372	0.00054623	0.00013659	1345.2	5.7737e-06	5.8538e-06	1353.1	366.72	5.9236e-06	5.8072e-06	420.41	145.57	125.43	44.017	5.2719e-06	54.003	153.860	190.591	169.850	90.232	247.282	305.664	90.177	94.892	211.547	197.968	94.220	98.504	99.397	103.642	234.278	102.944	-8191	255	
1478.833	1	1	0	0	0.24911	0.26092	0.040952	0.13876	0.21072	0.094344	0.30173	0.096153	0.12569	0.14483	0.1932	0.033932	0.30831	0.4004	0.24397	0.072355	-1.7354	-2.2062	-2.3167	-2.2479	-2.3563	-2.3396	-2.2083	-2.6042	-1.9937	-2.2333	-2.4896	-2.0812	-2.4833	-2.3896	-2.0167	-2.5854	247.943	120.865	206.128	87.925	192.680	179.856	354.991	138.527	121.137	126.092	78.111	306.704	94.045	365.367	211.390	229.585	0.00051836	0.0003218	9.9976e-05	1337.6	3.2908e-06	2.5939e-06	1343.1	364.7	5.6298e-06	2.9191e-06	415.43	144.2	123.33	43.219	5.677e-06	53.445	0.0005398	0.00050423	0.00012781	1347.7	5.7995e-06	5.3572e-06	1352.8	368.29	5.7995e-06	5.349e-06	419.14	145.92	125.64	44.028	4.9899e-06	54.282	150.264	164.953	431.283	90.110	244.275	186.733	90.115	94.827	200.522	259.398	94.170	98.447	99.115	103.395	231.120	103.183	-8191	255	
1478.904	1	1	0	0	0.1863	0.053591	0.05628	0.1161	0.20733	0.11584	0.11416	0.28741	0.30507	0.091756	0.14213	0.18215	0.18457	0.22382	0.11401	0.13724	-1.6708	-2.0958	-2.3604	-2.1937	-2.3125	-2.3521	-2.0042	-2.6042	-2.3083	-2.0729	-2.5917	-2.1417	-2.35	-2.2979	-2.0458	-2.3917	91.865	276.082	126.180	80.307	154.127	410.385	78.312	411.877	430.795	338.856	391.865	339.004	85.733	425.293	139.661	435.887	0.00060414	3.2136e-05	0.00018433	1333.1	1.8821e-06	3.9656e-06	1335	361.22	5.2388e-06	5.445e-07	412.92	142.62	122.53	43.068	6.5762e-06	52.944	0.00053454	0.00047681	0.00012326	1346	5.7294e-06	5.1617e-06	1347.8	367.87	5.6531e-06	5.1265e-06	418.41	145.67	124.98	43.856	4.8886e-06	54.244	166.458	81.861	132.872	90.137	223.509	162.658	89.952	95.041	218.544	267.320	94.041	98.801	99.193	103.501	218.384	102.840	-8191	255	
1479.000	1	1	0	0	0.06112	0.2421	0.16421	0.29614	0.25343	0.016448	0.31402	0.19801	0.034179	0.1964	0.45027	0.22303	0.082622	0.19177	0.24588	0.31026	-1.575	-2.1562	-2.3396	-2.3396	-2.1333	-2.4375	-2.2542	-2.5979	-2.3021	-2.0354	-2.3292	-2.2042	-2.3187	-2.5625	-1.875	-2.4979	245.229	167.987	102.088	86.837	82.304	359.206	338.863	405.882	194.722	235.876	151.571	82.135	362.838	357.903	301.206	117.322	0.0005289	0.0003077	7.0099e-05	1331.4	2.9214e-06	6.4666e-06	1335.8	362.62	3.4973e-06	7.2073e-06	414.56	143.57	122.55	43.074	8.2872e-06	53.188	0.00050778	0.00046065	0.00012258	1345.8	5.4153e-06	4.9742e-06	1347	368.24	5.3335e-06	4.9632e-06	418.99	146.39	125.01	43.86	5.0224e-06	54.417	152.347	107.873	419.045	90.323	136.730	170.825	90.101	94.965	212.249	205.633	94.282	98.463	98.969	103.721	236.939	102.874	-8191	255	
1479.121	1	1	0	0	0.23616	0.10115	0.29041	0.24966	0.20228	0.24255	0.23047	0.27812	0.11875	0.041836	0.11965	0.1491	0.19286	0.27453	0.23798	0.11873	-1.7333	-2.1729	-2.2875	-2.3146	-2.2062	-2.3333	-2.1854	-2.4229	-2.2479	-1.9792	-2.4708	-2.0625	-2.1667	-2.6396	-2.0062	-2.1521	379.957	332.526	99.266	334.278	276.001	259.337	408.925	426.032	365.917	295.208	113.423	399.600	417.799	391.291	144.742	288.620	0.00060031	0.00016062	0.00030456	1331.8	6.9022e-06	5.1871e-06	1336.2	364.21	3.3951e-06	1.6409e-06	414.32	143.97	123.48	43.348	8.3043e-06	53.258	0.00048156	0.00044639	0.00012928	1347.3	5.1764e-06	4.8432e-06	1349.6	369.09	5.1326e-06	4.8498e-06	419.65	146.18	125.09	43.892	5.4209e-06	54.405	158.837	317.645	196.315	90.150	226.549	276.414	90.075	94.740	213.622	291.365	94.168	98.357	99.264	103.683	199.922	102.865	-8191	255	
1479.215	1	1	0	0	0.2213	0.19025	0.16259	0.093213	0.28576	0.02656	0.11742	0.34324	0.29626	0.16237	0.15356	0.17585	0.12351	0.15195	0.22912	0.13469	-1.7729	-1.8833	-2.2146	-2.2979	-2.05	-2.4313	-2.3146	-2.4583	-2.3375	-2.0438	-2.4396	-2.2604	-2.1167	-2.3812	-1.9062	-2.4854	380.474	204.665	145.709	352.491	328.761	142.393	132.080	433.290	166.899	321.154	135.452	404.440	165.853	78.737	244.151	156.056	0.00057054	0.0006854	0.00015408	1327.8	5.2759e-06	7.4124e-06	1332.7	361.36	6.2807e-06	6.5896e-06	414.12	143.3	122.46	43.152	6.1995e-06	53.186	0.00046711	0.00044184	0.00013617	1344.7	5.0706e-06	4.7118e-06	1350.5	367.94	4.9687e-06	4.8112e-06	420.41	145.88	124.75	43.833	5.6193e-06	54.255	151.795	169.602	148.218	90.187	251.054	211.200	89.979	94.971	246.571	187.183	94.358	98.568	99.223	103.727	193.268	102.968	-8191	255	
1479.312	1	1	0	0	0.14304	0.11342	0.4469	0.179	0.26676	0.18966	0.39077	0.077787	0.089086	0.14029	0.11865	0.10163	0.13747	0.19766	0.14622	0.029541	-2.075	-1.8979	-2.1271	-2.2812	-1.9312	-2.5812	-2.1979	-2.1354	-2.4083	-1.9229	-2.4854	-2.4479	-2.0667	-2.2188	-2.0854	-2.1917	227.312	291.283	106.224	430.164	87.749	94.722	353.080	405.944	157.799	137.216	93.009	82.922	176.745	407.629	427.768	240.926	0.00054943	0.00049519	0.00013794	1326	4.0644e-06	5.997e-06	1331.6	360.77	4.2206e-06	4.418e-06	413.19	143.86	122.66	43.206	7.9655e-06	53.51	0.00045292	0.00044663	0.00014306	1341.3	4.9121e-06	4.8721e-06	1350.8	366.98	4.8115e-06	4.9653e-06	420.94	145.59	124.51	43.979	5.5114e-06	54.386	158.763	158.078	188.463	90.202	215.905	211.043	90.024	95.024	267.556	161.476	94.647	98.492	99.343	103.659	206.906	102.784	-8191	255	
1479.408	1	1	0	0	0.066503	0.2759	0.29975	0.28926	0.18067	0.2339	0.27652	0.26181	0.29383	0.24047	0.23954	0.14933	0.030955	0.27847	0.23719	0.14535	-2.0417	-1.8875	-2.3604	-2.5542	-2.0438	-2.2938	-2.1229	-2.1458	-2.5396	-1.9875	-2.4104	-2.2604	-2.075	-2.4583	-2.3792	-2.1104	369.167	378.723	140.368	397.844	359.914	113.674	90.127	403.866	333.137	429.936	162.456	387.192	370.048	92.502	243.561	87.709	0.00050961	0.00079964	0.00028174	1326.1	4.3857e-06	6.5866e-06	1338.7	362.89	1.6083e-06	1.8424e-06	414.33	143.98	122.8	43.364	2.3659e-06	53.351	0.00043229	0.00045701	0.00013805	1340.5	4.6215e-06	5.0925e-06	1350.9	367.69	4.5997e-06	5.2307e-06	420.95	145.75	124.38	44.161	5.3948e-06	54.142	163.360	181.640	194.045	90.127	172.754	181.334	90.114	94.896	214.268	184.176	94.283	98.807	99.127	103.346	305.057	102.921	-8191	255	
1479.528	1	1	0	0	0.27584	0.095758	0.12238	0.23954	0.072036	0.061225	0.39955	0.21427	0.15702	0.20451	0.22584	0.054318	0.29247	0.10756	0.13721	0.23496	-2.0812	-2.1083	-2.2562	-2.5521	-2.1021	-2.3333	-2.2562	-1.9604	-2.4771	-2.0625	-2.2729	-2.4396	-1.9896	-2.6208	-2.2896	-1.9937	381.629	413.172	173.360	390.186	346.955	221.537	432.280	329.955	264.079	126.529	433.303	216.592	107.696	332.709	268.220	416.328	0.00055312	0.00039334	0.0001414	1328.3	4.6495e-06	9.0135e-06	1331.8	362.01	2.5377e-06	4.8457e-06	414.19	143.15	122.99	43.253	2.7636e-06	53.361	0.00043159	0.00049429	0.00013539	1339.1	4.7526e-06	5.5224e-06	1348.4	367.08	4.8019e-06	5.567e-06	419.82	145.16	124.7	44.142	5.1376e-06	54.144	150.607	167.001	169.048	90.202	235.183	197.600	90.090	94.731	177.222	240.920	94.310	98.635	99.289	103.387	219.019	103.177	-8191	255	
1479.600	1	1	0	0	0.19886	0.13125	0.096699	0.29933	0.1284	0.1059	0.24326	0.097792	0.026064	0.25075	0.20409	0.20691	0.153	0.054066	0.072734	0.28462	-2.1	-2.3	-2.1792	-2.6354	-1.9208	-2.3479	-2.4188	-2.0833	-2.4792	-2.1063	-2.2667	-2.4771	-1.9813	-2.2812	-2.2604	-2.1542	112.339	371.543	96.026	379.195	83.064	109.452	88.016	251.904	102.281	171.280	298.256	367.094	319.558	428.236	299.707	332.193	0.00062722	0.00048222	0.00023231	1331.4	4.6732e-06	2.45e-06	1336.8	361.39	3.0182e-06	2.0041e-06	414.91	143.88	123.4	43.281	3.5623e-06	53.473	0.00046143	0.00051393	0.00013133	1341.7	5.104e-06	5.5888e-06	1349.8	367.03	5.1084e-06	5.5588e-06	419.99	145.74	125.17	44.292	4.9326e-06	54.246	155.545	119.727	209.628	90.317	197.342	181.715	89.987	94.799	206.676	123.583	94.288	98.716	99.211	103.260	269.306	102.691	-8191	255	
1479.696	1	1	0	0	0.28108	0.093194	0.19175	0.46695	0.15951	0.099132	0.13758	0.13782	0.2206	0.097727	0.18708	0.31837	0.30848	0.050075	0.19656	0.18195	-2.0042	-2.0396	-2.025	-2.6167	-2.0667	-2.2229	-2.2938	-2.1458	-2.4146	-2.3542	-2.1542	-2.6792	-2.1896	-2.1896	-2.3792	-1.9792	410.710	410.984	418.724	395.697	85.352	402.796	217.576	389.871	375.296	94.756	363.876	345.587	391.203	239.279	383.820	351.241	0.00059012	0.00015991	0.00013131	1331.1	4.9386e-06	7.9872e-07	1331.9	362.92	7.0258e-06	3.3703e-06	415.83	144.34	123.88	43.462	2.6612e-06	53.418	0.00047973	0.00049988	0.00012627	1341.9	5.3526e-06	5.4057e-06	1348.5	367.53	5.4226e-06	5.2854e-06	420.09	145.97	125.91	44.351	4.8489e-06	54.287	153.312	249.594	207.114	90.159	226.981	86.059	90.065	94.892	227.179	218.338	94.199	98.449	99.173	103.605	204.034	102.958	-8191	255	
1479.792	1	1	0	0	0.13907	0.07558	0.28397	0.38162	0.26968	0.14918	0.30305	0.18409	0.15844	0.20985	0.058547	0.31087	0.093552	0.11223	0.11538	0.17039	-1.8917	-2.1625	-1.9292	-2.575	-1.8729	-2.2104	-2.4458	-2.1104	-2.2583	-2.3187	-2.0021	-2.4125	-2.1083	-2.0125	-2.4583	-2.2	117.105	99.858	228.299	376.018	158.588	365.134	393.759	417.313	94.289	82.350	344.713	118.809	159.573	149.862	143.690	374.922	0.00056513	0.00038852	0.00013494	1331.8	5.6802e-06	1.0694e-06	1335	362.81	8.8674e-06	4.2492e-06	415.6	143.97	123.34	43.306	4.8132e-06	53.478	0.00050775	0.00047523	0.00012337	1342.5	5.5529e-06	5.1564e-06	1350.2	367.8	5.5243e-06	5.0711e-06	419.83	146.08	125.92	44.206	4.7427e-06	54.464	148.681	198.595	117.401	90.102	252.474	121.063	89.902	94.900	252.361	246.040	94.343	98.561	98.977	103.379	187.580	102.953	-8191	255	
1479.913	1	1	0	0	0.17527	0.20332	0.088208	0.096158	0.14647	0.37611	0.32654	0.39668	0.19629	0.17686	0.13175	0.053001	0.19511	0.51339	0.21168	0.20229	-1.8687	-2.0146	-1.8479	-2.4417	-2.3208	-2.1875	-2.5667	-2.1521	-2.1479	-2.2313	-1.9562	-2.3312	-2.3	-2.0458	-2.3521	-2.1688	331.000	88.106	101.899	401.118	104.325	117.452	407.125	388.211	424.291	257.365	227.572	309.917	423.694	94.848	139.612	375.070	0.0005104	0.00010679	0.00020778	1331.9	3.1413e-06	5.4704e-06	1343.3	364.4	4.7097e-06	4.7902e-06	414.54	144.65	123.06	43.58	4.6338e-06	53.718	0.00051078	0.00045567	0.00012056	1345.9	5.5211e-06	5.0207e-06	1350	368.71	5.5187e-06	4.879e-06	419.06	146.66	125.54	44.256	4.6499e-06	54.608	153.960	192.713	95.769	90.210	177.202	287.727	90.071	94.666	189.764	249.693	94.350	98.542	99.100	103.530	145.247	102.804	-8191	255	
1480.009	1	1	0	0	0.27294	0.1719	0.13187	0.20839	0.12158	0.15207	0.1386	0.20127	0.37664	0.20794	0.21092	0.15988	0.24777	0.092455	0.3682	0.13678	-1.6417	-2.1146	-1.9062	-2.4042	-2.2896	-1.8896	-2.6667	-2.15	-2.1396	-2.4188	-2.0604	-2.3146	-2.1729	-2.15	-2.35	-2.1583	80.704	259.299	347.816	366.335	194.557	128.024	258.642	107.498	411.547	254.491	175.638	412.350	113.062	402.974	186.107	136.195	0.00053327	0.00038767	9.1136e-05	1333	4.9297e-06	4.2231e-06	1337.5	363.38	2.4652e-07	3.6461e-06	416.41	143.64	123.99	43.551	2.9115e-06	53.383	0.0004925	0.0004423	0.00012091	1347.5	5.2694e-06	4.9506e-06	1348.7	369.03	5.2818e-06	4.8044e-06	419.9	146.67	125.67	44.139	4.8314e-06	54.607	153.271	210.459	163.631	90.275	211.605	176.333	90.113	94.834	113.887	199.168	94.319	98.702	98.941	103.276	235.970	102.951	-8191	255	
1480.105	1	1	0	0	0.15911	0.040362	0.087506	0.18724	0.12606	0.12909	0.18802	0.13438	0.064378	0.24998	0.052272	0.27887	0.069872	0.26495	0.04121	0.057548	-1.725	-2.3271	-2.0042	-2.5354	-2.1188	-2.0229	-2.4396	-2.2562	-2.1813	-2.4604	-2.1479	-2.4729	-2.1958	-1.9833	-2.4417	-2.1479	102.432	348.535	182.632	124.849	323.491	98.440	183.501	113.509	127.738	134.868	422.815	351.600	198.606	211.885	282.013	178.936	0.00050751	0.00036523	0.00023088	1328.2	6.7943e-06	4.2008e-06	1336.4	362.44	2.1993e-06	5.0614e-06	415.46	143.81	123.84	43.202	1.1012e-05	53.418	0.00047992	0.0004343	0.00012609	1345.8	5.0535e-06	4.8013e-06	1351.5	368.67	5.0971e-06	4.6718e-06	420.6	146.75	125.28	44.003	5.1959e-06	54.63	149.220	174.703	192.277	90.265	307.924	169.586	90.108	94.910	249.721	182.846	94.517	98.858	99.029	103.543	194.179	102.953	-8191	255	
1480.201	1	1	0	0	0.034334	0.19972	0.25671	0.15604	0.31145	0.26085	0.12184	0.13417	0.2797	0.15703	0.20579	0.13076	0.36326	0.10536	0.18801	0.10093	-1.8	-2.4354	-1.9229	-2.2979	-2.2229	-1.9	-2.5542	-2.4521	-2.1146	-2.3875	-2.2188	-2.3542	-2.5729	-1.9833	-2.4604	-2.2292	378.309	386.736	183.745	109.923	178.726	400.119	401.838	421.344	120.414	82.607	379.568	417.168	77.207	82.596	235.789	303.891	0.00052487	0.00055661	0.00025329	1332.1	1.0913e-06	2.1341e-06	1336.8	364.53	5.758e-06	4.4841e-06	415.99	143.96	122.97	43.111	6.2308e-06	53.462	0.00046593	0.00043038	0.00013604	1346.1	4.9825e-06	4.8292e-06	1351.7	368.68	5.0475e-06	4.7527e-06	421.55	146.27	124.64	43.96	5.5855e-06	54.386	152.408	160.745	155.976	90.306	289.554	225.661	89.957	94.955	286.930	185.090	94.400	98.682	99.442	103.632	221.348	102.828	-8191	255	
#DATA ENDS
