BOXY.EXE: ISS Imagent and Oximeter Data Acquisition Program Version 0.80
Ascii Record File

#ACQ INFORMATION
2  Detector Channels 
16  External MUX Channels 
1  Auxiliary Channels 
5000  Waveform (CCF) Frequency (Hz)
1  Waveforms Skipped 
30  Waveforms Averaged 
1  Cycles Averaged 
16  Acquisitions per Waveform 
10.0806  Updata Rate (Hz) 

#FILE INFORMATION
TRUE -- External MUX Channel results are PARSED.
FALSE -- AC DC and Phase are NOT grouped.
TRUE -- Companion Program Settings File CREATED.
FALSE -- AC data not excluded
FALSE -- DC data not excluded
FALSE -- Phase data not excluded
FALSE -- Auxillary Chn. data not excluded
Tab delimiters

#CALIBRATION STATE
TRUE -- Waveform Calibration Values APPLIED.


#AUX CALIBRATION VALUES
Val Type	aux-1	

Term	1.0000e+00	
Factor	0.0000e+00	


#WF CALIBRATION VALUES
A = Detector Channel
Val Type	A-AC1	A-AC2	A-AC3	A-AC4	A-AC5	A-AC6	A-AC7	A-AC8	A-AC9	A-AC10	A-AC11	A-AC12	A-AC13	A-AC14	A-AC15	A-AC16	A-DC1	A-DC2	A-DC3	A-DC4	A-DC5	A-DC6	A-DC7	A-DC8	A-DC9	A-DC10	A-DC11	A-DC12	A-DC13	A-DC14	A-DC15	A-DC16	A-Ph1	A-Ph2	A-Ph3	A-Ph4	A-Ph5	A-Ph6	A-Ph7	A-Ph8	A-Ph9	A-Ph10	A-Ph11	A-Ph12	A-Ph13	A-Ph14	A-Ph15	A-Ph16	

Term	0.00000e+00	0.00000e+00	0.00000e+00	0.00000e+00	0.00000e+00	0.00000e+00	0.00000e+00	0.00000e+00	0.00000e+00	0.00000e+00	0.00000e+00	0.00000e+00	0.00000e+00	0.00000e+00	0.00000e+00	0.00000e+00	0.00000e+00	0.00000e+00	0.00000e+00	0.00000e+00	0.00000e+00	0.00000e+00	0.00000e+00	0.00000e+00	0.00000e+00	0.00000e+00	0.00000e+00	0.00000e+00	0.00000e+00	0.00000e+00	0.00000e+00	0.00000e+00	0.00000e+00	0.00000e+00	0.00000e+00	0.00000e+00	0.00000e+00	0.00000e+00	0.00000e+00	0.00000e+00	0.00000e+00	0.00000e+00	0.00000e+00	0.00000e+00	0.00000e+00	0.00000e+00	0.00000e+00	0.00000e+00	
Factor	1.00000e+00	1.00000e+00	1.00000e+00	1.00000e+00	1.00000e+00	1.00000e+00	1.00000e+00	1.00000e+00	1.00000e+00	1.00000e+00	1.00000e+00	1.00000e+00	1.00000e+00	1.00000e+00	1.00000e+00	1.00000e+00	1.00000e+00	1.00000e+00	1.00000e+00	1.00000e+00	1.00000e+00	1.00000e+00	1.00000e+00	1.00000e+00	1.00000e+00	1.00000e+00	1.00000e+00	1.00000e+00	1.00000e+00	1.00000e+00	1.00000e+00	1.00000e+00	X	X	X	X	X	X	X	X	X	X	X	X	X	X	X	X	

B = Detector Channel
Val Type	B-AC1	B-AC2	B-AC3	B-AC4	B-AC5	B-AC6	B-AC7	B-AC8	B-AC9	B-AC10	B-AC11	B-AC12	B-AC13	B-AC14	B-AC15	B-AC16	B-DC1	B-DC2	B-DC3	B-DC4	B-DC5	B-DC6	B-DC7	B-DC8	B-DC9	B-DC10	B-DC11	B-DC12	B-DC13	B-DC14	B-DC15	B-DC16	B-Ph1	B-Ph2	B-Ph3	B-Ph4	B-Ph5	B-Ph6	B-Ph7	B-Ph8	B-Ph9	B-Ph10	B-Ph11	B-Ph12	B-Ph13	B-Ph14	B-Ph15	B-Ph16	

Term	0.00000e+00	0.00000e+00	0.00000e+00	0.00000e+00	0.00000e+00	0.00000e+00	0.00000e+00	0.00000e+00	0.00000e+00	0.00000e+00	0.00000e+00	0.00000e+00	0.00000e+00	0.00000e+00	0.00000e+00	0.00000e+00	0.00000e+00	0.00000e+00	0.00000e+00	0.00000e+00	0.00000e+00	0.00000e+00	0.00000e+00	0.00000e+00	0.00000e+00	0.00000e+00	0.00000e+00	0.00000e+00	0.00000e+00	0.00000e+00	0.00000e+00	0.00000e+00	-2.02558e+02	-1.16413e+02	-1.30120e+02	-1.82161e+02	-9.57707e+01	-1.01369e+02	-1.59306e+02	-1.62015e+02	-1.14350e+02	-5.77035e+01	-1.70639e+02	-1.72301e+02	-1.77500e+02	-1.76674e+02	-5.36760e+01	-1.49496e+02	
Factor	4.10936e-05	9.52974e-05	2.49006e-05	1.49428e-01	8.83243e-07	8.91524e-07	1.68800e-01	4.93801e-02	1.17695e-06	7.15398e-07	8.34437e-02	2.98807e-02	2.54106e-02	8.75613e-03	1.20421e-06	1.26828e-02	6.26555e-07	6.35961e-07	1.78841e-07	7.42432e-02	6.95763e-09	6.96690e-09	7.86376e-02	2.43642e-02	6.96256e-09	6.98071e-09	3.91092e-02	1.39300e-02	1.23175e-02	4.23067e-03	7.03845e-09	5.88851e-03	X	X	X	X	X	X	X	X	X	X	X	X	X	X	X	X	



#DISTANCE SETTINGS
A = Detector Channel
A-1	A-2	A-3	A-4	A-5	A-6	A-7	A-8	A-9	A-10	A-11	A-12	A-13	A-14	A-15	A-16	

2.5000e+00	3.0000e+00	2.5000e+00	3.0000e+00	2.0000e+00	3.0000e+00	1.5000e+00	3.0000e+00	3.0000e+00	3.0000e+00	3.0000e+00	3.0000e+00	3.0000e+00	3.0000e+00	1.5000e+00	3.0000e+00	

B = Detector Channel
B-1	B-2	B-3	B-4	B-5	B-6	B-7	B-8	B-9	B-10	B-11	B-12	B-13	B-14	B-15	B-16	

1.0000e+01	1.0000e+01	1.0000e+01	1.4400e+00	1.0000e+01	1.0000e+01	1.5100e+00	1.9400e+00	1.0000e+01	1.0000e+01	1.9900e+00	2.4900e+00	2.4100e+00	2.9000e+00	1.0000e+01	2.9800e+00	




#DATA BEGINS
time	group	step	mark	flag	A-AC1	A-AC2	A-AC3	A-AC4	A-AC5	A-AC6	A-AC7	A-AC8	A-AC9	A-AC10	A-AC11	A-AC12	A-AC13	A-AC14	A-AC15	A-AC16	A-DC1	A-DC2	A-DC3	A-DC4	A-DC5	A-DC6	A-DC7	A-DC8	A-DC9	A-DC10	A-DC11	A-DC12	A-DC13	A-DC14	A-DC15	A-DC16	A-Ph1	A-Ph2	A-Ph3	A-Ph4	A-Ph5	A-Ph6	A-Ph7	A-Ph8	A-Ph9	A-Ph10	A-Ph11	A-Ph12	A-Ph13	A-Ph14	A-Ph15	A-Ph16	B-AC1	B-AC2	B-AC3	B-AC4	B-AC5	B-AC6	B-AC7	B-AC8	B-AC9	B-AC10	B-AC11	B-AC12	B-AC13	B-AC14	B-AC15	B-AC16	B-DC1	B-DC2	B-DC3	B-DC4	B-DC5	B-DC6	B-DC7	B-DC8	B-DC9	B-DC10	B-DC11	B-DC12	B-DC13	B-DC14	B-DC15	B-DC16	B-Ph1	B-Ph2	B-Ph3	B-Ph4	B-Ph5	B-Ph6	B-Ph7	B-Ph8	B-Ph9	B-Ph10	B-Ph11	B-Ph12	B-Ph13	B-Ph14	B-Ph15	B-Ph16	aux-1	digaux	

7912.706	1	1	0	256	0.069103	0.26926	0.062486	0.22741	0.028791	0.12721	0.17733	0.33397	0.092332	0.11171	0.040673	0.055633	0.1522	0.2019	0.069033	0.34994	-1.7625	-1.3896	-2.0792	-1.8771	-1.8458	-2.2271	-2.0917	-1.7521	-2.0479	-1.6958	-2.2583	-2.1042	-1.6187	-2.3229	-1.9208	-2.0583	155.013	360.503	155.374	390.326	413.226	206.195	365.225	305.804	221.296	230.906	334.014	383.905	90.852	266.266	133.136	383.009	0.0011027	0.00061254	0.0001662	581.44	6.6875e-06	3.389e-06	892.56	174.98	6.427e-06	7.725e-06	372.65	152.09	65.978	24.284	1.6917e-05	68.379	0.00046461	0.00042618	0.00013104	596.61	5.0191e-06	4.7983e-06	888.48	180.83	5.126e-06	4.7869e-06	368	148.1	67.915	25.016	5.6283e-06	66.296	86.479	234.720	207.768	70.699	81.416	227.919	71.508	76.481	133.766	251.995	76.675	81.550	82.246	87.031	200.637	85.928	-8191	255	
7912.802	1	1	0	0	0.18199	0.51299	0.15754	0.095799	0.013915	0.062457	0.14699	0.12762	0.19642	0.17864	0.1078	0.27707	0.20087	0.11762	0.21793	0.23929	-1.7	-1.3583	-2.1792	-1.8542	-1.7417	-2.1208	-2.0542	-1.9229	-2.2958	-1.6104	-2.1146	-2.0604	-1.5083	-2.1354	-1.9688	-1.8875	166.790	163.409	183.469	398.799	71.905	164.790	308.014	169.168	291.931	159.150	404.417	377.737	365.681	328.124	333.355	377.737	0.0010686	0.00041016	0.0001568	586.44	5.9066e-06	2.1759e-06	895.31	174.82	1.0631e-05	3.6314e-06	370.76	150.78	65.472	24.208	5.4489e-06	68.185	0.00049154	0.00045933	0.0001478	603.44	5.2095e-06	5.2265e-06	899.22	181.34	5.3227e-06	5.2127e-06	368.72	147.44	67.524	25.08	5.9837e-06	66.073	84.325	235.340	150.578	70.691	195.589	165.968	71.145	76.356	177.473	158.718	76.900	81.617	81.831	86.518	243.500	85.593	-8191	255	
7912.897	1	1	0	0	0.14011	0.12359	0.18192	0.22181	0.23047	0.39616	0.42846	0.057853	0.074884	0.12569	0.14248	0.085099	0.21181	0.075949	0.17507	0.17666	-1.7958	-1.5958	-1.8729	-2.0187	-1.2542	-2.2875	-1.9188	-1.9042	-2.0896	-1.8292	-2.0479	-2.3688	-1.8563	-2.1396	-2.1167	-1.75	349.947	406.032	174.936	350.797	355.892	101.017	352.776	360.851	125.862	404.203	290.279	380.562	209.775	99.618	202.184	393.079	0.0012662	0.00093575	0.00021587	581.67	2.3157e-06	9.5238e-06	887.9	173.86	8.9492e-06	8.4644e-06	367.61	149.46	64.822	23.94	6.6627e-06	67.699	0.00048305	0.00048156	0.00015152	597.37	4.9812e-06	5.316e-06	894.07	179.07	5.0142e-06	5.2915e-06	365.33	145.31	66.374	24.908	5.648e-06	65.199	71.117	234.237	193.383	71.161	189.292	173.468	71.595	76.488	113.258	212.897	76.905	81.810	81.625	87.013	262.486	85.769	-8191	255	
7912.993	1	1	0	0	0.27992	0.29787	0.10572	0.13125	0.1094	0.37707	0.29082	0.12758	0.084958	0.081861	0.15197	0.35749	0.22784	0.027892	0.093068	0.24535	-1.8	-1.5896	-1.9292	-2.1125	-1.6292	-2.2542	-2.1771	-1.6458	-2.0958	-2.0187	-1.9083	-2.4042	-1.7604	-2.0146	-2.0521	-1.7667	373.262	328.590	324.624	90.358	135.419	235.812	116.181	331.623	350.761	352.977	394.220	347.190	415.330	130.941	357.873	357.427	0.001494	0.00087846	0.0002304	580.96	7.8255e-06	7.1682e-06	887.6	174.7	4.2417e-06	1.2012e-06	369.61	149.96	64.773	23.972	3.3295e-06	68.033	0.00045474	0.00048775	0.00014115	591.16	4.7309e-06	5.409e-06	886.73	177.68	4.8294e-06	5.4358e-06	364.39	145.62	66.474	25.101	5.4268e-06	65.316	88.682	121.791	172.205	71.040	183.536	192.856	71.465	76.476	197.956	291.211	76.847	82.008	82.048	87.062	228.696	85.926	-8191	255	
7913.089	1	1	0	0	0.36115	0.29216	0.099733	0.21355	0.16483	0.14522	0.15	0.073963	0.094842	0.0049501	0.11378	0.2176	0.085399	0.43106	0.22052	0.12824	-1.6208	-1.975	-1.7563	-2.3063	-1.5667	-2.0812	-2.35	-1.4979	-2.4021	-1.8604	-1.9792	-2.0896	-1.7625	-1.9104	-2.3125	-1.5312	258.137	221.538	384.028	375.431	197.584	371.541	291.674	117.702	323.364	382.877	348.395	371.150	156.353	310.009	325.911	225.682	0.0015219	0.00096131	0.00011878	580.3	4.3023e-06	1.4257e-06	888.71	174.43	6.3686e-06	1.2146e-06	370.37	152.01	65.296	24.143	5.9054e-06	68.607	0.00045712	0.00051178	0.00013573	590.6	4.9469e-06	5.6491e-06	885.98	177.72	5.057e-06	5.6655e-06	364.1	146.26	67.493	25.36	5.2721e-06	65.86	85.746	113.763	281.380	70.692	240.170	199.537	71.768	76.097	133.181	78.060	77.020	81.756	81.866	87.036	293.127	85.963	-8191	255	
7913.185	1	1	0	0	0.23689	0.091077	0.082896	0.11995	0.19102	0.31775	0.21154	0.38929	0.098762	0.15493	0.20433	0.11701	0.21272	0.16521	0.11776	0.039867	-1.9	-1.7917	-1.7021	-2.3208	-1.8062	-1.9229	-2.2	-1.6542	-1.9292	-1.9792	-1.9292	-2.2833	-1.8646	-1.7687	-2.2854	-1.7333	162.638	305.830	201.995	113.173	250.405	101.993	373.343	136.510	150.837	185.475	360.676	274.160	404.225	76.662	311.574	247.952	0.0018057	0.00019896	0.00010343	583.13	5.4691e-06	1.303e-05	892.33	175.1	6.4781e-06	1.4092e-06	372.9	152.15	66.059	24.278	2.3893e-06	68.656	0.00048665	0.00051491	0.00012996	590.32	5.1488e-06	5.4737e-06	885.14	177.86	5.2012e-06	5.398e-06	364.85	146.66	68.014	25.219	4.908e-06	65.677	90.079	300.855	207.819	70.890	160.181	125.705	71.374	76.170	184.297	261.110	76.798	81.950	82.019	86.663	142.739	86.181	-8191	255	
7913.281	1	1	0	0	0.27786	0.18512	0.42593	0.17413	0.064347	0.16631	0.20712	0.26999	0.041703	0.0036893	0.10659	0.27942	0.19289	0.28637	0.038631	0.19601	-1.55	-1.9917	-1.6562	-2.2042	-1.8375	-1.9333	-2.2729	-1.5833	-1.9875	-2.1375	-1.725	-2.375	-1.9833	-1.9792	-2.1021	-1.6333	103.902	389.984	258.359	285.883	158.685	173.193	411.537	251.561	326.207	78.363	137.044	390.208	228.446	64.818	171.800	385.340	0.001687	0.00052608	0.00011652	584.22	5.8484e-06	3.9318e-06	897.81	174.67	5.4424e-06	4.0979e-06	373.26	152.46	66.6	24.776	5.1019e-06	69.361	0.00048196	0.00046621	0.00011958	588.45	5.1174e-06	5.0128e-06	884.83	177.38	5.2068e-06	4.9915e-06	363.73	146.98	68.528	25.323	4.7136e-06	66.577	85.831	133.099	222.918	70.502	146.801	185.819	71.496	76.450	206.382	363.683	77.305	81.585	82.049	86.878	246.760	85.961	-8191	255	
7913.402	1	1	0	0	0.0068872	0.18782	0.17021	0.15278	0.068425	0.16388	0.14427	0.083821	0.17242	0.23825	0.31704	0.26041	0.1487	0.19075	0.44838	0.24285	-1.375	-2.2062	-1.4458	-2.2687	-1.9667	-1.7229	-2.3354	-1.8229	-1.9521	-2.2083	-1.6375	-2.4396	-1.9438	-1.675	-2.2062	-1.9021	115.422	73.350	80.211	77.172	267.375	162.048	356.396	378.349	231.242	173.311	357.537	407.645	311.772	290.848	133.883	298.949	0.0010086	0.00073874	9.0053e-05	583.33	3.1145e-06	3.2138e-06	893.57	175.24	5.7639e-06	5.5336e-06	365.12	148.91	64.436	23.525	1.0869e-05	67.196	0.00048748	0.00045211	0.00011884	590.43	5.3892e-06	5.0522e-06	884.98	178.46	5.6354e-06	5.3568e-06	359.36	145.08	67.724	24.56	5.214e-06	65.173	79.216	210.802	60.775	70.907	119.124	320.107	71.429	76.818	204.593	180.766	76.691	81.858	81.850	87.216	238.788	85.800	-8191	255	
7913.498	1	1	0	0	0.23787	0.27388	0.10628	0.28387	0.23362	0.13125	0.27803	0.15648	0.21368	0.14844	0.15874	0.24053	0.12687	0.34551	0.10945	0.34368	-1.35	-2.2021	-1.6083	-2.1188	-1.8542	-1.4396	-2.2125	-1.9625	-1.8542	-2.2188	-1.7146	-2.0708	-2.1333	-1.7958	-2.4042	-2.2062	385.392	200.143	369.798	84.357	280.351	309.347	385.829	384.595	324.324	417.255	353.951	369.470	393.104	288.533	301.707	375.886	0.0014622	0.00044052	0.00013222	584.48	1.0299e-06	2.2836e-06	887.58	171.2	1.1093e-05	2.4199e-06	367.69	148.42	63.818	23.598	5.7025e-06	66.877	0.00054181	0.00050076	0.0001321	600.4	5.8569e-06	5.3102e-06	881.11	178.67	5.5774e-06	5.215e-06	358.9	145.14	66.943	24.444	4.9967e-06	65.094	99.179	169.319	199.380	71.040	147.309	245.393	71.344	76.603	194.747	164.755	76.891	81.863	81.719	86.647	256.331	86.029	-8191	255	
7913.570	1	1	0	0	0.23894	0.14769	0.12285	0.30529	0.2758	0.085962	0.05948	0.15693	0.12843	0.1068	0.30598	0.31629	0.21126	0.14942	0.061156	0.14797	-1.4292	-2.1958	-1.7667	-2.1521	-2.3354	-1.6917	-2.2812	-2.0167	-1.925	-2.2667	-1.8729	-2.0625	-2.2104	-1.6583	-2.0625	-2.1792	233.618	159.035	305.379	359.571	402.088	141.513	310.653	401.954	121.027	138.179	329.528	385.641	360.316	286.433	65.078	350.281	0.0012052	0.00074139	5.9374e-05	583.72	6.5036e-06	4.8281e-06	889.9	171.06	8.2684e-07	4.9397e-06	365.94	147.39	64.148	23.263	1.7292e-05	66.976	0.00048823	0.000449	0.00012415	596.25	5.2024e-06	4.7635e-06	878.2	177.33	5.0539e-06	4.8334e-06	357.68	144.28	66.035	24.037	5.0653e-06	64.853	78.840	171.166	140.837	71.099	211.660	318.130	71.306	76.875	290.104	69.709	77.066	81.799	81.544	87.185	224.790	85.687	-8191	255	
7913.691	1	1	0	0	0.24714	0.10173	0.36308	0.20731	0.53313	0.27548	0.24715	0.062421	0.14144	0.069557	0.17622	0.19338	0.26002	0.14238	0.14167	0.14886	-1.1063	-2.275	-1.6292	-1.9458	-2.1792	-1.5812	-2.4021	-2.0417	-1.5708	-2.1104	-2.0875	-1.8104	-2.1521	-1.4771	-2.1875	-2.0833	288.320	116.498	157.541	282.845	392.814	202.559	309.883	279.164	329.288	284.112	119.282	375.289	69.789	392.541	205.013	377.917	0.0012502	0.00074664	9.4334e-05	580.86	7.6059e-07	9.6317e-06	889.02	171.54	5.4718e-06	3.3273e-06	364.05	147.6	63.207	23.092	9.2813e-06	66.251	0.00046421	0.00043452	0.00013007	595.35	4.9125e-06	4.535e-06	881.55	176.93	4.8123e-06	4.6779e-06	359.12	143.64	65.233	23.731	5.3178e-06	64.018	71.967	172.120	141.239	70.716	271.170	152.707	71.429	75.936	133.482	151.116	76.828	81.823	82.006	86.956	216.489	86.027	-8191	255	
7913.787	1	1	0	0	0.22969	0.22674	0.26809	0.26722	0.21924	0.10026	0.14098	0.27697	0.22636	0.074782	0.1502	0.152	0.13863	0.37857	0.22328	0.10513	-1.1417	-2.1875	-1.7125	-1.7208	-2.2771	-1.6187	-2.4542	-2.0312	-1.6625	-2.2896	-2.1771	-1.8729	-2.3417	-1.6833	-2.0375	-2.0021	369.306	214.515	399.935	348.094	223.991	209.931	406.903	376.356	396.545	306.972	132.636	283.430	92.900	324.373	105.483	154.449	0.0014981	0.00050412	0.00011504	584.28	1.0414e-06	9.1366e-06	893.57	170.7	7.366e-06	3.5648e-06	362.21	144.34	61.966	22.651	2.5953e-06	64.975	0.000448	0.00042334	0.00013527	594.43	4.7666e-06	4.6032e-06	884.29	174.15	4.6088e-06	4.5591e-06	356.11	139.89	63.399	23.207	5.2155e-06	62.49	90.368	228.138	236.911	70.445	229.424	132.254	71.215	76.313	170.631	242.516	76.722	81.910	82.152	87.194	245.021	85.600	-8191	255	
7913.883	1	1	0	0	0.21092	0.12914	0.37947	0.097373	0.19724	0.087017	0.30227	0.12641	0.17678	0.24771	0.2646	0.17068	0.28194	0.10626	0.064882	0.15561	-1.2437	-2.0771	-1.825	-1.8708	-2.2646	-1.7	-2.0417	-2.4125	-1.6083	-2.2667	-2.0083	-1.8771	-2.2604	-1.7479	-1.775	-2.3417	129.017	120.064	236.197	60.213	68.897	294.727	361.420	102.894	403.857	139.567	346.930	394.148	275.582	243.368	74.154	408.352	0.0013334	0.00080258	0.00012252	582.91	5.0369e-06	3.6792e-06	884.17	168.16	5.4361e-06	6.4217e-06	356.03	143.64	61.177	22.312	5.1642e-06	64.021	0.00041675	0.00042311	0.00013376	589.19	4.5717e-06	4.7571e-06	878.41	172.02	4.4605e-06	4.8438e-06	352.09	138.5	62.7	23.187	5.1557e-06	61.76	91.209	102.441	256.234	70.879	77.698	122.543	71.294	76.580	186.198	252.110	76.923	81.620	81.702	87.166	251.540	86.127	-8191	255	
7913.979	1	1	0	0	0.16578	0.020249	0.15586	0.25226	0.3769	0.1738	0.075077	0.22327	0.24606	0.060176	0.29782	0.12691	0.098363	0.3048	0.16095	0.025344	-1.2375	-2.2854	-2.0583	-1.6	-2.3333	-1.6708	-1.9062	-2.3104	-1.7542	-2.2146	-2.0833	-1.6354	-2.4021	-1.8667	-1.7854	-2.2625	181.771	338.109	403.415	344.738	169.218	294.372	407.426	308.662	336.130	135.379	395.962	400.006	351.429	285.773	249.118	90.678	0.0013364	0.00086902	6.3896e-05	576.73	5.4873e-06	5.2025e-06	874.97	167.63	3.7104e-06	3.5159e-06	357.06	142.29	61.377	22.286	9.8667e-06	64.478	0.00041112	0.0004504	0.00013069	584.78	4.5297e-06	5.0677e-06	871.31	170.77	4.4862e-06	5.0923e-06	350	137.5	62.443	23.309	4.8599e-06	61.786	75.253	202.703	85.671	70.754	179.568	139.826	71.211	76.400	175.002	182.863	77.042	81.441	82.021	86.868	125.551	85.795	-8191	255	
7914.100	1	1	0	0	0.13562	0.089816	0.22623	0.20692	0.2195	0.13979	0.2512	0.31415	0.041499	0.1966	0.13959	0.050194	0.21509	0.14543	0.024875	0.22966	-1.1437	-1.9625	-2.0646	-1.6313	-2.025	-1.8792	-1.6479	-2.3542	-1.6958	-1.9333	-2.0896	-1.6729	-2.1521	-1.8917	-1.7021	-2.4646	378.984	73.912	147.398	371.312	207.011	184.271	264.785	323.684	350.973	306.763	374.851	413.140	129.226	409.885	315.957	392.835	0.0013015	0.00068695	0.00010948	580.74	6.3026e-06	5.6229e-06	882.83	170.29	5.6732e-06	2.7428e-06	361.13	145.7	62.741	22.711	3.886e-06	65.548	0.00041064	0.00045208	0.00012267	581.96	4.4452e-06	5.0187e-06	872.32	172.14	4.4626e-06	5.0377e-06	352.89	139.53	63.84	23.676	4.6168e-06	62.669	93.165	214.926	160.100	70.668	153.996	150.612	71.375	76.335	140.211	129.763	76.873	81.759	82.136	87.251	250.874	85.792	-8191	255	
7914.194	1	1	0	0	0.20884	0.063924	0.081598	0.10968	0.063271	0.11793	0.15475	0.06243	0.10185	0.28645	0.16864	0.44216	0.11018	0.059026	0.047466	0.27395	-1.1979	-1.9875	-2.1208	-1.8708	-2.0667	-2.0771	-1.6375	-2.3979	-1.8708	-1.8479	-2.4396	-1.7396	-2.2375	-1.9417	-1.7229	-2.3937	124.352	76.072	360.370	341.927	140.245	253.592	179.316	366.795	347.166	278.969	381.033	343.509	191.692	174.048	167.396	403.612	0.0017992	0.00091734	0.00010134	579.95	8.4407e-06	4.609e-06	890.63	170.2	1.0572e-05	3.3831e-06	363.35	145.95	62.828	22.853	2.0873e-06	65.866	0.00043272	0.00045824	0.00011859	584.04	4.7058e-06	4.9881e-06	874.83	172.17	4.7383e-06	4.9125e-06	353.7	140.11	64.463	23.717	4.5331e-06	63.001	83.054	128.897	64.820	70.687	211.686	182.630	71.338	76.583	225.244	252.133	76.862	81.997	81.877	87.354	296.664	85.930	-8191	255	
7914.290	1	1	0	0	0.041707	0.043166	0.22091	0.2151	0.14641	0.041532	0.29649	0.10353	0.19388	0.22088	0.17671	0.069284	0.12186	0.11723	0.086694	0.14456	-1.2563	-1.7896	-2.05	-1.6979	-2.1604	-2.3271	-1.5042	-2.2875	-1.8083	-1.8667	-2.2458	-1.8062	-2.0667	-2.2833	-1.625	-2.3563	110.973	302.511	361.318	122.891	301.466	294.368	290.330	336.540	238.886	331.839	357.499	162.965	93.530	76.964	166.372	348.479	0.0012906	0.00048675	0.00013807	582.34	7.2699e-06	2.4622e-06	887	170.18	4.7509e-06	2.9803e-06	362.68	146.08	62.932	22.8	4.4529e-06	65.661	0.00045387	0.00043861	0.00011598	583.9	4.7898e-06	4.6168e-06	872.75	171.94	4.7089e-06	4.4404e-06	352.4	139.73	64.141	23.406	4.1056e-06	62.614	76.186	82.117	332.848	70.915	212.473	150.004	71.394	76.254	70.874	115.270	76.717	81.724	81.781	86.936	244.665	86.013	-8191	255	
7914.386	1	1	0	0	0.10462	0.28605	0.27441	0.17414	0.26314	0.11048	0.076742	0.070422	0.11339	0.041974	0.24812	0.19378	0.10062	0.10105	0.13567	0.26205	-1.5792	-1.7854	-2.3167	-1.8208	-1.9979	-2.1229	-1.8542	-2.2021	-2.0375	-1.6104	-2.5687	-1.6562	-2.1542	-2.2354	-1.7979	-2.2188	59.199	91.586	204.064	101.494	129.554	250.585	336.643	62.574	351.238	368.282	308.287	343.834	257.197	121.397	165.492	408.465	0.0014346	8.5205e-05	5.4258e-05	582.09	6.6108e-06	5.9701e-06	880.51	169.97	7.6257e-06	2.1406e-06	359.22	145.61	62.55	22.608	9.4383e-06	65.541	0.00043156	0.00038826	0.00010487	581.96	4.5719e-06	4.26e-06	864.1	171.16	4.5867e-06	4.2269e-06	348.42	139.71	63.775	23.157	4.0324e-06	62.693	90.100	145.955	401.168	70.438	256.427	266.058	71.250	76.381	203.506	251.875	76.848	81.880	81.798	86.550	277.999	86.081	-8191	255	
7914.482	1	1	0	0	0.13081	0.29127	0.058176	0.22952	0.20795	0.13513	0.2128	0.17113	0.30361	0.12202	0.10074	0.22155	0.11236	0.37118	0.23796	0.18955	-1.5688	-1.6771	-2.425	-1.8625	-1.8396	-2.3479	-1.7938	-2.1604	-2.0083	-1.7417	-2.3042	-1.9188	-1.7354	-2.3438	-1.7208	-2.225	284.404	334.116	410.860	404.387	309.584	102.293	369.612	82.330	136.412	83.511	329.707	87.007	80.695	70.285	122.118	390.688	0.0012638	0.00054998	0.00014423	577.02	6.2743e-06	5.268e-06	879.04	169.86	1.5027e-06	4.2535e-06	361.21	145.94	62.185	22.95	1.4582e-05	66.128	0.00043605	0.00039126	0.00010632	584.54	4.6743e-06	4.3655e-06	866.26	173.03	4.7955e-06	4.409e-06	351.05	141.14	64.144	23.452	4.3134e-06	63.425	89.203	189.063	157.636	70.484	231.126	410.753	71.109	76.559	197.904	192.928	76.817	81.867	82.064	87.122	175.470	86.196	-8191	255	
7914.579	1	1	0	0	0.22641	0.069267	0.12505	0.20676	0.085548	0.13907	0.083174	0.073185	0.2219	0.059149	0.30386	0.24456	0.094299	0.033594	0.22298	0.2538	-1.575	-1.6063	-2.0667	-1.9667	-1.6333	-2.3646	-1.6146	-2.0292	-2.0521	-1.4854	-2.3417	-1.7854	-1.7542	-2.1937	-1.5729	-1.9104	333.080	154.148	118.549	157.872	388.794	125.192	362.893	160.912	169.018	310.905	336.935	375.782	171.744	204.114	130.890	239.666	0.0015309	0.00028368	0.00028775	579.17	7.3966e-06	2.8607e-06	881.74	170.39	7.2835e-06	4.3316e-06	363.45	146.89	63.263	23.195	5.8018e-06	66.468	0.0004382	0.00039394	0.00011213	588.59	4.6303e-06	4.3471e-06	869.04	174.27	4.5993e-06	4.2666e-06	354.29	142.41	64.417	23.528	4.5735e-06	63.981	70.248	142.774	200.231	70.392	405.125	100.091	71.466	76.045	202.727	262.618	76.692	81.945	81.392	86.988	138.846	85.869	-8191	255	
7914.699	1	1	0	0	0.10452	0.080589	0.12976	0.31779	0.19696	0.20951	0.19318	0.054334	0.17496	0.25781	0.17465	0.21584	0.21561	0.17703	0.073477	0.19667	-1.6083	-1.5125	-2.0458	-2.0208	-1.8833	-2.3917	-1.7875	-2.0938	-2.0187	-1.5417	-2.2958	-1.9396	-1.6333	-2.0917	-1.6625	-2.0667	105.886	253.536	134.871	411.444	247.097	369.984	205.648	383.676	213.617	222.761	314.121	357.729	344.652	301.763	350.735	403.865	0.0010251	0.0003804	0.00027341	580.08	3.6641e-06	3.2759e-06	886.69	169.11	9.0924e-06	2.8275e-06	361.99	145.25	61.834	22.539	8.8899e-06	65.797	0.0004282	0.00038755	0.00011781	589.12	4.419e-06	4.2147e-06	874.88	173.06	4.4193e-06	4.1405e-06	353.62	140.7	63.078	23.055	4.7229e-06	63.022	82.316	260.548	177.077	70.637	170.799	141.451	71.440	76.399	197.827	72.656	77.218	81.829	81.437	87.047	229.975	86.054	-8191	255	
7914.794	1	1	0	0	0.21732	0.3049	0.22697	0.089037	0.16935	0.14054	0.093316	0.31706	0.042183	0.073424	0.35143	0.26906	0.20096	0.10775	0.039972	0.47338	-1.7625	-1.5792	-2.025	-1.9062	-1.325	-2.35	-1.9708	-1.6562	-2.2333	-1.6229	-1.9729	-2.3625	-1.3771	-2.3333	-1.7979	-1.9562	356.213	222.038	237.940	188.177	113.381	328.857	212.892	69.878	198.121	225.430	388.140	85.810	275.324	315.246	87.398	399.174	0.0011645	0.00022595	0.0002065	581.48	1.7363e-06	5.6386e-06	885.53	169.9	1.0102e-06	1.7059e-06	363.63	145.39	62.536	22.885	1.3474e-05	66.278	0.00040439	0.00037273	0.00011812	586.64	4.1932e-06	4.0938e-06	876.27	171.54	4.1947e-06	4.0261e-06	354.25	140.29	62.96	23.241	4.6746e-06	63.135	93.738	147.173	103.905	70.685	134.439	167.182	71.513	76.491	299.525	237.924	76.709	81.863	81.650	86.946	239.722	85.877	-8191	255	
7914.867	1	1	0	0	0.085585	0.13619	0.26318	0.17274	0.24683	0.059439	0.10837	0.24383	0.17462	0.2025	0.3762	0.19499	0.1599	0.11344	0.11835	0.1243	-1.7083	-1.7667	-1.9146	-2.1667	-1.4417	-2.2042	-1.8729	-1.6417	-2.2542	-1.9188	-1.9521	-2.3083	-1.6625	-1.9854	-1.8958	-1.6958	77.009	115.061	241.116	408.476	233.535	86.894	345.123	75.945	395.036	223.265	388.507	250.573	160.411	336.009	143.874	77.916	0.0012185	0.00034463	0.00014646	579.93	5.4913e-06	8.2467e-06	887.52	169.23	3.4062e-06	3.6692e-06	363.45	146.45	62.076	22.998	8.0059e-06	66.023	0.00038302	0.0003774	0.00011787	580.98	3.9476e-06	4.1713e-06	872.17	170.66	3.9215e-06	4.1678e-06	352.44	140.05	62.546	23.375	4.5432e-06	63.011	86.022	106.147	346.032	70.828	289.587	118.101	71.434	76.369	245.659	144.470	77.214	81.869	81.818	86.675	331.476	85.980	-8191	255	
7914.963	1	1	0	0	0.26551	0.17062	0.18865	0.12821	0.29228	0.18321	0.39764	0.22324	0.16069	0.25294	0.11285	0.040954	0.33323	0.068403	0.10249	0.37555	-1.8521	-1.7208	-1.9542	-2.2854	-1.4646	-2.1458	-2.1458	-1.5604	-2.125	-1.9146	-1.6125	-2.1437	-1.7167	-2.1188	-2.15	-1.7563	285.943	122.400	312.490	314.736	59.261	155.729	415.755	379.900	198.151	324.012	261.334	213.702	415.714	121.633	364.096	407.652	0.0013897	0.00096981	4.3433e-05	577.09	2.4256e-06	6.5603e-06	887.4	170.37	6.6666e-06	3.6921e-06	363.04	146.02	63.103	22.94	4.8933e-06	66.436	0.0003699	0.00039739	0.00011431	579.1	3.8914e-06	4.4136e-06	871.24	170.76	3.9707e-06	4.5253e-06	353.18	140.47	63.318	23.662	4.6631e-06	63.266	83.612	147.389	244.741	70.726	120.055	180.282	71.399	76.593	160.692	242.769	76.849	81.823	82.199	87.087	144.681	86.053	-8191	255	
7915.082	1	1	0	0	0.10464	0.087142	0.16862	0.071859	0.075103	0.14893	0.31808	0.34192	0.22876	0.07014	0.20461	0.21683	0.098163	0.21739	0.314	0.095938	-1.6208	-2.0062	-1.6354	-2.2208	-1.6521	-1.6896	-2	-1.4375	-1.9354	-1.8729	-1.6667	-2.1958	-1.5667	-1.7875	-2.1333	-1.7021	357.803	302.278	100.122	170.325	318.930	396.405	364.651	382.584	183.325	182.619	141.468	395.191	87.385	380.452	171.775	344.740	0.001477	0.00034234	0.00016052	579.69	4.4627e-06	5.5329e-06	887.66	169.24	1.137e-05	4.1281e-06	362.73	147.22	62.615	23.181	1.0639e-05	66.982	0.00040439	0.00044799	0.00011946	584.09	4.3706e-06	5.011e-06	875.97	171.58	4.5152e-06	5.0606e-06	354.22	141.52	64.164	23.973	4.6757e-06	63.731	78.549	121.308	187.738	70.856	201.350	161.698	71.460	76.512	128.406	248.613	76.879	81.897	82.303	86.817	205.046	85.968	-8191	255	
7915.178	1	1	0	0	0.050272	0.29855	0.028016	0.18469	0.12389	0.18076	0.28372	0.11056	0.19876	0.26479	0.24706	0.15471	0.17871	0.13173	0.053754	0.17219	-1.7458	-1.7563	-1.6063	-2.2458	-1.5063	-1.9625	-2.1813	-1.7896	-2.0646	-2.0396	-1.7208	-2.1771	-1.7875	-1.7167	-2.1458	-1.6229	239.059	133.853	277.752	382.120	246.643	236.100	356.653	265.163	247.745	320.986	63.515	62.372	296.756	397.743	119.892	71.955	0.0015756	0.00055362	0.0001459	578.3	7.2722e-06	2.9503e-06	884.16	170.69	7.3861e-06	1.4721e-06	363.96	147.23	63.003	23.234	4.2357e-06	66.981	0.0004277	0.00044777	0.00011429	581.33	4.6312e-06	4.8145e-06	872.16	171.84	4.6521e-06	4.8211e-06	353.9	141.27	64.319	23.747	4.3403e-06	63.676	82.972	179.703	213.072	70.820	197.445	274.446	71.291	76.455	149.341	379.655	77.040	81.849	81.933	86.570	224.389	86.298	-8191	255	
7915.274	1	1	0	0	0.20365	0.18981	0.23016	0.29792	0.1004	0.19374	0.17913	0.069106	0.29955	0.13079	0.18095	0.074096	0.10347	0.20307	0.19845	0.19099	-1.675	-2.0667	-1.4396	-2.4062	-1.7479	-2.0167	-2.4229	-1.5208	-1.9792	-1.9479	-1.5229	-2.2438	-1.8438	-1.8604	-2.1833	-2.0104	383.368	164.757	270.744	371.496	149.857	97.883	83.358	177.969	304.394	111.104	58.573	85.875	353.874	412.638	296.459	351.304	0.001614	0.00052451	0.00018504	581.32	4.008e-06	3.2797e-06	891.77	170.09	1.0223e-05	3.0538e-06	362.68	147.01	62.526	23.035	5.3975e-06	66.104	0.00043129	0.00042213	0.00010868	582.51	4.7174e-06	4.5201e-06	872.86	171.35	4.7472e-06	4.5686e-06	351.62	141.04	64.388	23.502	4.2732e-06	63.109	77.019	160.456	195.353	70.627	204.170	223.376	71.429	76.269	198.689	386.964	77.093	81.687	82.437	86.767	338.130	85.985	-8191	255	
7915.371	1	1	0	0	0.12829	0.27249	0.19915	0.28659	0.11701	0.099251	0.43285	0.041417	0.28501	0.27877	0.10242	0.18202	0.078599	0.21269	0.0986	0.21445	-1.2958	-2.0438	-1.6792	-2.4083	-1.8792	-1.9062	-2.2521	-1.7917	-1.8292	-2.2875	-1.5979	-2.0563	-1.9875	-1.6667	-2.1146	-2.0583	158.995	380.193	174.806	398.911	251.827	184.725	377.157	377.525	282.073	397.140	125.757	344.727	157.657	343.092	231.712	313.494	0.0014105	0.00075945	0.00021771	579.15	1.3119e-06	1.6243e-06	880.86	168.81	5.2886e-06	2.1133e-06	359.14	145.24	62.154	22.751	6.0288e-06	65.747	0.00043981	0.00040676	0.0001036	580.39	4.6443e-06	4.2182e-06	863.26	170.43	4.5814e-06	4.2083e-06	347.29	139.38	63.337	23.009	3.8904e-06	62.577	88.411	153.324	259.062	70.780	163.924	330.707	71.698	76.265	240.548	108.977	76.978	81.815	81.698	87.063	398.962	86.092	-8191	255	
7915.467	1	1	0	0	0.20343	0.035848	0.16712	0.28273	0.17732	0.17876	0.029994	0.29542	0.067566	0.23448	0.14682	0.18796	0.3044	0.039329	0.22879	0.29275	-1.2458	-2.1229	-1.3583	-2.1688	-1.9521	-1.8646	-2.0479	-1.725	-1.7583	-2.3875	-1.6146	-1.9667	-1.8917	-1.5667	-2.0958	-1.7896	373.393	299.921	417.048	104.236	299.998	195.156	233.201	399.051	363.146	77.224	345.409	368.906	396.238	148.330	308.586	409.455	0.0011653	0.00016808	9.0976e-05	574.56	2.1038e-06	2.706e-06	882.05	168.13	6.4191e-06	6.5133e-07	360.56	144.88	61.988	22.597	6.7742e-06	65.474	0.00040314	0.00037094	9.58e-05	579.57	4.2762e-06	3.9115e-06	860.87	170.05	4.1875e-06	3.9279e-06	346.6	139.56	62.636	22.773	3.792e-06	62.593	90.414	198.039	80.628	70.776	155.417	78.806	71.258	76.485	152.587	342.517	77.095	81.998	81.869	87.261	191.600	85.646	-8191	255	
7915.563	1	1	0	0	0.024596	0.11606	0.1375	0.14765	0.21502	0.050475	0.27813	0.34155	0.16997	0.073781	0.31547	0.24159	0.40719	0.08818	0.30645	0.054679	-1.4	-2.1583	-1.3875	-1.9813	-1.9729	-1.6688	-2.0438	-2.0354	-1.425	-2.2458	-1.5375	-1.9833	-1.975	-1.7146	-2.0292	-2.1229	341.914	58.601	265.663	182.149	372.421	300.837	369.756	299.130	229.098	321.266	407.659	391.241	396.331	367.203	245.671	378.951	0.0011196	0.0011075	0.00024062	576.31	2.0253e-06	3.7723e-06	882.31	168.06	9.7472e-06	3.5894e-06	360.73	145.37	61.071	22.345	1.4169e-05	65.346	0.00037166	0.00034393	9.4565e-05	578.79	3.9689e-06	3.6348e-06	862.24	169.83	3.8803e-06	3.7094e-06	347.7	139.32	61.844	22.538	4.0329e-06	62.336	86.395	239.344	135.217	70.482	377.720	178.310	71.378	76.421	166.366	286.369	77.185	81.808	82.093	86.832	239.965	85.917	-8191	255	
7915.659	1	1	0	0	0.10273	0.094149	0.48045	0.10999	0.12716	0.50145	0.26562	0.21737	0.084469	0.046769	0.22665	0.085407	0.11514	0.27922	0.12476	0.37171	-1.325	-2.375	-1.8229	-1.7292	-2.2313	-1.6938	-2.1021	-2.1979	-1.5458	-2.1437	-1.8604	-1.7417	-2.0896	-1.6833	-1.9188	-2.025	361.321	321.227	341.068	256.135	408.124	145.592	313.066	384.270	62.909	409.236	353.774	210.161	242.256	73.765	244.615	359.548	0.0010575	0.00033862	0.00019957	578.64	1.651e-06	2.4021e-06	888.62	168.32	7.4544e-06	2.4143e-06	355.88	144.04	61.292	22.21	4.1834e-06	65.456	0.00037208	0.00034655	0.0001036	582.37	3.932e-06	3.6786e-06	868.55	169.45	3.8699e-06	3.7263e-06	346.59	138.37	61.607	22.425	4.268e-06	62.095	81.449	334.244	146.808	70.759	320.075	98.474	71.357	76.054	217.765	104.709	76.667	82.100	82.307	87.395	172.095	86.088	-8191	255	
7915.780	1	1	0	0	0.053875	0.14101	0.46973	0.061255	0.21444	0.071061	0.056246	0.35487	0.18643	0.20978	0.15313	0.2466	0.09107	0.22351	0.18956	0.072191	-1.5396	-2.0458	-1.8937	-1.6479	-2.2313	-1.4813	-2.0604	-2.2479	-1.55	-2.1458	-1.9125	-1.8229	-2.2188	-1.6021	-1.9688	-2.1396	346.088	206.485	221.286	278.030	389.688	350.331	133.971	306.003	92.943	246.913	376.738	62.594	253.134	341.736	224.639	305.763	0.001317	0.00018265	8.2436e-05	576.78	1.8799e-06	6.3093e-06	887.43	168.39	2.9236e-06	5.9584e-06	357.27	144.86	61.155	22.46	3.8535e-06	65.267	0.0003521	0.00032886	0.000103	576.3	3.5793e-06	3.3858e-06	861.51	167.43	3.4265e-06	3.4156e-06	345.57	137.41	60.867	22.271	3.6631e-06	61.653	85.323	143.299	111.511	70.686	148.936	125.309	71.321	76.284	249.017	180.165	76.982	81.996	82.019	86.730	187.884	86.108	-8191	255	
7915.874	1	1	0	0	0.17192	0.15509	0.21428	0.059894	0.095712	0.35299	0.063417	0.22707	0.13397	0.25032	0.066334	0.13944	0.17148	0.21162	0.11406	0.1339	-1.0938	-2.0042	-1.9354	-1.8125	-2.2458	-1.6604	-2.1208	-1.9458	-1.4958	-2.0917	-2.0917	-1.7792	-2.1104	-1.8604	-1.8292	-2.3542	318.559	384.297	249.810	377.688	369.371	178.470	164.166	304.242	76.078	343.389	368.023	63.985	360.121	79.034	115.317	374.748	0.0011777	0.00053746	6.8589e-05	575.01	3.3654e-06	1.7128e-06	881.94	167.93	3.0187e-06	1.949e-06	359.45	145.31	61.576	22.497	9.3267e-06	65.45	0.00028971	0.00028077	8.6005e-05	564.58	2.8408e-06	2.9395e-06	854.57	165.29	2.7847e-06	3.0397e-06	344.04	137.1	60.482	22.357	3.352e-06	61.593	78.037	203.239	135.012	70.804	174.706	179.053	71.500	76.409	92.781	129.034	77.120	81.759	81.665	87.215	282.338	86.069	-8191	255	
7915.972	1	1	0	0	0.069209	0.024773	0.15528	0.36222	0.094363	0.1165	0.13727	0.16627	0.14116	0.1064	0.12027	0.16163	0.17321	0.23332	0.17183	0.17426	-1.2854	-2.1688	-1.9333	-1.7354	-2.4188	-1.7708	-1.8021	-2.3229	-1.4833	-2.1917	-2.0146	-1.85	-2.2708	-1.9688	-1.9438	-2.4479	343.424	107.413	315.052	407.594	301.057	90.880	331.633	342.270	417.219	343.832	116.670	394.296	60.613	388.806	268.050	331.455	0.0012146	0.00027271	0.00010612	580.41	4.032e-06	5.1708e-06	883.75	168.44	7.7492e-07	4.6257e-06	361.21	144.93	61.53	22.437	5.5271e-06	65.399	0.0002753	0.00029632	8.566e-05	567.35	2.9337e-06	3.281e-06	858.17	166.14	2.9602e-06	3.4345e-06	345.78	136.79	60.431	22.466	3.4081e-06	61.435	83.325	192.881	191.223	71.137	131.297	209.882	71.294	76.282	339.705	181.446	76.749	82.055	82.266	86.981	93.559	85.943	-8191	255	
7916.091	1	1	0	0	0.040262	0.12789	0.2031	0.11011	0.27859	0.043829	0.011907	0.077111	0.45087	0.15994	0.16616	0.15448	0.153	0.21912	0.14818	0.31577	-1.3125	-2.0104	-1.9021	-1.6229	-2.0938	-2.1208	-1.8	-2.2938	-1.7125	-1.9833	-2.3104	-1.425	-2.4708	-1.9771	-1.675	-2.3104	271.265	365.510	193.480	137.287	380.865	183.180	266.234	402.541	137.345	101.013	84.806	330.095	105.098	326.108	139.545	407.881	0.0013354	0.00057966	0.00012416	576.38	4.1113e-06	4.3155e-06	887.33	168.64	5.419e-06	3.4098e-06	361.71	146.06	61.959	22.429	7.1168e-06	65.897	0.00029226	0.00032091	8.6172e-05	567.79	3.1489e-06	3.53e-06	859.94	166.32	3.2408e-06	3.5959e-06	345.4	137.53	60.915	22.521	3.2966e-06	61.902	75.434	197.683	254.528	70.805	233.606	221.381	71.456	76.655	154.628	219.847	76.968	81.840	81.952	87.257	234.775	85.811	-8191	255	
7916.162	1	1	0	0	0.3404	0.16756	0.051517	0.24903	0.15667	0.23286	0.18203	0.15347	0.29363	0.17902	0.28543	0.22198	0.099644	0.053314	0.085766	0.2273	-1.3625	-1.6833	-2.0458	-1.7563	-2.1583	-2.2583	-1.8333	-2.1271	-1.8604	-1.85	-2.3563	-1.775	-2.0583	-1.9208	-1.4708	-2.4792	98.834	312.659	260.249	407.948	137.713	246.438	348.573	373.698	80.814	166.084	359.261	387.515	384.629	391.512	336.334	364.664	0.0012412	0.00090316	6.124e-05	580.62	7.6513e-06	2.9436e-06	890.58	168.98	8.8934e-06	1.3491e-06	364.88	147.47	63.543	23.09	4.9346e-06	66.758	0.00030966	0.00032192	8.3676e-05	567.56	3.3844e-06	3.6215e-06	863.24	167.59	3.5721e-06	3.6882e-06	348.92	139.64	62.849	23.232	3.4333e-06	63.009	79.162	150.747	81.583	70.977	171.591	274.877	71.361	76.207	158.611	247.889	76.599	81.559	81.781	87.225	231.664	86.093	-8191	255	
7916.259	1	1	0	0	0.18123	0.16042	0.34891	0.24166	0.20238	0.12302	0.19911	0.13157	0.09292	0.29285	0.042689	0.24979	0.19122	0.18254	0.16128	0.21578	-1.2771	-1.6917	-2.2313	-1.5458	-1.8146	-2.1292	-1.45	-2.2125	-1.8125	-1.6917	-2.225	-1.7333	-1.7271	-2.0583	-1.4125	-2.3417	211.564	256.029	289.809	384.319	321.551	144.398	228.562	104.585	116.283	311.574	115.597	62.473	280.749	262.646	260.509	360.495	0.0013454	0.00028859	6.406e-05	580.8	5.4209e-06	3.1031e-06	887.71	170.56	2.1462e-06	3.1019e-06	364.11	147.66	62.686	22.857	9.3959e-06	66.243	0.00035173	0.00033396	8.8684e-05	573.03	3.8745e-06	3.7631e-06	864.57	169.33	3.9366e-06	3.7541e-06	350.15	139.47	62.987	22.985	3.5469e-06	62.714	84.493	82.849	403.734	70.971	185.254	222.333	71.386	76.381	94.999	187.231	76.584	81.736	81.578	86.952	191.064	85.829	-8191	255	
7916.379	1	1	0	0	0.074726	0.36962	0.1229	0.076797	0.43011	0.15433	0.19199	0.17296	0.054779	0.23605	0.17322	0.23369	0.13639	0.073596	0.16832	0.35482	-1.3708	-1.75	-2.1125	-1.5792	-1.9688	-2.1333	-1.4708	-2.1083	-1.8854	-1.4917	-2.2458	-1.9146	-1.7313	-2.1396	-1.6625	-2.2083	114.766	312.362	360.109	347.778	344.327	115.004	307.890	347.796	303.373	92.938	402.959	389.566	73.038	314.643	161.083	345.604	0.0013661	0.00050449	0.00010886	576.31	2.5308e-06	1.9263e-06	885.93	168.15	1.8812e-06	5.6708e-06	359.49	144.61	62.137	22.472	2.3331e-06	65.888	0.00037941	0.00034233	9.0908e-05	574.86	3.9878e-06	3.7148e-06	856.58	168.01	3.9138e-06	3.5726e-06	344.19	137.89	61.787	22.459	3.3102e-06	62.38	89.732	339.789	155.553	70.886	237.545	218.324	71.185	76.159	142.146	146.692	76.559	81.802	82.158	86.715	180.608	85.828	-8191	255	
7916.475	1	1	0	0	0.17693	0.20341	0.11834	0.14142	0.14748	0.23814	0.29915	0.35015	0.11593	0.073452	0.19553	0.065011	0.094712	0.054298	0.11004	0.23819	-1.4042	-1.5	-2.1208	-1.7229	-1.7812	-2.1979	-1.6792	-1.9792	-1.9229	-1.6104	-2.15	-1.8917	-1.8042	-2.2375	-1.6896	-2.0521	224.350	228.348	158.414	188.333	152.289	210.547	254.640	410.214	338.866	240.321	404.417	334.467	144.044	333.223	102.030	278.432	0.0012889	0.00029927	0.00013495	580.44	4.2887e-06	6.7269e-06	883.67	168.97	4.247e-06	3.2704e-06	362.17	147.59	61.707	22.703	3.8301e-06	66.511	0.00034995	0.00030914	8.2594e-05	571.15	3.5124e-06	3.2501e-06	854.21	168.19	3.37e-06	3.0723e-06	344.89	139.09	60.935	22.393	2.9008e-06	62.577	89.214	99.700	200.059	71.018	409.048	140.687	71.310	76.301	208.000	174.331	76.993	81.785	81.815	86.708	229.155	85.958	-8191	255	
7916.572	1	1	0	0	0.12178	0.1574	0.16291	0.1927	0.32084	0.1919	0.066156	0.33737	0.20606	0.011388	0.0968	0.22334	0.038299	0.11279	0.10943	0.38932	-1.7583	-1.5417	-2.2	-1.7625	-1.6896	-2.2417	-1.6458	-1.9125	-2.0563	-1.5	-2.325	-1.9937	-1.675	-2.1583	-1.6812	-1.9854	188.928	188.603	280.554	64.550	416.966	359.507	349.522	360.219	81.706	122.960	259.798	413.950	378.245	365.828	201.951	328.190	0.0013825	0.00039836	0.00014679	572.42	1.8849e-06	3.5188e-06	886.39	169.09	5.5459e-06	5.8822e-07	363.85	148.42	63.041	23.257	9.5089e-06	67.284	0.00029331	0.00025563	7.314e-05	565.39	2.951e-06	2.7871e-06	853.94	167.14	2.8784e-06	2.7048e-06	345.89	139.42	61.324	22.602	2.7914e-06	63.092	78.523	227.878	153.914	70.787	275.329	223.461	71.261	76.490	114.116	86.090	77.167	81.709	81.867	87.031	205.445	86.256	-8191	255	
7916.668	1	1	0	0	0.11645	0.25483	0.093792	0.22358	0.14736	0.10865	0.18611	0.37109	0.36949	0.20523	0.063437	0.60207	0.33612	0.17613	0.12859	0.35529	-1.6979	-1.4542	-2.0417	-1.9979	-1.5771	-2.3417	-1.6812	-1.8687	-2.0812	-1.7458	-2.0875	-2.0604	-1.4354	-2.1792	-1.7458	-1.8687	279.511	209.877	90.690	316.934	299.833	112.620	298.070	365.727	124.885	340.123	83.019	378.084	67.329	254.519	412.002	325.883	0.001374	0.00034017	6.0852e-05	576.68	4.839e-07	8.384e-07	890.83	171.99	5.7556e-06	2.4981e-06	371.48	151.4	64.236	23.555	7.7054e-06	68.378	0.0002637	0.00023035	7.0879e-05	564.43	2.6714e-06	2.5429e-06	858.56	168.6	2.7083e-06	2.5461e-06	351.01	141.82	62.058	22.874	2.9053e-06	63.849	82.193	383.972	137.977	70.849	92.166	117.045	71.269	76.645	300.008	217.111	76.793	81.691	81.829	86.922	182.081	85.927	-8191	255	
7916.764	1	1	0	0	0.23088	0.069755	0.26559	0.15491	0.14483	0.016732	0.32917	0.057863	0.052455	0.19063	0.23397	0.33775	0.048774	0.057235	0.25248	0.22189	-1.7667	-1.5646	-2.1146	-2.1583	-1.3563	-2.4188	-1.9333	-1.7146	-2.3792	-1.4771	-2.1437	-2.0812	-1.6125	-2.225	-1.6667	-2.0208	223.375	254.299	89.556	352.722	162.126	362.827	362.729	252.625	152.065	331.303	61.474	378.018	405.034	333.336	104.651	64.140	0.0011965	0.00068957	0.0001189	574.28	2.834e-06	3.4787e-06	896.83	172.08	2.8569e-06	4.8678e-06	371.3	151.1	63.917	23.532	4.0261e-06	67.831	0.00025745	0.00023217	7.4544e-05	563.55	2.6368e-06	2.5815e-06	862.57	168.42	2.6484e-06	2.5709e-06	351.38	141.53	61.692	22.888	2.9515e-06	63.407	94.974	112.033	152.301	70.759	194.015	192.394	71.246	76.285	182.999	199.628	77.043	81.809	82.046	87.135	180.637	85.996	-8191	255	
7916.860	1	1	0	0	0.22034	0.092021	0.17412	0.4084	0.10718	0.082916	0.19905	0.16664	0.0245	0.15518	0.11288	0.13861	0.29875	0.29146	0.10498	0.20215	-1.6458	-1.7271	-1.6979	-2.1125	-1.6417	-2.1333	-2.0958	-1.6437	-2.1583	-1.6104	-2.2333	-2.2562	-1.5125	-1.9688	-2.0625	-1.7229	244.790	382.941	163.626	325.305	90.817	225.765	337.499	272.444	153.496	72.980	342.935	346.502	77.997	131.479	146.469	366.419	0.0014553	0.00023777	0.00010166	574.82	2.165e-06	5.3059e-06	890.17	172.54	5.3812e-06	5.1059e-06	370.96	150.99	64.299	23.601	6.6644e-06	68.056	0.00024779	0.00024092	7.4378e-05	560.73	2.5683e-06	2.7257e-06	860.83	168.05	2.5654e-06	2.7468e-06	351.95	141.61	61.893	23.071	3.0193e-06	63.503	86.326	226.140	169.263	70.969	404.734	170.200	71.508	76.403	197.011	258.512	77.182	81.561	81.875	86.977	203.212	85.895	-8191	255	
7916.956	1	1	0	0	0.12904	0.34309	0.21049	0.12276	0.14429	0.20267	0.32713	0.42543	0.107	0.20397	0.19016	0.22154	0.037595	0.26687	0.13424	0.044008	-1.9646	-1.5333	-1.8625	-2.1771	-1.3687	-1.9896	-2.2812	-1.5854	-2.2792	-1.5646	-2.0354	-2.1229	-1.8	-2.0792	-1.9417	-1.7313	69.117	324.215	326.564	92.835	131.049	262.968	332.216	332.295	407.093	354.026	395.231	259.974	293.707	359.791	342.632	143.568	0.0014183	0.00080804	9.6359e-05	575.22	5.819e-06	6.2512e-07	896.59	172.08	5.9749e-06	2.7327e-06	371.14	151.71	64.285	23.56	2.5737e-06	68.236	0.00025074	0.0002638	7.5504e-05	562.78	2.6157e-06	2.9695e-06	862.16	167.95	2.6549e-06	3.0278e-06	352.28	141.78	62.044	23.164	2.9635e-06	63.729	87.214	180.255	282.934	70.771	210.423	388.962	71.171	76.515	192.233	245.305	76.833	81.815	81.987	86.768	189.797	85.929	-8191	255	
7917.052	1	1	0	0	0.11552	0.1997	0.11532	0.25454	0.19911	0.045193	0.46027	0.47208	0.22623	0.13658	0.12476	0.33012	0.11757	0.076379	0.20502	0.20165	-1.5146	-1.8167	-1.5542	-2.1042	-1.7604	-1.9792	-2.1354	-1.3042	-2.2521	-1.8625	-1.7229	-2.4208	-1.6104	-1.9062	-2.075	-1.5375	125.354	101.716	318.221	366.077	186.819	384.028	332.465	73.713	313.438	350.772	101.657	379.894	241.772	139.389	383.420	331.737	0.0014455	0.00016888	1.3004e-05	577.02	6.5441e-06	6.3067e-06	898.52	172.64	5.6336e-06	2.009e-06	373	151.46	64.981	23.814	4.4646e-06	68.638	0.00025872	0.00028047	7.3883e-05	562.3	2.7234e-06	3.0374e-06	863.54	168.31	2.7878e-06	3.1464e-06	352.89	142.25	62.698	23.393	2.8699e-06	64.005	88.454	184.555	411.198	70.925	210.803	182.953	71.464	76.522	230.470	207.055	76.713	82.043	82.050	86.966	135.891	85.961	-8191	255	
7917.171	1	1	0	0	0.15806	0.14322	0.1293	0.1601	0.22527	0.261	0.010274	0.20948	0.16774	0.097181	0.16153	0.054745	0.23081	0.18541	0.20854	0.093285	-1.4688	-1.8271	-1.75	-2.2854	-1.6667	-1.7271	-2.2687	-1.2583	-2.0292	-1.9771	-1.7104	-2.2604	-1.6375	-1.7542	-1.9604	-1.6958	347.680	201.810	147.694	333.940	324.968	192.843	280.789	347.220	81.789	245.253	337.461	365.610	95.022	401.082	170.042	377.599	0.0012972	0.00034322	0.00012702	576.47	3.709e-06	2.2439e-06	897.26	172.43	2.4553e-06	2.7719e-06	371.43	152.18	64.54	23.736	6.3476e-06	68.757	0.00027191	0.00027861	7.1138e-05	561.21	2.8784e-06	2.9776e-06	861.83	168.59	2.8673e-06	2.9751e-06	352.77	142.31	62.839	23.189	2.8046e-06	64.086	86.761	319.739	135.020	70.679	127.333	214.782	71.445	76.507	153.330	220.849	76.701	82.015	81.875	86.776	267.076	85.995	-8191	255	
7917.267	1	1	0	0	0.093745	0.20045	0.054795	0.22788	0.38189	0.19166	0.14731	0.30253	0.062191	0.16149	0.21272	0.32949	0.045107	0.15206	0.14255	0.21546	-1.4479	-1.9521	-1.3542	-2.2167	-1.6542	-1.875	-2.2812	-1.6208	-1.9875	-1.9396	-1.5958	-2.3083	-1.6792	-1.6021	-2.15	-1.8625	333.869	274.371	177.620	403.072	383.591	226.429	355.112	336.179	264.833	113.145	166.417	70.104	319.090	320.242	196.898	400.753	0.0014591	0.00042347	0.00017503	576.44	3.6232e-06	3.9104e-06	897.05	172.44	5.2965e-06	3.4576e-06	371.65	151.71	64.775	23.741	6.4827e-06	68.579	0.00028623	0.00026788	6.9577e-05	561.97	3.0412e-06	2.8895e-06	861.31	168.58	3.0578e-06	2.9103e-06	351.62	142.18	63.097	23.213	2.7591e-06	64.16	82.768	93.502	158.792	70.830	203.423	162.320	71.439	76.851	142.300	173.686	76.857	81.767	81.444	86.926	387.261	86.034	-8191	255	
7917.363	1	1	0	0	0.086749	0.26711	0.09379	0.31722	0.12687	0.31353	0.28464	0.12374	0.10131	0.18924	0.041063	0.25885	0.33274	0.052828	0.10762	0.21605	-1.6458	-1.9917	-1.7479	-2.0354	-1.8979	-1.7417	-2.2062	-1.9167	-1.9354	-2.0812	-1.9104	-2.4292	-2	-1.6854	-2.1146	-1.9229	388.534	344.420	293.011	130.657	168.612	372.454	287.357	87.363	123.547	223.745	375.688	343.566	157.072	257.454	265.355	379.958	0.0013915	0.00050179	3.2804e-05	572.57	3.0613e-06	3.676e-06	893.91	172.64	1.1203e-05	2.7809e-06	367.19	149.17	63.04	23.325	7.1351e-06	68.341	0.00029339	0.00026213	6.8464e-05	562.38	3.0764e-06	2.804e-06	856.24	167.91	2.9366e-06	2.7658e-06	347.39	140.21	61.644	22.631	2.6009e-06	63.562	86.215	126.903	364.003	70.882	143.457	65.143	71.410	76.234	167.915	208.774	76.742	81.923	81.587	87.004	249.489	86.218	-8191	255	
7917.460	1	1	0	0	0.15442	0.22793	0.35551	0.073207	0.038869	0.022158	0.16952	0.13879	0.14821	0.23377	0.12829	0.15313	0.094257	0.14952	0.1017	0.27297	-1.4375	-2.0667	-1.3813	-1.9458	-1.9771	-1.6833	-2.3854	-1.9062	-1.7771	-2.1292	-1.6375	-2.2229	-2.025	-1.3625	-2.4188	-1.8229	393.832	411.462	356.012	368.790	278.104	231.597	383.008	371.494	164.779	322.222	137.674	339.759	264.463	347.487	333.525	387.701	0.0014859	0.0003546	0.0001283	572.55	3.0133e-06	1.1653e-06	890.51	172.22	4.8098e-06	5.1989e-06	371.43	151.21	64.337	23.709	8.8752e-06	68.396	0.00027365	0.00024748	6.5051e-05	560.99	2.8643e-06	2.6545e-06	855.28	168.59	2.8052e-06	2.652e-06	349.42	141.87	62.26	22.975	2.6306e-06	64.206	81.304	112.509	127.480	70.832	141.206	208.676	71.715	76.572	149.635	175.241	76.884	81.880	81.894	87.210	176.764	85.752	-8191	255	
7917.556	1	1	0	0	0.25778	0.37998	0.052372	0.16546	0.0713	0.14299	0.16605	0.14626	0.1303	0.20781	0.14481	0.10162	0.095505	0.17099	0.115	0.25456	-1.2563	-2.1292	-1.5354	-2.1229	-2.1833	-1.5167	-2.3333	-1.8167	-1.8333	-2.3354	-1.5958	-2.125	-2.1375	-1.5042	-2	-1.9792	228.182	374.962	149.261	398.622	169.468	143.705	65.709	149.405	114.726	324.070	217.336	225.631	80.279	90.706	88.492	226.753	0.0013668	0.00050351	3.5472e-05	571.48	4.9714e-06	5.5939e-06	895.9	172.96	8.5208e-06	3.0774e-06	376.24	152.2	65.121	23.955	1.4422e-05	69.487	0.00026717	0.00024082	6.6397e-05	562.59	2.7697e-06	2.5706e-06	859.66	169.98	2.7326e-06	2.5837e-06	354.2	143.53	63.066	23.195	2.7076e-06	64.908	81.830	410.797	113.926	70.862	194.407	117.203	71.372	76.156	232.786	173.958	77.239	81.627	82.052	86.897	170.732	86.341	-8191	255	
7917.652	1	1	0	0	0.086699	0.20675	0.12669	0.23744	0.046263	0.28242	0.30281	0.087827	0.26856	0.21476	0.49419	0.09057	0.053156	0.27298	0.14574	0.14577	-1.2062	-2.1813	-1.6063	-1.9292	-2.1167	-1.5542	-2.1792	-2.0146	-1.6042	-2.1792	-1.6625	-1.7854	-2.1146	-1.5625	-2.0083	-2.0458	115.359	216.656	271.174	380.798	66.671	233.283	297.978	356.731	403.999	296.696	337.448	303.409	147.035	392.728	237.786	252.287	0.0013643	0.00058244	0.00015413	579.48	1.9512e-06	3.3686e-06	903	173.84	2.5731e-06	3.1097e-07	375.88	154.4	65.297	24.034	1.3759e-05	69.68	0.00025485	0.00023227	6.9516e-05	564.35	2.671e-06	2.4872e-06	865.05	170.02	2.6143e-06	2.5025e-06	355.54	144.37	63.032	23.217	2.7806e-06	65.041	90.614	142.110	152.037	71.245	336.318	157.357	71.254	76.295	266.833	349.891	77.015	81.692	81.759	87.181	225.023	85.902	-8191	255	
7917.773	1	1	0	0	0.21089	0.13075	0.26023	0.12892	0.080094	0.046645	0.20838	0.10622	0.010886	0.26877	0.12894	0.32519	0.26782	0.09326	0.11116	0.1334	-1.1021	-2.1854	-1.7938	-1.7979	-2.2271	-1.4833	-2.1833	-2.0687	-1.7708	-2.0958	-1.9146	-1.95	-2.2667	-1.6646	-2.0146	-1.9833	371.819	417.402	177.888	410.847	194.638	96.618	332.484	416.756	205.431	149.704	353.217	386.188	384.979	109.841	144.253	392.958	0.001378	0.00040215	4.333e-05	573.75	1.2419e-06	1.9191e-06	899.25	175.2	3.4088e-06	1.0198e-05	374.4	153.67	65.221	24.274	9.4552e-06	69.45	0.00024409	0.00022607	7.1145e-05	560.92	2.5673e-06	2.4763e-06	863.85	169.76	2.5295e-06	2.4976e-06	355.17	143.59	62.773	23.343	2.8308e-06	64.783	83.315	189.091	413.152	70.812	237.707	169.169	71.415	76.160	166.215	211.262	77.085	81.536	81.892	86.785	219.058	85.888	-8191	255	
7917.867	1	1	0	0	0.28403	0.22171	0.080681	0.072291	0.14358	0.11384	0.27495	0.11634	0.11719	0.30287	0.12839	0.27925	0.14924	0.037688	0.21139	0.27211	-0.96667	-1.9354	-1.5875	-1.7917	-2.4229	-1.7083	-2.0646	-2.1417	-1.7437	-2.05	-2.0667	-1.7125	-2.3667	-1.775	-1.7271	-2.3812	128.552	58.900	292.556	248.443	91.500	348.470	327.632	371.153	274.751	253.992	80.957	413.799	376.227	347.177	205.215	359.537	0.0013639	0.00038441	5.5917e-05	574.68	7.5947e-07	1.9121e-06	896.41	173.3	7.9543e-06	5.6388e-06	377.22	154.21	65.453	24.165	5.3509e-07	70.07	0.00023928	0.00023273	7.2679e-05	561.03	2.5347e-06	2.6208e-06	861.49	169.52	2.5496e-06	2.6852e-06	356.06	144.25	63.216	23.636	2.8666e-06	65.332	82.879	197.955	58.740	70.545	263.040	231.321	71.439	76.656	132.370	235.913	77.172	81.648	81.872	86.805	220.525	85.817	-8191	255	
7917.963	1	1	0	0	0.27719	0.32538	0.096826	0.11873	0.27151	0.17957	0.080253	0.13092	0.17713	0.14986	0.12392	0.29412	0.18162	0.25388	0.17837	0.28479	-1.0625	-2.1625	-1.725	-1.7938	-2.225	-2.05	-1.7833	-2.5521	-1.4729	-2.1417	-2.1833	-1.7313	-2.3104	-1.8583	-1.7021	-2.3812	101.401	74.894	367.111	155.698	190.708	83.968	102.521	216.208	411.496	340.381	384.469	385.153	268.553	79.147	144.320	367.894	0.0013925	0.00034307	6.606e-05	574.04	3.6445e-06	6.1265e-06	898.72	175.07	8.4617e-06	9.6828e-07	374.9	154.01	66.017	24.262	3.2359e-06	69.854	0.00024671	0.00025915	7.4544e-05	561.38	2.5947e-06	2.9037e-06	865.4	170.55	2.589e-06	2.8941e-06	356.14	144.45	63.312	23.707	2.8372e-06	65.26	87.622	100.695	73.429	71.204	217.036	174.951	71.253	76.400	184.243	219.817	76.712	81.943	81.586	87.348	210.042	85.954	-8191	255	
7918.061	1	1	0	0	0.10124	0.11653	0.18504	0.31801	0.1584	0.19389	0.28339	0.024655	0.17842	0.12519	0.13094	0.2305	0.028751	0.18693	0.037666	0.14008	-1.1708	-1.8646	-2.0396	-1.6792	-2.2062	-1.7875	-1.7833	-2.3625	-1.7854	-1.9604	-2.2188	-1.5	-2.1125	-2.0229	-1.8563	-2.3458	238.326	300.286	73.196	392.956	171.709	384.456	343.285	416.314	291.432	60.429	411.581	343.288	200.213	79.889	81.641	316.271	0.0015064	0.00032152	0.00010902	574.6	5.9038e-06	4.5587e-06	898.38	174.58	4.7829e-06	1.3847e-06	379.74	155.66	66.374	24.447	6.7169e-06	71.007	0.00024977	0.00026449	7.1515e-05	560.92	2.6078e-06	2.8943e-06	864.56	170.16	2.6413e-06	2.8404e-06	357.89	145.56	64.012	23.95	2.7204e-06	65.871	88.351	209.387	138.512	70.897	196.931	138.618	71.489	76.377	155.694	369.936	77.002	81.819	82.047	87.015	169.228	85.933	-8191	255	
7918.155	1	1	0	0	0.30443	0.12272	0.12646	0.12188	0.18257	0.17097	0.27101	0.18158	0.25965	0.17167	0.28538	0.25923	0.18638	0.025792	0.026623	0.18318	-1.4312	-1.8854	-2.3271	-1.5917	-1.9417	-1.9354	-1.7563	-2.2167	-1.8917	-1.8458	-2.4292	-1.6271	-2.0167	-1.9792	-1.6042	-2.35	343.869	233.319	215.279	321.356	181.733	176.299	82.174	299.575	372.003	391.777	360.239	67.009	405.604	251.097	342.084	391.189	0.0016444	0.0003423	8.034e-05	577.46	4.0666e-06	1.5135e-06	905.44	176.45	6.2227e-06	1.5477e-06	377.71	155.49	66.388	24.512	2.6502e-06	70.681	0.00026093	0.00025947	6.9829e-05	560.92	2.6987e-06	2.8447e-06	867.15	171.07	2.7936e-06	2.8339e-06	358.47	145.27	64.118	23.86	2.6705e-06	65.785	80.411	159.378	139.522	71.129	242.226	227.291	71.283	76.609	188.078	261.127	77.078	81.801	81.783	86.901	163.059	85.951	-8191	255	
7918.252	1	1	0	0	0.10589	0.28433	0.099837	0.22184	0.2204	0.085839	0.13431	0.29121	0.1697	0.05587	0.11116	0.326	0.31356	0.22582	0.24462	0.12464	-1.1771	-1.7042	-2.25	-1.4583	-2.0479	-1.8062	-1.6625	-2.1937	-1.9792	-1.7292	-2.2792	-1.8125	-1.9292	-1.8771	-1.4604	-1.9542	148.186	68.545	142.130	282.327	72.530	84.188	87.563	346.530	183.732	338.015	162.190	400.285	300.994	63.547	136.309	232.567	0.0014337	0.00060011	0.00011681	579.2	3.2616e-06	1.748e-06	900.12	175.99	4.1455e-06	2.0894e-06	380.98	155.32	66.732	24.473	3.5562e-06	70.457	0.00026952	0.00025112	6.637e-05	560.98	2.801e-06	2.7293e-06	863.78	170.68	2.8248e-06	2.6888e-06	357.65	145.45	64.285	23.738	2.4991e-06	65.455	81.773	174.558	254.490	70.805	211.950	160.181	71.260	76.441	140.915	183.502	76.971	81.661	81.862	87.363	335.625	86.131	-8191	255	
7918.348	1	1	0	0	0.065355	0.013471	0.18361	0.41	0.15058	0.11653	0.15576	0.2067	0.16871	0.3045	0.28689	0.068444	0.16625	0.35813	0.089953	0.080592	-1.425	-1.3687	-2.2438	-1.6187	-1.8229	-2.0333	-1.55	-1.9354	-1.9583	-1.5667	-2.3563	-1.6896	-1.8979	-2.1312	-1.5521	-2.0271	229.524	362.114	223.549	363.511	267.124	141.827	85.095	404.979	325.290	349.368	404.833	157.580	350.630	369.496	310.131	84.300	0.0013932	0.00044859	1.8914e-05	574.72	5.0105e-06	3.665e-06	900.55	174.33	4.0564e-06	2.7324e-06	379.64	156.4	67.355	24.864	8.1174e-06	71.307	0.00026571	0.00023469	6.3595e-05	560.49	2.734e-06	2.6112e-06	860.72	170.55	2.7344e-06	2.5486e-06	357.26	146.09	64.557	23.952	2.3713e-06	66.157	86.459	130.766	231.458	70.982	151.823	251.302	71.474	76.498	201.451	200.882	76.834	81.535	81.694	86.853	190.238	85.725	-8191	255	
7918.468	1	1	0	0	0.1505	0.29006	0.021298	0.097257	0.23359	0.34904	0.26769	0.090028	0.29	0.33075	0.10708	0.10566	0.16544	0.096699	0.12477	0.07403	-1.3292	-1.6708	-2.2313	-1.6271	-1.9771	-2.0792	-1.8188	-1.825	-1.8854	-1.4125	-2.4167	-1.9271	-1.8229	-2.2104	-1.4062	-2.1792	267.561	286.351	204.382	379.656	349.722	261.660	386.070	377.483	211.333	216.702	263.683	317.086	73.561	127.663	366.544	111.336	0.001299	0.00021968	0.00018053	576.93	1.6877e-06	4.437e-06	903.92	174.48	9.3305e-06	1.217e-06	375.88	154.33	66.037	24.215	1.945e-06	70.052	0.00025405	0.00022543	6.0136e-05	560.83	2.5775e-06	2.4289e-06	860.79	170.03	2.5417e-06	2.3464e-06	353.98	144.11	63.264	23.371	2.2808e-06	65.112	78.045	133.233	172.794	70.939	158.905	205.425	71.322	76.478	141.961	212.360	77.086	81.781	82.124	87.026	236.444	86.238	-8191	255	
7918.564	1	1	0	0	0.22089	0.022612	0.046735	0.25875	0.073425	0.092115	0.21495	0.19626	0.26057	0.10549	0.30181	0.2037	0.28558	0.35174	0.095181	0.093758	-1.4854	-1.45	-2.0417	-1.9708	-1.6708	-2.2167	-2.0812	-1.9625	-2.0812	-1.4188	-2.3979	-1.8563	-1.725	-2.1792	-1.6625	-2.0375	243.867	328.634	236.464	322.871	177.996	217.794	356.908	312.667	126.860	355.424	279.894	254.313	231.069	110.479	288.718	311.271	0.0012805	0.00027255	0.00021455	578.18	3.2537e-06	3.047e-06	899.05	175.58	5.4523e-06	2.8234e-06	379.4	154.92	66.194	24.325	9.1616e-06	70.819	0.00023393	0.00020564	5.7502e-05	559.93	2.3985e-06	2.2627e-06	861.87	169.88	2.4076e-06	2.2567e-06	355.84	144.82	63.437	23.498	2.3848e-06	65.704	84.532	164.812	133.276	70.939	121.361	188.764	71.475	76.216	146.822	262.650	76.812	81.934	81.771	86.865	238.765	85.903	-8191	255	
7918.636	1	1	0	0	0.014354	0.1559	0.27029	0.072034	0.11028	0.16631	0.072573	0.13305	0.069639	0.12385	0.1772	0.19852	0.15039	0.21364	0.049125	0.12403	-1.8312	-1.5021	-1.9937	-1.8771	-1.4937	-2.2979	-1.975	-1.85	-2.2271	-1.6229	-2.0125	-2.1333	-1.5021	-2.1583	-1.9125	-1.9458	205.030	66.770	135.604	383.118	94.475	377.358	300.034	398.820	96.378	86.398	281.290	122.389	112.258	405.945	137.232	172.464	0.0012943	0.00018032	0.00016593	580.02	2.3876e-06	1.2196e-06	906.86	176.08	1.503e-06	2.8372e-06	380.32	155.12	66.194	24.327	1.3089e-06	70.245	0.00023428	0.00020589	6.2391e-05	560.82	2.3259e-06	2.2537e-06	864.82	170.56	2.3119e-06	2.1839e-06	356.76	144.57	62.893	23.27	2.4322e-06	65.189	89.712	153.040	106.570	70.871	132.470	123.696	71.216	76.416	63.691	203.167	77.205	81.356	81.954	87.048	221.441	85.948	-8191	255	
7918.732	1	1	0	0	0.090402	0.28759	0.29077	0.32876	0.25122	0.096018	0.1921	0.087496	0.088067	0.11412	0.14007	0.10933	0.2107	0.10472	0.15224	0.023835	-1.7437	-1.5104	-1.9583	-2.1292	-1.5312	-2.3125	-1.9125	-1.7042	-2.1583	-1.5354	-1.8271	-2.3542	-1.5396	-2.2625	-1.7958	-1.9146	269.879	323.298	227.085	278.430	246.881	367.962	334.215	314.615	118.602	201.854	72.602	350.720	342.437	342.794	117.417	150.951	0.0014268	0.00013662	0.00018795	574.18	3.6518e-06	2.5083e-06	901.57	175.63	6.8843e-06	1.1952e-06	377.5	154.32	65.763	24.121	7.0703e-06	69.475	0.00021928	0.00019197	6.1184e-05	555.66	2.1385e-06	2.1221e-06	860.38	169.21	2.121e-06	2.089e-06	354.74	143.71	62.487	23.146	2.3566e-06	64.474	92.651	145.203	118.085	70.881	205.823	84.978	71.488	76.134	155.340	213.895	76.940	81.623	81.862	87.063	251.551	85.752	-8191	255	
7918.853	1	1	0	0	0.21573	0.075832	0.081422	0.13613	0.27344	0.092472	0.22305	0.073463	0.35403	0.20569	0.062244	0.12996	0.17334	0.19599	0.29905	0.1863	-1.7292	-1.5229	-1.9312	-2.2021	-1.775	-2.1625	-2.0854	-1.7854	-2.1312	-1.7	-1.9813	-2.175	-1.5479	-1.9937	-2.0646	-1.7437	209.478	157.811	251.106	153.080	224.886	319.700	405.477	86.980	386.841	406.802	244.585	226.876	315.393	348.079	214.335	388.940	0.0013148	0.00079097	2.7312e-05	574.96	2.9645e-06	3.8918e-06	894.19	174.06	7.8195e-07	1.7181e-06	377.01	154.38	66.249	24.452	3.4182e-06	70.306	0.00020647	0.00019838	6.0192e-05	555.16	2.088e-06	2.205e-06	859.43	168.04	2.1724e-06	2.2975e-06	354.05	144.12	62.634	23.503	2.4529e-06	65.259	92.296	170.045	394.508	70.783	222.579	184.515	71.250	76.742	338.267	321.165	76.864	81.916	81.833	86.811	220.645	86.016	-8191	255	
7918.949	1	1	0	0	0.24671	0.29622	0.12096	0.2195	0.27426	0.25005	0.20719	0.19584	0.023512	0.24335	0.031495	0.079047	0.24318	0.23859	0.089245	0.078434	-1.7896	-1.7875	-1.8125	-2.25	-1.4125	-2.1875	-2.0792	-1.6354	-2.2396	-2	-2.0208	-2.0687	-1.4062	-1.7771	-2.0958	-1.7563	66.624	112.731	99.315	355.977	87.252	412.997	411.307	370.162	280.588	148.175	335.056	402.553	67.883	208.020	402.443	350.502	0.0014684	0.00034619	0.00010797	574.75	5.427e-06	3.7647e-06	899.47	174.63	5.866e-06	5.2151e-06	376.18	154.11	66.034	24.16	6.6453e-06	70.092	0.00021338	0.00022006	6.2267e-05	556.13	2.1521e-06	2.4041e-06	861.01	168.52	2.1732e-06	2.4101e-06	354.02	143.26	62.295	23.294	2.3496e-06	64.752	87.797	157.792	141.870	70.709	168.425	161.241	71.426	76.783	182.330	287.269	76.873	81.933	82.179	87.063	216.377	85.940	-8191	255	
7919.043	1	1	0	0	0.36222	0.068869	0.014968	0.056912	0.30958	0.11718	0.13312	0.18227	0.13105	0.24784	0.17671	0.047075	0.16023	0.32949	0.20235	0.25374	-1.6875	-1.9625	-1.8083	-2.1625	-1.5479	-2.0542	-2.1167	-1.4583	-2.1937	-1.9083	-1.6167	-2.2104	-1.625	-1.8958	-2.1354	-1.7521	213.443	317.987	133.868	362.018	377.849	352.569	336.896	127.005	151.610	331.417	324.210	350.206	138.269	126.215	319.996	348.366	0.0015593	0.00039877	0.00015793	575.33	4.4501e-06	2.2428e-06	900.26	176.63	5.876e-06	3.0467e-06	380.32	155.82	66.513	24.562	5.8628e-06	71.296	0.0002117	0.00022173	5.8688e-05	553.87	2.1694e-06	2.3818e-06	861.81	169.4	2.1971e-06	2.3999e-06	356.83	145.12	63.44	23.706	2.2844e-06	65.709	83.323	140.246	76.753	71.188	172.190	194.247	71.502	76.699	137.842	241.355	77.096	81.750	82.076	86.849	234.860	86.022	-8191	255	
7919.141	1	1	0	0	0.19212	0.059988	0.21748	0.23761	0.17794	0.37877	0.14378	0.31139	0.23323	0.098856	0.35313	0.24295	0.38643	0.13175	0.28654	0.21367	-1.5625	-1.9688	-1.725	-2.2333	-1.7021	-1.8813	-2.1396	-1.6833	-2.05	-2.0729	-1.7104	-2.2208	-1.8625	-1.8854	-2.2708	-1.7479	190.197	233.048	345.958	248.498	157.715	208.515	361.846	324.383	191.482	141.617	289.389	379.007	349.422	195.218	310.605	365.690	0.0016099	0.00018883	0.00011246	574.53	3.7792e-06	6.5772e-06	907.05	176.18	6.233e-06	1.3304e-06	379.6	155.89	66.382	24.434	3.7814e-06	70.802	0.00022381	0.00022133	5.8792e-05	556.19	2.3322e-06	2.4396e-06	863.69	169.7	2.3639e-06	2.4122e-06	357.07	144.93	63.524	23.667	2.335e-06	65.597	81.861	117.097	175.107	70.861	217.942	216.449	71.541	76.308	171.781	180.011	76.817	81.794	82.042	86.731	182.368	85.893	-8191	255	
7919.260	1	1	0	0	0.19768	0.12234	0.1496	0.082732	0.37007	0.26465	0.1636	0.28893	0.1488	0.10783	0.17364	0.12678	0.07677	0.15332	0.18661	0.18687	-1.6896	-1.8979	-1.4979	-2.4396	-1.7687	-1.7729	-2.3167	-1.7938	-1.7938	-2.2104	-1.5938	-2.2292	-1.8625	-1.8542	-2.2292	-1.6688	363.483	268.524	400.827	75.302	316.580	137.614	364.135	358.839	339.670	335.152	398.494	170.278	375.006	317.101	265.254	387.808	0.0015285	0.00028241	5.1749e-05	575.72	8.7881e-07	2.4149e-06	905.28	175.63	4.5399e-06	1.4291e-06	379.61	155.61	66.244	24.165	3.943e-06	70.193	0.00023656	0.00022185	5.8514e-05	555.78	2.4829e-06	2.3906e-06	861.41	169.28	2.4902e-06	2.4194e-06	355.17	144.58	63.494	23.29	2.2241e-06	64.964	86.919	204.773	136.583	70.964	257.619	141.368	71.729	76.480	141.579	391.173	76.851	82.010	81.955	87.432	321.148	85.482	-8191	255	
7919.332	1	1	0	0	0.043806	0.4618	0.21692	0.23647	0.18243	0.04926	0.10905	0.081212	0.15735	0.069054	0.1027	0.15976	0.13415	0.19867	0.098909	0.22117	-1.5063	-1.9646	-1.5771	-2.3604	-1.8333	-1.6375	-2.1458	-1.7271	-1.6646	-2.1021	-1.7563	-2.3104	-1.8958	-1.7271	-1.8771	-1.9062	248.124	360.199	295.152	341.110	208.456	270.983	319.743	334.649	391.701	227.050	259.034	70.999	79.570	308.903	83.509	360.822	0.0013874	0.00013822	6.2974e-05	572.8	6.6954e-06	3.9394e-06	892.95	173.39	5.5609e-06	2.263e-06	375.9	153.68	65.224	23.858	8.2478e-06	69.93	0.0002361	0.00021024	5.5025e-05	553.64	2.4172e-06	2.2606e-06	854.49	168.18	2.3786e-06	2.253e-06	351.87	143.03	62.602	23.027	2.1229e-06	64.724	76.903	195.892	127.123	70.742	219.511	157.066	71.460	76.479	121.428	251.499	76.849	81.773	81.812	86.881	294.201	85.697	-8191	255	
7919.453	1	1	0	0	0.084523	0.34397	0.3188	0.15204	0.13906	0.03195	0.36451	0.30734	0.17823	0.36719	0.17817	0.23905	0.14849	0.30625	0.13084	0.25093	-1.1417	-2.3583	-1.525	-2.1333	-2.0708	-1.6979	-2.1979	-1.9062	-1.8458	-2.0312	-1.6458	-2.0604	-2.2708	-1.6229	-2.1958	-1.9021	142.474	70.190	118.560	386.659	295.330	250.500	282.518	341.588	242.045	155.642	96.028	392.438	407.919	242.034	381.975	280.385	0.0012781	0.0004594	3.8923e-05	573.96	3.5291e-06	3.9937e-06	900.66	173.84	6.0037e-06	2.3382e-06	379.19	155.99	65.966	24.351	7.1504e-06	69.961	0.00022714	0.0002029	5.3097e-05	554.55	2.3578e-06	2.1887e-06	857.91	168.77	2.3211e-06	2.2164e-06	354.85	144.28	62.957	23.318	2.1349e-06	65.301	80.191	178.350	238.751	70.872	214.960	69.630	71.484	76.587	163.819	123.820	77.026	81.745	81.794	86.514	221.341	86.081	-8191	255	
7919.549	1	1	0	0	0.11435	0.16657	0.19558	0.22871	0.37025	0.080017	0.4077	0.37448	0.22934	0.19944	0.088168	0.19181	0.075544	0.16614	0.24746	0.2395	-1.2125	-2.2729	-1.5896	-1.9479	-2.2042	-1.3458	-2.3104	-1.9062	-1.6812	-2.25	-1.8792	-2.1896	-2.0438	-1.6604	-2.1417	-2.0083	118.658	290.587	269.446	385.348	393.039	280.117	333.599	341.994	286.559	312.415	415.332	353.389	337.192	80.894	197.377	359.602	0.001233	0.00059575	0.00010561	572.87	9.3441e-07	3.1076e-06	904.72	176.01	4.6279e-06	3.009e-06	381.9	156.02	66.59	24.488	7.74e-06	70.685	0.00022185	0.00019789	5.5582e-05	556	2.2955e-06	2.1487e-06	859.68	170.21	2.2986e-06	2.186e-06	357.35	145.64	63.402	23.467	2.325e-06	65.746	85.264	199.195	132.372	70.938	349.774	244.907	71.155	76.546	147.622	290.407	76.781	81.685	81.972	87.154	205.887	85.873	-8191	255	
7919.645	1	1	0	0	0.35665	0.21671	0.29872	0.13305	0.17056	0.055389	0.11541	0.18311	0.11186	0.22204	0.26676	0.05954	0.24602	0.21245	0.050529	0.26805	-0.9875	-2.1688	-1.7979	-2.0333	-2.0667	-1.8583	-2.3208	-2.0854	-1.4708	-2.3542	-1.7354	-1.9604	-2.1083	-1.6333	-1.9896	-2.125	348.451	164.554	392.168	121.464	317.790	353.677	112.327	62.032	81.724	73.375	413.106	406.436	376.565	414.367	124.889	278.839	0.0012727	0.00044958	0.00013072	574.56	2.064e-06	4.3702e-06	904.32	176.68	6.3998e-07	5.95e-06	381.82	156.04	66.822	24.643	4.929e-06	71.406	0.00022447	0.00019819	6.0011e-05	558.83	2.3391e-06	2.1671e-06	865.43	170.86	2.3513e-06	2.183e-06	358.75	146.09	63.768	23.565	2.4302e-06	66.062	90.302	190.274	147.634	70.670	178.209	126.197	71.167	76.362	162.422	178.551	76.704	81.598	82.054	87.262	177.807	85.844	-8191	255	
7919.741	1	1	0	0	0.072368	0.21674	0.22307	0.11724	0.20979	0.22631	0.034474	0.1079	0.25991	0.13346	0.51342	0.22201	0.10974	0.020305	0.11615	0.14003	-1.0104	-2.0625	-1.7375	-1.9771	-2.0208	-1.5896	-2.1104	-2.0271	-1.5229	-2.2	-2.0146	-1.7396	-2.4062	-1.65	-1.8687	-2.2167	193.295	189.782	273.569	84.917	409.969	310.326	214.427	274.905	71.190	255.892	61.451	321.939	134.595	143.422	151.439	237.673	0.0012759	0.00042565	0.00012929	571.17	5.402e-06	1.4763e-06	899.53	175.41	4.4913e-06	4.4951e-06	380.5	156.66	66.674	24.687	9.9501e-07	71.786	0.00022225	0.00019631	6.2738e-05	556.67	2.2602e-06	2.1547e-06	861.05	169.63	2.2384e-06	2.1981e-06	358.59	146.06	63.454	23.718	2.4989e-06	66.416	88.445	399.442	157.287	70.970	204.979	227.062	71.487	76.341	205.107	175.584	76.911	81.897	81.595	87.027	197.611	85.903	-8191	255	
7919.862	1	1	0	0	0.17573	0.19806	0.072489	0.15929	0.071749	0.13287	0.092066	0.23234	0.065117	0.17069	0.20701	0.10649	0.327	0.26801	0.23532	0.011153	-1.1958	-2.1437	-1.8563	-1.4958	-2.0583	-1.7563	-1.9312	-2.1979	-1.6667	-2.0563	-2.1042	-1.7104	-2.2938	-1.8917	-1.8604	-2.275	318.468	321.649	145.447	312.157	165.329	219.095	104.173	380.613	236.656	394.619	351.398	377.669	119.049	349.015	60.672	160.359	0.0013871	0.00031143	9.8838e-05	572.2	4.5494e-06	5.6679e-06	899.62	176.53	4.6858e-06	2.8528e-06	382.88	158.42	67.563	25.215	1.8838e-06	72.053	0.00021591	0.00020803	6.461e-05	554.69	2.2049e-06	2.2949e-06	864.47	170.79	2.2113e-06	2.3064e-06	359.81	147.61	64.228	24.114	2.4427e-06	66.72	82.892	154.630	177.902	70.656	184.958	192.608	71.222	76.456	154.619	229.638	76.816	81.415	81.676	86.620	135.012	85.906	-8191	255	
7919.933	1	1	0	0	0.29424	0.11675	0.13096	0.23646	0.3469	0.15723	0.17206	0.1552	0.12552	0.19182	0.24424	0.15587	0.099195	0.11811	0.066885	0.29783	-1.3125	-2.0062	-2.0583	-1.5396	-2.1083	-1.7583	-2.0292	-2.3542	-1.4875	-1.8375	-2.0396	-1.9417	-2.2917	-2.1479	-1.6583	-2.35	415.971	114.343	66.589	362.841	83.399	71.297	407.074	390.144	352.309	231.066	226.431	299.052	181.538	381.083	347.168	376.461	0.0014165	0.00044872	0.00013126	569.54	4.3105e-06	4.4077e-06	905.36	177	9.9305e-06	4.8495e-06	384.25	157.97	67.815	25.136	5.3587e-06	72.481	0.0002101	0.00021631	6.2195e-05	552.13	2.1996e-06	2.3928e-06	864.44	170.55	2.1507e-06	2.4046e-06	360.36	147.49	64.23	24.217	2.3953e-06	66.82	92.598	150.905	182.012	70.753	222.292	184.370	71.235	76.399	164.637	191.989	76.734	82.018	81.811	87.009	258.843	85.752	-8191	255	
7920.029	1	1	0	0	0.39004	0.35183	0.1446	0.17224	0.2904	0.41283	0.04442	0.10499	0.084528	0.22328	0.20957	0.34948	0.095095	0.049135	0.25481	0.15513	-1.2146	-1.9	-2.0563	-1.7521	-2.1333	-1.9688	-1.9354	-2.3854	-1.7542	-1.9542	-2.3958	-1.5979	-1.9458	-1.9646	-1.5354	-2.3625	76.459	395.705	205.089	373.451	321.581	283.700	188.219	85.732	381.619	92.525	87.707	351.787	314.610	139.334	135.365	386.813	0.0014146	0.00024173	8.1663e-05	570.96	3.2433e-06	1.877e-06	902.16	176.26	4.3002e-06	4.4687e-06	386.42	158.9	67.403	24.861	5.8697e-06	71.82	0.00021298	0.00021846	6.0272e-05	552.57	2.1703e-06	2.4056e-06	864.4	170.28	2.1796e-06	2.3341e-06	360.36	147.32	64.097	23.969	2.2344e-06	66.339	85.521	217.756	184.802	70.872	233.232	205.765	71.308	76.495	158.038	292.041	76.835	81.709	81.795	86.582	272.421	85.782	-8191	255	
7920.124	1	1	0	0	0.12237	0.16133	0.1454	0.051242	0.21593	0.14816	0.20902	0.11495	0.27104	0.095509	0.024349	0.24372	0.2553	0.11833	0.2198	0.20903	-1.3729	-1.8792	-2.075	-1.7333	-2.25	-2.1021	-1.8312	-2.2687	-1.7896	-1.8417	-2.2958	-1.8146	-2.0438	-2.1021	-1.8167	-2.3208	212.826	356.186	212.276	250.992	215.771	348.498	385.414	69.645	337.685	192.761	288.497	367.919	71.926	397.360	289.369	401.734	0.0013975	0.00059972	0.00016447	571.05	6.3668e-06	4.8226e-06	904.59	176.69	1.9628e-06	1.059e-06	383.53	157.17	67.119	24.698	4.6601e-06	72.014	0.00021511	0.00021403	5.6862e-05	551.22	2.2216e-06	2.3006e-06	864.13	169.59	2.2874e-06	2.291e-06	359.34	146.32	63.968	23.797	2.2092e-06	66.21	91.484	152.846	122.510	70.549	152.907	231.621	71.048	76.199	221.193	273.747	76.855	81.621	81.512	86.584	217.114	85.856	-8191	255	
7920.244	1	1	0	0	0.11883	0.044568	0.18077	0.25826	0.20661	0.12077	0.21243	0.049268	0.19551	0.09069	0.26025	0.12882	0.20429	0.14234	0.10274	0.24904	-1.5083	-1.8917	-1.9854	-1.6063	-2.1625	-2.0604	-1.6792	-2.1083	-1.9208	-1.8479	-2.4854	-1.8625	-1.8583	-2.0687	-1.5938	-2.2167	264.947	66.843	210.659	417.857	292.824	380.053	169.059	212.663	88.386	374.887	350.430	282.392	390.896	313.318	187.689	344.560	0.0014676	0.00014142	9.0843e-05	570.76	5.628e-06	3.2141e-06	903.79	176.06	5.8926e-06	3.157e-06	381.81	157.73	67.142	24.748	4.4753e-06	71.267	0.00022749	0.00021278	5.6583e-05	551.73	2.3429e-06	2.3296e-06	860.67	169.38	2.3982e-06	2.2673e-06	357.5	146.14	64.167	23.747	2.1858e-06	66.055	77.572	138.653	150.467	70.784	170.430	133.734	71.431	76.004	242.579	174.708	76.896	81.602	81.546	86.996	262.561	85.750	-8191	255	
7920.341	1	1	0	0	0.19272	0.11327	0.052069	0.14466	0.10037	0.18439	0.16237	0.024303	0.29719	0.20707	0.054093	0.23842	0.1269	0.29653	0.1131	0.22768	-1.4896	-1.6854	-2.1896	-1.725	-1.9271	-2.2125	-1.85	-2.0542	-1.9979	-1.6354	-2.3563	-1.975	-1.9	-2.2854	-1.6562	-2.4021	326.202	86.045	277.734	139.012	325.084	369.424	410.340	268.730	185.699	78.596	325.786	74.186	132.736	106.232	274.038	341.086	0.0014719	0.00045391	2.6985e-05	569.66	5.4815e-06	4.135e-06	898.08	175.8	3.8389e-06	4.2755e-06	381.12	157.41	67.025	24.672	2.0205e-06	71.468	0.0002319	0.000205	5.4764e-05	551.21	2.3673e-06	2.2682e-06	857.38	169.63	2.3797e-06	2.2169e-06	357.57	146.48	63.975	23.717	2.1081e-06	66.171	88.889	155.690	386.541	70.672	160.371	276.444	71.100	76.465	204.216	199.276	76.912	82.099	82.065	87.213	284.023	85.728	-8191	255	
7920.437	1	1	0	0	0.077581	0.062518	0.046133	0.21996	0.30774	0.071752	0.16638	0.084837	0.019486	0.20055	0.049174	0.27464	0.27518	0.21518	0.26382	0.11043	-1.6458	-1.5958	-2.3854	-2.0396	-1.7125	-2.225	-1.8042	-2.2979	-2.0396	-1.6042	-2.2188	-1.8937	-1.5646	-2.1896	-1.7854	-1.9021	210.910	265.317	281.009	358.418	86.877	233.009	338.862	347.044	217.452	389.314	322.033	410.526	370.721	74.527	88.739	343.710	0.0014154	0.00028743	4.1453e-05	575.28	2.0194e-06	4.1351e-06	904.88	176.22	5.5997e-06	1.7608e-06	382.33	157.11	67.044	24.539	6.3374e-06	71.237	0.00023092	0.00020183	5.3513e-05	554.64	2.318e-06	2.218e-06	860.36	170.11	2.3028e-06	2.1503e-06	357.84	146.03	63.656	23.521	2.1198e-06	66.09	85.753	128.890	132.506	70.844	163.351	179.997	71.528	76.582	181.200	210.967	77.102	81.818	81.829	86.574	212.949	86.089	-8191	255	
7920.533	1	1	0	0	0.088877	0.059627	0.081895	0.10891	0.1708	0.082141	0.23128	0.074205	0.18035	0.15778	0.17869	0.084001	0.19799	0.09463	0.11213	0.096225	-1.7437	-1.5271	-2.1042	-1.9688	-1.5229	-2.1833	-1.7583	-2.025	-2.1396	-1.4854	-2.3583	-1.9896	-1.6667	-2.3542	-1.6625	-1.9813	413.092	285.491	79.155	410.829	97.944	298.457	385.071	325.082	132.554	354.741	366.632	409.377	144.842	77.970	269.537	374.512	0.0013127	0.00065665	6.4611e-05	572.25	3.4177e-06	4.8252e-06	905.98	176.65	5.535e-06	5.7293e-06	385.68	158.14	66.956	24.699	2.1682e-06	71.98	0.00022331	0.00019877	5.4896e-05	555.24	2.2866e-06	2.1729e-06	863.15	170.64	2.3197e-06	2.1772e-06	359.9	147.19	63.952	23.791	2.3696e-06	66.632	77.405	218.913	65.308	70.923	216.880	406.587	71.378	76.445	182.764	227.058	77.065	81.690	82.236	86.827	337.686	86.192	-8191	255	
7920.627	1	1	0	0	0.12707	0.3732	0.12343	0.11366	0.057833	0.21989	0.18498	0.14804	0.19385	0.18034	0.055716	0.1043	0.25625	0.18923	0.36083	0.2617	-1.6688	-1.4708	-2.0854	-2.0021	-1.7313	-2.2542	-2.0833	-1.8937	-2.2146	-1.5812	-2.1104	-1.8979	-1.6063	-2.0875	-1.8083	-1.8937	397.395	341.424	363.957	347.541	305.571	347.218	97.481	288.377	240.017	256.198	156.377	157.828	90.179	377.268	81.649	343.879	0.0012893	0.00018037	0.00012036	572.06	3.6328e-07	3.2872e-06	904.3	175.78	3.3919e-06	1.2605e-06	384.97	156.96	67.277	24.982	6.0876e-06	72.233	0.00022936	0.00020347	6.1023e-05	556.5	2.3636e-06	2.2398e-06	867.28	171.14	2.4054e-06	2.23e-06	361.13	147.19	64.193	23.891	2.5234e-06	66.714	82.080	60.029	182.622	71.035	335.214	204.638	71.362	76.581	147.153	238.895	76.866	81.599	81.863	86.947	259.986	85.957	-8191	255	
7920.723	1	1	0	0	0.28986	0.080958	0.099475	0.17919	0.2651	0.34478	0.14564	0.14357	0.020391	0.17346	0.31306	0.30081	0.44431	0.17655	0.28931	0.20976	-1.825	-1.6354	-1.7583	-2.1042	-1.5792	-2.4333	-1.9917	-1.8438	-2.0625	-1.5542	-2.0104	-2.0458	-1.7646	-2.3312	-1.8396	-1.8958	224.141	238.240	69.987	183.906	244.420	386.322	65.868	148.653	402.335	405.071	368.819	346.096	87.748	399.118	416.743	401.014	0.0013802	0.00042654	0.00011118	573.23	2.5365e-06	6.2324e-06	903.29	175.38	4.5238e-06	1.0926e-06	380.1	156.85	66.81	24.641	6.9146e-06	70.822	0.00023114	0.00020777	6.4421e-05	555.28	2.3011e-06	2.2267e-06	865.03	170.14	2.2421e-06	2.1836e-06	357.76	145.76	63.56	23.609	2.4684e-06	65.816	80.333	182.698	131.105	70.831	158.207	221.225	71.477	76.644	314.779	395.901	76.794	81.770	82.076	86.736	213.690	85.697	-8191	255	
7920.844	1	1	0	0	0.39856	0.16484	0.11025	0.046427	0.11529	0.066658	0.33249	0.20836	0.17914	0.18176	0.13648	0.35145	0.25811	0.054507	0.14515	0.10963	-1.8125	-1.5354	-1.8813	-2.1646	-1.4083	-2.2021	-2.2208	-1.5771	-2.4167	-1.7229	-2.0312	-2.1771	-1.5771	-2.1958	-1.9375	-1.7896	341.471	346.210	82.894	377.258	194.900	306.610	393.500	62.998	383.887	282.500	369.643	373.058	186.387	267.638	139.520	399.456	0.0014059	0.00013042	3.755e-05	570.49	2.0196e-06	4.7259e-06	898.93	175.56	3.8341e-06	5.3597e-06	381.94	157.03	66.614	24.577	2.6022e-06	70.919	0.00021419	0.0002027	6.1837e-05	551.62	2.1214e-06	2.2419e-06	861.69	169.31	2.1468e-06	2.2445e-06	357.62	145.7	63.078	23.604	2.3678e-06	65.709	85.102	197.734	155.090	71.046	76.263	223.848	71.436	76.748	128.258	237.203	76.728	81.820	82.070	86.522	189.478	85.586	-8191	255	
7920.940	1	1	0	0	0.18145	0.34738	0.39471	0.073513	0.23986	0.22115	0.44883	0.26206	0.24167	0.052583	0.19916	0.27278	0.31632	0.12488	0.18254	0.35457	-1.9271	-1.6333	-1.9167	-2.0646	-1.7083	-1.975	-2.0396	-1.7021	-2.0271	-1.7896	-1.8417	-2.0771	-1.8333	-2.0979	-2.0563	-1.7021	350.345	334.499	347.211	368.493	93.818	342.296	396.281	412.607	173.740	361.405	371.520	59.339	377.438	62.552	228.296	59.796	0.0013324	0.00072963	8.0667e-05	570.58	4.5588e-06	3.9209e-06	898.4	175.76	3.6726e-06	3.8726e-06	380.74	156.92	67.538	24.845	2.924e-06	71.72	0.00020042	0.00020767	5.8754e-05	550.64	2.0677e-06	2.2803e-06	859.87	169.16	2.0608e-06	2.2989e-06	357.56	145.98	63.737	23.89	2.3087e-06	66.217	89.164	179.733	115.952	70.978	193.038	196.091	71.432	76.518	173.389	233.146	76.848	81.660	81.968	86.928	164.622	86.022	-8191	255	
7921.036	1	1	0	0	0.32311	0.17478	0.30885	0.13486	0.093435	0.11578	0.27138	0.20745	0.27788	0.099886	0.2609	0.20723	0.15476	0.20456	0.05507	0.40219	-1.5667	-1.8062	-1.5438	-2.0667	-1.6688	-1.8479	-2.2854	-1.6	-2.2562	-1.9375	-1.7188	-2.4146	-1.6167	-1.8208	-2.1229	-1.6479	185.931	70.044	129.791	82.631	368.219	319.827	314.959	340.055	234.899	169.713	78.572	357.094	103.817	267.530	372.805	364.624	0.0013224	0.00032159	0.00019914	569.43	1.8491e-06	1.5606e-06	906.55	176.49	3.6154e-06	2.6621e-06	383.69	158.33	67.294	25.065	1.6338e-06	71.952	0.0002049	0.00021618	5.7656e-05	549.82	2.1373e-06	2.3084e-06	862.58	169.67	2.1298e-06	2.3207e-06	359.73	146.88	63.985	24.024	2.2135e-06	66.364	82.508	163.625	168.249	70.952	179.449	139.548	71.632	76.239	124.592	242.761	77.045	81.893	81.923	86.923	204.797	85.764	-8191	255	
7921.133	1	1	0	0	0.29635	0.22662	0.19745	0.21499	0.18318	0.23497	0.092398	0.075689	0.16425	0.20165	0.068498	0.19275	0.25592	0.20581	0.2445	0.1978	-1.6313	-2.0583	-1.5271	-2.4771	-1.6958	-1.7354	-2.3104	-1.5125	-2.0667	-2.1396	-1.6562	-2.4271	-1.9521	-1.7708	-2.2313	-1.6479	308.942	417.850	407.941	280.893	286.724	194.806	235.857	119.796	350.650	113.207	181.257	295.379	68.720	307.346	170.563	381.025	0.0014803	0.00026211	0.00012324	575.12	4.2576e-06	4.0466e-06	903.05	176.82	6.2352e-06	2.7615e-06	384.37	158.44	67.108	24.715	5.1621e-06	71.609	0.0002096	0.00020679	5.4931e-05	550.71	2.154e-06	2.1697e-06	862.89	169.59	2.1362e-06	2.2012e-06	358.45	146.23	63.693	23.738	2.048e-06	66.035	84.334	154.056	205.138	70.775	171.721	207.657	71.694	76.334	177.455	200.320	76.767	81.654	81.847	86.893	197.358	85.892	-8191	255	
7921.229	1	1	0	0	0.25793	0.13031	0.2212	0.095002	0.089932	0.21377	0.19872	0.26571	0.22896	0.10855	0.13593	0.25475	0.31478	0.11763	0.29324	0.1562	-1.6354	-1.9312	-1.3563	-2.175	-1.7708	-1.7292	-2.3271	-1.4438	-1.9125	-2.0229	-1.6437	-2.4958	-1.8625	-2.0104	-2.1229	-1.7917	404.521	174.375	142.544	66.528	166.183	221.352	304.217	396.380	355.040	114.523	387.643	74.313	329.022	344.213	146.777	63.378	0.0014454	0.00054824	3.7323e-05	570.51	4.3396e-06	4.4543e-06	897.79	176.17	3.4152e-06	3.3455e-06	383.47	157.61	67.331	24.674	6.5059e-06	71.512	0.00020728	0.00019371	5.0879e-05	549.21	2.1512e-06	2.0792e-06	856.09	168.62	2.1207e-06	2.0548e-06	356.85	145.31	63.794	23.636	1.9419e-06	65.714	86.468	191.357	140.484	70.787	221.120	117.548	71.558	76.245	251.356	221.866	76.857	81.842	82.006	87.439	203.021	85.741	-8191	255	
7921.325	1	1	0	0	0.17814	0.31463	0.035729	0.060557	0.10655	0.17384	0.11361	0.31083	0.46466	0.23043	0.17922	0.12851	0.28187	0.15868	0.23905	0.26118	-1.2583	-2.0667	-1.4625	-2.0187	-2.0187	-1.5208	-2.4729	-1.6375	-1.6437	-2.3229	-1.5646	-2.2771	-2.0229	-1.5521	-2.1958	-1.85	289.351	413.260	418.566	335.880	284.626	177.968	305.558	240.221	294.779	194.612	359.681	407.334	382.664	283.517	347.530	343.114	0.0012955	0.00030194	0.00015156	568.65	4.3387e-06	3.6947e-06	901.52	175.88	6.3041e-06	2.4087e-06	382	156.67	66.994	24.923	3.5735e-06	71.254	0.00020529	0.00018253	4.8615e-05	546.98	2.1221e-06	2.0061e-06	856.85	168.69	2.0942e-06	1.9808e-06	356.4	145.65	63.484	23.626	1.8656e-06	65.838	84.259	187.370	88.127	70.708	175.234	199.362	71.398	76.565	175.538	276.462	76.507	81.996	81.814	86.773	360.237	85.449	-8191	255	
7921.444	1	1	0	0	0.032621	0.041117	0.23496	0.24537	0.059345	0.23651	0.11309	0.35392	0.14553	0.19197	0.084955	0.15617	0.21675	0.15061	0.15335	0.2641	-1.3167	-2.0167	-1.5583	-2.0062	-1.8917	-1.7375	-2.4354	-1.5604	-1.7687	-2.1104	-1.7083	-1.875	-2.1375	-1.7229	-2.1	-2.0042	237.398	335.399	405.221	205.926	266.840	61.672	370.793	102.034	316.094	321.930	390.467	391.862	111.920	385.320	254.268	365.091	0.0012721	0.0003695	6.1663e-05	569.75	3.4645e-06	3.9019e-06	904.67	176.91	8.4333e-06	1.2154e-06	382.93	157.39	67.144	24.931	4.7119e-06	71.582	0.00019977	0.00017806	4.7004e-05	548.35	2.0317e-06	1.904e-06	856.38	169.62	2.0117e-06	1.9262e-06	356.36	145.96	63.489	23.654	1.8672e-06	65.917	82.222	141.761	115.842	70.930	181.129	189.038	71.553	76.351	163.388	174.385	76.918	81.546	81.597	86.581	184.980	85.344	-8191	255	
7921.540	1	1	0	0	0.27926	0.18392	0.33882	0.31137	0.16652	0.1718	0.16093	0.18474	0.28927	0.20404	0.20568	0.21673	0.088862	0.16337	0.089966	0.12377	-1.2604	-2.0875	-1.4	-2.0875	-2.0187	-1.5562	-2.1271	-1.8396	-1.6063	-2.0521	-1.975	-2.0438	-2.0979	-1.5375	-1.9937	-2.1979	118.242	144.243	70.665	407.306	78.913	370.069	406.462	329.437	218.119	126.898	386.749	93.989	315.046	401.341	345.877	115.716	0.0013458	0.00031853	0.00013498	571.45	6.6318e-06	4.7828e-06	906.86	176.6	1.1815e-06	4.0616e-06	381.95	158.32	67.664	25.068	7.1002e-06	72.016	0.0001944	0.00017092	4.8308e-05	550.75	1.9596e-06	1.8379e-06	859.45	169.76	1.9607e-06	1.8331e-06	356.83	146.42	63.645	23.691	1.9131e-06	66.35	85.483	138.083	199.734	70.896	117.163	155.203	71.320	76.399	187.916	244.048	76.936	81.691	81.820	86.609	252.506	85.977	-8191	255	
7921.636	1	1	0	0	0.1974	0.067514	0.12349	0.44245	0.096072	0.28868	0.098296	0.047537	0.36832	0.27162	0.1183	0.24	0.068674	0.1158	0.21374	0.25968	-1.3687	-2.2646	-1.5458	-1.9312	-2.0458	-1.5479	-2.2458	-1.7563	-1.5875	-2.1354	-1.9479	-2.0542	-2.0062	-1.5104	-2.1167	-1.9813	266.787	161.911	242.405	270.479	118.728	148.199	359.803	324.089	220.438	293.744	330.827	96.345	278.926	367.524	337.508	400.158	0.0014117	0.00018217	9.2549e-05	568.09	2.6925e-06	3.0895e-06	905.38	177.11	4.4037e-06	2.2388e-06	384.81	159.45	67.562	25.083	3.5555e-06	72.355	0.00018983	0.00016526	4.9434e-05	550.37	1.9382e-06	1.7993e-06	861.38	170.35	1.9502e-06	1.7958e-06	359.9	146.98	63.858	23.796	2.064e-06	66.602	88.183	133.702	172.322	70.708	112.900	152.311	71.774	76.431	68.392	225.377	76.957	81.736	81.852	86.858	204.682	85.948	-8191	255	
7921.732	1	1	0	0	0.16595	0.2176	0.12081	0.29267	0.25597	0.24006	0.26019	0.051346	0.15251	0.14965	0.23044	0.25093	0.12372	0.14931	0.11326	0.081548	-1.1229	-2.2458	-1.5583	-1.8875	-2.1667	-1.6833	-2.1479	-2.0354	-1.3958	-2.2417	-1.8958	-1.6625	-2.3708	-1.7062	-1.8458	-2.2313	81.700	108.452	345.660	297.817	287.175	265.498	254.117	342.824	83.272	309.293	87.319	385.855	106.846	416.928	249.185	345.482	0.0014841	0.00080414	6.3682e-05	571.27	2.8026e-06	1.4349e-06	904.87	175.28	5.1699e-06	3.4508e-06	380.57	158.74	67.351	24.868	3.0645e-06	71.724	0.00019075	0.00017018	5.3556e-05	549.72	1.9494e-06	1.8812e-06	860.07	168.99	1.8896e-06	1.8851e-06	357.36	146.41	63.491	23.733	2.0702e-06	66.081	85.626	151.587	194.489	71.013	152.961	157.424	71.216	76.629	226.358	227.550	76.977	81.866	81.587	86.998	119.627	85.835	-8191	255	
7921.806	1	1	0	0	0.20731	0.14009	0.084388	0.13153	0.25923	0.1812	0.16743	0.024581	0.21541	0.070304	0.039481	0.18473	0.23128	0.3757	0.02689	0.2167	-0.97292	-2.2458	-1.7583	-1.7229	-2.1688	-1.9479	-1.9896	-2.2292	-1.6583	-2.1083	-2.0917	-1.6271	-2.1854	-1.5	-1.8687	-2.1958	206.622	199.754	357.082	68.945	118.563	397.528	381.591	90.366	378.515	280.104	86.765	370.574	135.923	390.566	96.143	387.604	0.001406	0.0007318	0.00016206	568.82	3.7266e-06	1.7274e-06	898.05	175.56	5.2635e-06	2.991e-06	381.5	157.46	67.127	24.994	4.6542e-06	71.517	0.00018363	0.0001697	5.288e-05	546.22	1.8282e-06	1.9094e-06	858.22	168.51	1.8104e-06	1.8992e-06	356.25	145.46	63.307	23.732	2.0117e-06	66.012	91.083	153.515	136.215	70.758	225.901	139.636	71.251	76.602	216.222	205.568	76.828	81.815	82.150	86.763	205.003	85.868	-8191	255	
7921.924	1	1	0	0	0.032446	0.095809	0.13765	0.075409	0.21401	0.16655	0.20116	0.3142	0.15876	0.11416	0.29011	0.29623	0.24806	0.092117	0.12335	0.2714	-1.0354	-2.1063	-2	-1.6521	-2.0875	-1.6917	-1.8521	-2.2271	-1.7479	-1.8062	-2.0646	-1.7104	-2.3354	-1.5479	-1.6229	-2.3042	227.765	108.471	103.351	130.663	70.143	164.430	240.971	340.631	417.806	402.560	371.038	409.718	412.808	403.465	103.766	286.953	0.0013988	0.00035324	0.00015471	569.25	6.2172e-06	2.155e-06	898.94	177.15	8.5596e-07	2.0512e-06	382.44	157.93	67.248	25.053	5.3176e-06	71.838	0.00017668	0.00017938	5.1206e-05	546.43	1.7902e-06	1.9663e-06	857.61	169.34	1.7735e-06	2.0072e-06	357.12	146.1	63.281	23.792	1.9695e-06	66.089	83.339	161.685	124.512	71.107	217.864	123.755	71.180	76.722	206.884	210.574	77.265	82.037	81.949	86.670	213.049	85.803	-8191	255	
7922.021	1	1	0	0	0.16019	0.05394	0.22028	0.31554	0.15757	0.30532	0.25202	0.14202	0.20758	0.16241	0.25675	0.27782	0.34174	0.10633	0.28532	0.18182	-1.1583	-1.8375	-1.8771	-1.6938	-2.0708	-2.0333	-1.9417	-1.9854	-1.5417	-1.8813	-2.1771	-1.6125	-2.0833	-1.9042	-1.6146	-2.2458	329.742	362.768	410.836	379.256	160.591	168.492	87.763	161.117	408.754	258.340	365.899	413.915	401.937	152.087	303.265	391.435	0.0014947	0.00054328	0.00014283	567.42	3.829e-06	6.0804e-06	903.07	176.17	2.7344e-06	1.9702e-06	384.31	157.34	67.571	24.949	3.7168e-06	71.737	0.00018109	0.00018304	4.9774e-05	545.41	1.8517e-06	2.0086e-06	859.07	168.53	1.8394e-06	1.9884e-06	357.55	145.77	63.492	23.716	1.8554e-06	65.872	91.163	136.238	134.034	70.731	154.446	156.478	71.456	76.393	174.009	234.788	76.832	81.475	81.887	86.811	295.393	85.823	-8191	255	
7922.117	1	1	0	0	0.19121	0.13456	0.21454	0.072848	0.18141	0.26841	0.22569	0.19585	0.082325	0.16875	0.16706	0.18861	0.03385	0.089305	0.092048	0.27963	-1.1063	-1.7563	-2.1	-1.95	-1.9021	-2.1708	-1.6583	-2.1937	-2.0021	-1.7	-2.5167	-1.7917	-1.925	-2.2521	-1.5063	-2.2729	185.158	79.254	133.279	414.721	104.564	325.884	394.629	283.786	190.852	74.319	91.907	199.234	174.650	296.001	286.700	343.826	0.0013212	0.00017225	0.00019405	572.19	3.6817e-06	2.8161e-06	902.45	176.84	1.5496e-06	4.1462e-06	384.83	158.6	67.999	25.28	3.1377e-06	72.514	0.00018296	0.00017304	4.6419e-05	545.37	1.8423e-06	1.9149e-06	858.34	169.2	1.8768e-06	1.8958e-06	357.7	146.39	64.053	23.992	1.819e-06	66.676	87.330	241.976	138.925	70.726	189.518	154.447	71.044	76.328	256.520	273.757	76.898	81.684	81.838	86.659	306.268	85.795	-8191	255	
7922.213	1	1	0	0	0.14475	0.28778	0.12999	0.10382	0.26995	0.27624	0.13441	0.24629	0.10554	0.26202	0.2767	0.21867	0.12246	0.12045	0.32829	0.31493	-1.3312	-1.8625	-2.1021	-1.6042	-1.8729	-1.9917	-1.6396	-2.1917	-1.925	-1.8	-2.1396	-1.7208	-1.9562	-2.2146	-1.2938	-2.475	59.283	152.087	224.555	380.911	299.123	184.004	313.670	59.131	216.871	404.282	396.920	145.615	319.464	113.173	233.519	336.813	0.0016057	0.00048448	4.4906e-05	567.67	6.7203e-06	2.0263e-06	895.48	177.72	6.3969e-06	2.3863e-06	383.45	159.09	67.848	25.267	3.4463e-06	72.141	0.00019015	0.00017362	4.5926e-05	544.24	1.9339e-06	1.8804e-06	853.87	169.08	1.9454e-06	1.872e-06	357.31	146.69	64.005	23.999	1.7738e-06	66.613	82.596	185.799	341.766	71.052	140.570	137.442	71.514	76.479	190.829	210.656	76.734	81.916	81.781	86.849	172.673	85.896	-8191	255	
7922.332	1	1	0	0	0.13239	0.25627	0.061875	0.13212	0.15197	0.057162	0.094776	0.23793	0.14987	0.25881	0.1442	0.28662	0.16774	0.16516	0.055497	0.31644	-1.5562	-1.5667	-2.2854	-1.875	-1.9438	-2.1958	-1.55	-2.1625	-1.8604	-1.7146	-2.2083	-1.7687	-1.8771	-2.4313	-1.6042	-2.5729	310.272	303.486	384.497	110.683	317.279	98.272	166.922	386.207	198.538	410.384	187.189	410.292	344.049	298.618	367.552	72.625	0.0012644	0.00047005	5.2048e-05	567.11	3.0287e-06	2.7311e-06	902.35	177.49	7.9074e-07	3.6533e-06	383.05	159.18	68.173	25.342	1.0151e-05	72.752	0.00019403	0.00017078	4.5998e-05	543.73	1.9553e-06	1.8862e-06	855.38	169.85	1.9638e-06	1.8519e-06	357.71	147.32	64.403	24.122	1.7884e-06	66.943	79.149	195.027	392.217	70.577	134.420	250.979	71.335	76.529	227.833	230.039	76.892	81.870	82.039	86.667	238.022	85.783	-8191	255	
7922.428	1	1	0	0	0.039765	0.10337	0.1225	0.30287	0.18627	0.066013	0.20711	0.21562	0.2561	0.12835	0.17417	0.309	0.24417	0.25683	0.10665	0.24429	-1.4646	-1.5792	-2.1625	-1.875	-1.625	-2.2104	-1.6417	-2.1375	-2.0083	-1.7833	-2.3042	-1.8312	-1.7354	-2.1604	-1.6313	-2.1271	136.225	325.067	350.250	141.752	338.615	270.285	304.091	383.147	247.024	405.598	63.607	395.359	318.994	357.567	298.358	367.336	0.0014622	0.00023451	0.00014781	567.93	6.7695e-06	3.5427e-06	902.37	176.81	5.6537e-06	2.9753e-06	386.03	159.16	68.337	25.518	3.672e-06	72.991	0.00019072	0.00017006	4.4407e-05	546.94	1.9174e-06	1.8139e-06	854.82	170.35	1.9232e-06	1.8276e-06	358.53	147.56	64.283	24.135	1.8095e-06	67.328	86.324	214.614	137.340	71.224	185.058	161.918	71.301	76.469	180.651	240.011	76.757	81.851	81.904	87.058	208.982	85.548	-8191	255	
7922.526	1	1	0	0	0.069096	0.12223	0.13167	0.052419	0.19823	0.067753	0.32107	0.19621	0.070666	0.17577	0.20124	0.076429	0.03686	0.093578	0.02153	0.12895	-1.4792	-1.5417	-1.9354	-2.0333	-1.7375	-2.25	-1.9	-2	-2.1917	-1.5583	-2.2792	-1.925	-1.7667	-2.3021	-1.6688	-1.9479	386.129	323.550	308.599	179.198	208.886	384.291	314.989	356.422	358.949	280.772	369.539	220.537	152.627	68.084	155.264	391.103	0.001343	0.00018173	8.3322e-05	566.65	2.1082e-06	2.7602e-06	901.12	177.48	2.8794e-06	1.1558e-06	387.45	161.28	68.915	25.699	4.2323e-06	73.545	0.00018697	0.00016387	4.5604e-05	547.75	1.9068e-06	1.7903e-06	857.7	171.06	1.9061e-06	1.7773e-06	359.95	148.91	64.921	24.361	1.8763e-06	67.839	90.283	90.046	133.912	70.936	165.403	148.219	71.390	76.603	110.901	209.432	76.890	81.819	81.982	86.659	217.665	85.431	-8191	255	
#DATA ENDS
