BOXY.EXE: ISS Imagent and Oximeter Data Acquisition Program Version 0.80
Ascii Record File

#ACQ INFORMATION
2  Detector Channels 
16  External MUX Channels 
1  Auxiliary Channels 
5000  Waveform (CCF) Frequency (Hz)
1  Waveforms Skipped 
30  Waveforms Averaged 
1  Cycles Averaged 
16  Acquisitions per Waveform 
10.0806  Updata Rate (Hz) 

#FILE INFORMATION
TRUE -- External MUX Channel results are PARSED.
FALSE -- AC DC and Phase are NOT grouped.
TRUE -- Companion Program Settings File CREATED.
FALSE -- AC data not excluded
FALSE -- DC data not excluded
FALSE -- Phase data not excluded
FALSE -- Auxillary Chn. data not excluded
Tab delimiters

#CALIBRATION STATE
TRUE -- Waveform Calibration Values APPLIED.


#AUX CALIBRATION VALUES
Val Type	aux-1	

Term	1.0000e+00	
Factor	0.0000e+00	


#WF CALIBRATION VALUES
A = Detector Channel
Val Type	A-AC1	A-AC2	A-AC3	A-AC4	A-AC5	A-AC6	A-AC7	A-AC8	A-AC9	A-AC10	A-AC11	A-AC12	A-AC13	A-AC14	A-AC15	A-AC16	A-DC1	A-DC2	A-DC3	A-DC4	A-DC5	A-DC6	A-DC7	A-DC8	A-DC9	A-DC10	A-DC11	A-DC12	A-DC13	A-DC14	A-DC15	A-DC16	A-Ph1	A-Ph2	A-Ph3	A-Ph4	A-Ph5	A-Ph6	A-Ph7	A-Ph8	A-Ph9	A-Ph10	A-Ph11	A-Ph12	A-Ph13	A-Ph14	A-Ph15	A-Ph16	

Term	0.00000e+00	0.00000e+00	0.00000e+00	0.00000e+00	0.00000e+00	0.00000e+00	0.00000e+00	0.00000e+00	0.00000e+00	0.00000e+00	0.00000e+00	0.00000e+00	0.00000e+00	0.00000e+00	0.00000e+00	0.00000e+00	0.00000e+00	0.00000e+00	0.00000e+00	0.00000e+00	0.00000e+00	0.00000e+00	0.00000e+00	0.00000e+00	0.00000e+00	0.00000e+00	0.00000e+00	0.00000e+00	0.00000e+00	0.00000e+00	0.00000e+00	0.00000e+00	0.00000e+00	0.00000e+00	0.00000e+00	0.00000e+00	0.00000e+00	0.00000e+00	0.00000e+00	0.00000e+00	0.00000e+00	0.00000e+00	0.00000e+00	0.00000e+00	0.00000e+00	0.00000e+00	0.00000e+00	0.00000e+00	
Factor	1.00000e+00	1.00000e+00	1.00000e+00	1.00000e+00	1.00000e+00	1.00000e+00	1.00000e+00	1.00000e+00	1.00000e+00	1.00000e+00	1.00000e+00	1.00000e+00	1.00000e+00	1.00000e+00	1.00000e+00	1.00000e+00	1.00000e+00	1.00000e+00	1.00000e+00	1.00000e+00	1.00000e+00	1.00000e+00	1.00000e+00	1.00000e+00	1.00000e+00	1.00000e+00	1.00000e+00	1.00000e+00	1.00000e+00	1.00000e+00	1.00000e+00	1.00000e+00	X	X	X	X	X	X	X	X	X	X	X	X	X	X	X	X	

B = Detector Channel
Val Type	B-AC1	B-AC2	B-AC3	B-AC4	B-AC5	B-AC6	B-AC7	B-AC8	B-AC9	B-AC10	B-AC11	B-AC12	B-AC13	B-AC14	B-AC15	B-AC16	B-DC1	B-DC2	B-DC3	B-DC4	B-DC5	B-DC6	B-DC7	B-DC8	B-DC9	B-DC10	B-DC11	B-DC12	B-DC13	B-DC14	B-DC15	B-DC16	B-Ph1	B-Ph2	B-Ph3	B-Ph4	B-Ph5	B-Ph6	B-Ph7	B-Ph8	B-Ph9	B-Ph10	B-Ph11	B-Ph12	B-Ph13	B-Ph14	B-Ph15	B-Ph16	

Term	0.00000e+00	0.00000e+00	0.00000e+00	0.00000e+00	0.00000e+00	0.00000e+00	0.00000e+00	0.00000e+00	0.00000e+00	0.00000e+00	0.00000e+00	0.00000e+00	0.00000e+00	0.00000e+00	0.00000e+00	0.00000e+00	0.00000e+00	0.00000e+00	0.00000e+00	0.00000e+00	0.00000e+00	0.00000e+00	0.00000e+00	0.00000e+00	0.00000e+00	0.00000e+00	0.00000e+00	0.00000e+00	0.00000e+00	0.00000e+00	0.00000e+00	0.00000e+00	-2.02558e+02	-1.16413e+02	-1.30120e+02	-1.82161e+02	-9.57707e+01	-1.01369e+02	-1.59306e+02	-1.62015e+02	-1.14350e+02	-5.77035e+01	-1.70639e+02	-1.72301e+02	-1.77500e+02	-1.76674e+02	-5.36760e+01	-1.49496e+02	
Factor	4.10936e-05	9.52974e-05	2.49006e-05	1.49428e-01	8.83243e-07	8.91524e-07	1.68800e-01	4.93801e-02	1.17695e-06	7.15398e-07	8.34437e-02	2.98807e-02	2.54106e-02	8.75613e-03	1.20421e-06	1.26828e-02	6.26555e-07	6.35961e-07	1.78841e-07	7.42432e-02	6.95763e-09	6.96690e-09	7.86376e-02	2.43642e-02	6.96256e-09	6.98071e-09	3.91092e-02	1.39300e-02	1.23175e-02	4.23067e-03	7.03845e-09	5.88851e-03	X	X	X	X	X	X	X	X	X	X	X	X	X	X	X	X	



#DISTANCE SETTINGS
A = Detector Channel
A-1	A-2	A-3	A-4	A-5	A-6	A-7	A-8	A-9	A-10	A-11	A-12	A-13	A-14	A-15	A-16	

2.5000e+00	3.0000e+00	2.5000e+00	3.0000e+00	2.0000e+00	3.0000e+00	1.5000e+00	3.0000e+00	3.0000e+00	3.0000e+00	3.0000e+00	3.0000e+00	3.0000e+00	3.0000e+00	1.5000e+00	3.0000e+00	

B = Detector Channel
B-1	B-2	B-3	B-4	B-5	B-6	B-7	B-8	B-9	B-10	B-11	B-12	B-13	B-14	B-15	B-16	

1.0000e+01	1.0000e+01	1.0000e+01	1.4400e+00	1.0000e+01	1.0000e+01	1.5100e+00	1.9400e+00	1.0000e+01	1.0000e+01	1.9900e+00	2.4900e+00	2.4100e+00	2.9000e+00	1.0000e+01	2.9800e+00	




#DATA BEGINS
time	group	step	mark	flag	A-AC1	A-AC2	A-AC3	A-AC4	A-AC5	A-AC6	A-AC7	A-AC8	A-AC9	A-AC10	A-AC11	A-AC12	A-AC13	A-AC14	A-AC15	A-AC16	A-DC1	A-DC2	A-DC3	A-DC4	A-DC5	A-DC6	A-DC7	A-DC8	A-DC9	A-DC10	A-DC11	A-DC12	A-DC13	A-DC14	A-DC15	A-DC16	A-Ph1	A-Ph2	A-Ph3	A-Ph4	A-Ph5	A-Ph6	A-Ph7	A-Ph8	A-Ph9	A-Ph10	A-Ph11	A-Ph12	A-Ph13	A-Ph14	A-Ph15	A-Ph16	B-AC1	B-AC2	B-AC3	B-AC4	B-AC5	B-AC6	B-AC7	B-AC8	B-AC9	B-AC10	B-AC11	B-AC12	B-AC13	B-AC14	B-AC15	B-AC16	B-DC1	B-DC2	B-DC3	B-DC4	B-DC5	B-DC6	B-DC7	B-DC8	B-DC9	B-DC10	B-DC11	B-DC12	B-DC13	B-DC14	B-DC15	B-DC16	B-Ph1	B-Ph2	B-Ph3	B-Ph4	B-Ph5	B-Ph6	B-Ph7	B-Ph8	B-Ph9	B-Ph10	B-Ph11	B-Ph12	B-Ph13	B-Ph14	B-Ph15	B-Ph16	aux-1	digaux	

7620.436	1	1	0	256	0.098053	0.1939	0.13392	0.40439	0.2938	0.42294	0.26792	0.091906	0.19635	0.22547	0.075561	0.03583	0.19079	0.019043	0.090964	0.27189	-1.3771	-1.8708	-2.1646	-1.4833	-2.0958	-2.0521	-1.9312	-2.4521	-1.4521	-2.0833	-2.3125	-1.6667	-2.1208	-2.2188	-1.8354	-2.2062	319.121	393.174	323.592	396.661	356.568	191.702	250.652	345.152	185.947	228.750	125.959	118.018	353.317	296.602	169.582	269.219	0.0010427	0.0013716	6.7246e-05	747.33	4.3376e-06	1.64e-05	976.18	252.81	8.8883e-06	7.1045e-06	387.35	121.75	65.215	18.373	8.7797e-06	47.957	0.0014268	0.0015404	0.00041654	868.38	1.5827e-05	1.6873e-05	1096.3	289.37	1.5876e-05	1.6835e-05	443.99	141.69	86.697	27	1.5748e-05	56.358	81.262	350.050	124.343	59.827	129.011	145.738	60.066	64.023	157.843	200.548	63.684	68.740	68.602	73.922	161.183	74.337	-8191	255	
7620.532	1	1	0	0	0.28025	0.33783	0.21836	0.16305	0.20131	0.33533	0.21455	0.2329	0.15965	0.044192	0.20811	0.28291	0.073816	0.38139	0.24003	0.095035	-1.3062	-1.8917	-2.2167	-1.6542	-2.0917	-2.0021	-1.7333	-2.4208	-1.75	-1.8687	-2.4729	-1.8167	-2.0208	-2.0771	-1.7167	-2.4437	207.362	309.500	241.154	369.369	148.823	171.834	147.670	241.472	102.434	328.828	343.821	341.387	286.360	61.814	322.045	305.624	0.0015709	0.00083028	0.00015622	750.36	7.9009e-06	9.4319e-06	977.16	253.45	1.4884e-05	1.0394e-05	386.22	120.85	63.908	18.388	7.8777e-06	48.651	0.0014416	0.0014748	0.00039478	865.6	1.5797e-05	1.6189e-05	1091.3	289.66	1.5882e-05	1.6051e-05	438.81	140.24	86.25	26.548	1.5401e-05	57.197	64.382	113.695	225.381	60.054	154.019	177.776	59.675	63.837	157.867	358.987	63.414	68.959	68.948	73.493	375.882	74.802	-8191	255	
7620.628	1	1	0	0	0.2887	0.096554	0.081076	0.2405	0.044102	0.25019	0.16158	0.21664	0.28916	0.16881	0.18872	0.077491	0.11661	0.19147	0.14254	0.22876	-1.2542	-1.9354	-2.2771	-1.8167	-1.9792	-2	-1.8667	-2.275	-1.8438	-1.675	-2.3958	-1.7417	-1.925	-2.0396	-1.5396	-2.2021	333.878	150.364	147.554	375.947	253.460	163.261	266.153	340.971	112.268	215.487	302.306	266.395	100.623	344.953	141.742	50.459	0.0011557	0.00033889	0.00023284	712.58	8.6536e-06	7.4689e-06	946.26	239.76	1.1535e-05	3.5801e-06	377.17	120.88	62.235	18.644	2.3549e-06	49.171	0.0014924	0.0014795	0.00040162	835.58	1.6718e-05	1.6221e-05	1063.7	278.39	1.6817e-05	1.6172e-05	431.42	141.24	85.605	26.533	1.5448e-05	58.019	78.189	315.874	126.232	60.496	48.187	74.773	59.959	64.302	116.668	93.229	64.269	69.218	67.971	74.366	48.246	74.946	-8191	255	
7620.749	1	1	0	0	0.27605	0.28874	0.2893	0.23677	0.17209	0.1028	0.25951	0.32197	0.18815	0.1421	0.071474	0.068077	0.067488	0.10594	0.22904	0.2918	-1.5396	-1.8438	-2.0896	-1.7437	-2.0333	-2.1417	-1.7604	-2.2479	-2.0604	-1.6104	-2.3896	-1.7667	-2	-2.0125	-1.5375	-2.2396	72.796	116.392	192.807	367.729	183.516	342.593	338.067	134.633	234.147	246.861	385.978	111.253	86.666	301.238	132.925	364.257	0.00097267	0.00010343	0.00017049	717.11	8.8695e-06	6.4525e-06	950.33	242.79	5.2452e-07	3.3439e-06	379.38	120.36	62.507	18.531	8.5863e-06	49.942	0.0014933	0.0014158	0.0003866	841.39	1.6283e-05	1.5512e-05	1063.9	281.59	1.6277e-05	1.5479e-05	432.18	141.74	85.143	26.221	1.5252e-05	58.818	57.230	319.367	308.312	60.367	402.160	134.404	59.926	64.031	375.569	156.127	63.617	69.555	68.319	73.879	238.125	75.232	-8191	255	
7620.845	1	1	0	0	0.11419	0.21975	0.20177	0.16547	0.20085	0.246	0.1818	0.13361	0.17428	0.097317	0.11906	0.25393	0.22687	0.19206	0.0533	0.25313	-1.7313	-1.4917	-2.3042	-2.0271	-1.7021	-2.1917	-1.6708	-1.9625	-1.9667	-1.7354	-2.1271	-1.8708	-1.7917	-2.2	-1.5021	-1.9833	96.526	79.792	54.157	125.566	397.603	229.592	344.181	362.595	348.430	179.232	51.589	360.693	401.353	195.817	272.718	163.763	0.00078672	0.0014785	0.00033133	715.14	1.4263e-05	4.3464e-06	951.32	241.86	1.1802e-05	7.5749e-06	377.47	121.42	62.472	18.576	8.0195e-06	49.51	0.0014716	0.0013951	0.00038818	846.48	1.6019e-05	1.536e-05	1062.4	283.13	1.5884e-05	1.5239e-05	431.85	143.12	84.607	26.127	1.5347e-05	59.206	106.330	372.979	210.544	60.524	118.671	139.008	60.108	64.210	106.812	377.491	63.958	69.145	68.549	73.749	178.687	74.987	-8191	255	
7620.917	1	1	0	0	0.16854	0.23778	0.15072	0.20476	0.10899	0.20536	0.083237	0.11646	0.10239	0.18694	0.14711	0.17048	0.28716	0.30067	0.18157	0.091573	-1.6729	-1.5729	-2.1688	-1.8563	-1.6187	-2.2271	-1.725	-2.1625	-1.9958	-1.5562	-2.3417	-2.0479	-1.6812	-2.2167	-1.7521	-1.9708	278.023	310.208	71.649	358.161	91.703	245.860	390.783	282.319	108.720	145.630	351.096	54.410	323.706	387.515	140.447	167.798	0.00071714	0.00033129	0.00032327	714.29	6.0445e-06	4.7809e-06	956.88	243.18	1.232e-05	1.3512e-06	380.91	121.72	62.599	18.328	1.1362e-05	49.508	0.0014334	0.0013842	0.00039631	849.12	1.5588e-05	1.5142e-05	1071.3	284.75	1.564e-05	1.5137e-05	435.76	143.23	84.4	26.08	1.5883e-05	58.737	394.538	62.493	133.881	60.386	212.484	309.415	60.235	64.149	180.155	54.739	63.734	68.787	68.286	73.648	186.486	74.293	-8191	255	
7621.013	1	1	0	0	0.14527	0.12419	0.15523	0.19768	0.19319	0.03462	0.022393	0.2245	0.13574	0.13554	0.079374	0.26931	0.26645	0.34788	0.17332	0.24717	-1.7625	-1.4562	-2.0083	-2.0229	-1.7021	-2.2625	-1.7917	-1.8563	-2.2583	-1.65	-2.1979	-1.8813	-1.6771	-2.2	-1.8167	-1.9604	323.117	325.059	118.482	395.390	192.999	78.215	377.550	338.941	122.467	122.251	297.980	401.104	363.827	382.045	296.585	373.884	0.0010589	0.00083406	0.00041766	716.15	1.4525e-05	5.2479e-06	949.05	242.59	7.7361e-06	4.0412e-06	377.82	121.03	62.793	18.451	9.1625e-06	48.91	0.0013993	0.0013691	0.00040799	852.32	1.5373e-05	1.5079e-05	1074.9	284.2	1.5351e-05	1.5161e-05	437.93	142.36	84.087	26.049	1.6474e-05	58.399	89.832	95.500	241.008	60.408	214.672	114.882	60.396	64.133	240.889	168.497	64.074	69.103	68.349	74.252	289.615	74.701	-8191	255	
7621.109	1	1	0	0	0.10111	0.14763	0.32908	0.21438	0.27571	0.19728	0.10999	0.2995	0.1727	0.065868	0.13829	0.34794	0.13665	0.15839	0.058268	0.032348	-1.8687	-1.6396	-2.0479	-2.0542	-1.6812	-2.3063	-2.0292	-1.7896	-2.3187	-1.6688	-2	-2.1312	-1.6208	-2.25	-1.9937	-1.7	277.146	171.621	163.460	111.103	242.047	343.138	51.666	321.564	210.553	395.106	298.713	340.858	61.056	373.489	52.083	306.652	0.0006327	0.00054286	0.00034035	720.89	9.4544e-06	1.5135e-05	954.76	245.59	5.9829e-06	1.5147e-05	382.32	121.58	62.824	18.497	1.3747e-05	49.078	0.0013956	0.0013921	0.00042128	851.67	1.538e-05	1.5465e-05	1083.4	285	1.5287e-05	1.544e-05	442.37	142.38	84.121	26.372	1.6767e-05	58.173	400.133	76.850	158.873	60.082	288.831	176.993	60.057	63.910	300.947	242.501	63.752	68.890	68.767	73.974	144.808	74.811	-8191	255	
7621.228	1	1	0	0	0.21138	0.21293	0.15395	0.096168	0.12298	0.13128	0.14569	0.22791	0.13853	0.15491	0.089855	0.17285	0.1706	0.14024	0.077375	0.095056	-1.8687	-1.5021	-1.9438	-2.1562	-1.7292	-2.3125	-2.2604	-1.8312	-2.1875	-1.7667	-1.9979	-2.2646	-1.6542	-2.1292	-2.1146	-1.7625	323.180	256.902	239.940	388.201	391.540	364.840	266.934	310.266	169.680	152.215	221.605	210.130	149.773	263.581	314.231	391.408	0.0013224	0.00073407	0.00023335	722.33	6.2432e-06	1.4826e-05	952.99	243.74	1.0165e-05	5.294e-06	383.03	121.31	63.126	18.569	1.4057e-05	49.245	0.0013906	0.001442	0.00042898	847.06	1.5345e-05	1.6026e-05	1085.5	283.5	1.5482e-05	1.6303e-05	443.33	142.24	84.527	26.853	1.679e-05	58.142	54.652	131.894	254.642	60.458	379.619	169.910	60.003	64.108	134.679	154.794	63.798	68.825	68.660	74.226	101.677	74.571	-8191	255	
7621.324	1	1	0	0	0.048113	0.039278	0.10978	0.12544	0.17761	0.26991	0.1734	0.099605	0.25442	0.13374	0.089292	0.2292	0.16848	0.36284	0.21743	0.10045	-1.85	-1.8521	-1.6521	-2.2125	-1.6292	-2.1646	-2.2417	-1.8542	-2.2125	-1.7979	-1.8604	-2.325	-1.6854	-1.9083	-2.1667	-1.6063	379.712	108.960	196.230	379.079	360.091	241.675	321.116	49.218	381.520	357.648	292.888	364.160	405.181	310.037	390.513	220.408	0.0010894	0.0013516	0.00022104	727.59	5.0346e-06	1.2153e-05	960.58	244.34	8.8695e-06	8.2808e-06	381.56	121.36	62.792	18.483	9.0808e-06	49.582	0.0014048	0.0015153	0.00042736	856.92	1.5701e-05	1.6838e-05	1090.5	285.28	1.5868e-05	1.7168e-05	443.75	142.74	85.424	27.418	1.6782e-05	58.581	84.954	94.373	281.821	60.008	251.912	165.775	59.783	64.433	188.433	211.482	63.720	69.144	68.703	74.686	118.753	74.559	-8191	255	
7621.420	1	1	0	0	0.27529	0.18055	0.13128	0.32365	0.2113	0.070358	0.35345	0.18235	0.13531	0.097602	0.10525	0.12866	0.32244	0.19289	0.20104	0.1289	-1.7792	-1.9542	-1.6958	-2.3417	-1.5938	-2.0187	-2.2375	-1.5854	-2.0854	-1.8792	-1.8396	-2.3479	-1.9521	-1.7771	-2.0187	-1.825	203.572	54.778	310.116	356.745	180.820	330.056	356.244	325.308	175.159	188.359	139.982	365.167	214.819	392.924	299.243	52.492	0.0015275	0.00089208	0.00026958	723.48	1.1733e-05	6.267e-06	956.36	245.48	1.6809e-05	4.9961e-06	381.83	121.62	63.498	18.567	1.3733e-05	49.542	0.0014569	0.0015712	0.00042112	850.3	1.6073e-05	1.7242e-05	1082.3	284.69	1.6138e-05	1.7216e-05	440.34	142.39	86.101	27.349	1.6386e-05	58.396	72.831	110.066	355.636	59.960	186.587	114.109	60.099	64.068	93.636	124.243	63.792	69.575	68.268	74.125	190.716	74.795	-8191	255	
7621.541	1	1	0	0	0.12479	0.15013	0.15413	0.22536	0.36937	0.38965	0.076233	0.30899	0.24052	0.08392	0.081435	0.007904	0.15471	0.0754	0.18452	0.2749	-1.6812	-1.9375	-1.7229	-2.3063	-1.8292	-1.9292	-2.1958	-1.8792	-2.1729	-1.9333	-1.925	-2.4604	-1.85	-2.0125	-2.3104	-1.7417	359.251	313.970	383.519	252.704	89.320	59.663	166.484	362.025	177.618	328.375	336.590	179.979	155.994	377.728	383.678	361.077	0.0015637	0.00076658	0.00018036	715.5	1.9454e-05	6.2191e-06	945.77	245.11	2.0365e-05	5.3989e-06	381.04	121.4	63.171	18.601	1.3751e-05	50.022	0.0015006	0.0015683	0.00041693	844.35	1.6756e-05	1.7071e-05	1075.9	283.02	1.6858e-05	1.6997e-05	438.45	142.4	87.009	27.198	1.6216e-05	58.753	87.333	373.211	273.448	60.491	192.092	81.982	59.913	64.057	97.252	47.053	63.913	69.261	68.594	73.710	121.273	75.008	-8191	255	
7621.612	1	1	0	0	0.17131	0.18828	0.12657	0.059753	0.27532	0.14496	0.277	0.31463	0.098649	0.14053	0.3511	0.11618	0.54203	0.28252	0.15314	0.068029	-1.7062	-1.9208	-1.6437	-2.2333	-1.7854	-1.7938	-2.0979	-1.5979	-1.9688	-2.0563	-1.65	-2.2479	-1.9771	-1.775	-2.1708	-1.6708	316.330	141.401	371.721	261.276	373.754	339.985	361.691	397.198	48.569	66.140	370.978	334.735	113.432	124.597	159.910	50.614	0.001334	0.00066895	0.00013101	719.92	4.4023e-06	9.9062e-06	947.9	246.1	1.9374e-05	1.4054e-05	384.99	123.05	63.511	18.648	1.1134e-05	49.43	0.0015323	0.0015168	0.00040844	846.81	1.6907e-05	1.6378e-05	1072.1	283.9	1.6856e-05	1.63e-05	438.79	143.11	87.381	26.754	1.5634e-05	58.385	73.398	109.517	394.394	60.259	55.504	400.486	60.037	64.195	155.116	341.174	63.943	69.788	68.268	73.479	152.259	74.701	-8191	255	
7621.708	1	1	0	0	0.1223	0.22421	0.11355	0.13242	0.23829	0.09195	0.27782	0.13139	0.044539	0.21379	0.089995	0.097335	0.087682	0.1288	0.24512	0.13096	-1.3875	-2.1937	-1.6146	-2.1521	-1.8646	-1.7687	-2.4979	-1.8375	-1.9021	-2.2479	-1.6313	-2.1854	-1.9958	-1.6354	-2.0938	-1.7437	397.067	211.253	243.788	209.623	151.991	214.376	281.677	281.381	238.181	326.847	214.583	90.636	106.902	296.994	83.588	333.190	0.00069414	0.00061446	4.3376e-05	733.83	1.1703e-05	9.0704e-06	960.59	249.27	1.518e-05	4.1257e-06	384.99	122.35	63.713	18.637	3.0101e-06	49.257	0.0015273	0.00145	0.0003957	858.17	1.6684e-05	1.5878e-05	1078.1	288.56	1.6564e-05	1.586e-05	438.14	143.8	86.989	26.516	1.5435e-05	58.752	82.613	105.343	88.014	60.269	307.665	205.179	59.836	64.095	307.859	227.403	63.555	69.227	68.305	73.618	115.659	75.025	-8191	255	
7621.829	1	1	0	0	0.1435	0.069383	0.29594	0.054653	0.11578	0.28786	0.23906	0.22931	0.073278	0.26678	0.21587	0.22024	0.072344	0.17763	0.075483	0.39999	-1.425	-2.1146	-1.5792	-2.1	-1.9958	-1.8021	-2.2083	-1.9688	-1.8229	-2.0729	-1.7167	-2.1125	-1.85	-1.6604	-2.3312	-1.8021	207.312	287.310	160.459	105.406	330.957	285.761	234.979	276.368	281.129	121.130	302.884	321.504	80.276	328.549	202.345	361.139	0.00045577	0.00083877	0.00018919	725.06	1.0579e-05	7.2525e-06	951.36	246.51	6.9312e-06	4.1144e-06	381.63	121.13	63.601	18.518	1.4005e-05	49.248	0.0014882	0.001423	0.00039008	853.86	1.6205e-05	1.542e-05	1066.9	286.98	1.6132e-05	1.555e-05	435.19	143.57	86.014	26.356	1.5665e-05	59.003	78.409	107.928	72.408	60.462	154.376	52.266	60.063	63.956	64.178	374.411	63.867	69.401	68.468	73.878	273.254	74.844	-8191	255	
7621.925	1	1	0	0	0.25683	0.30709	0.01561	0.18765	0.16429	0.059986	0.19851	0.12036	0.18635	0.3781	0.2204	0.10581	0.13296	0.14121	0.11498	0.19065	-1.3	-2.1229	-1.5667	-2.1312	-2.1292	-1.7604	-2.4	-1.8896	-1.5625	-2.2417	-1.6938	-1.8729	-2.1104	-1.6521	-2.0583	-2.0042	262.540	158.738	291.079	356.223	67.002	200.950	388.283	67.808	159.453	167.150	373.029	392.475	58.836	77.306	113.716	125.246	0.00099888	0.00039511	2.7565e-05	724.96	3.3268e-06	3.0277e-06	956.75	246.15	3.1561e-06	8.0054e-06	382.06	121.23	63.489	18.343	2.362e-05	49.464	0.0014562	0.0014196	0.00040287	860.78	1.604e-05	1.5354e-05	1076.2	289.23	1.5906e-05	1.551e-05	440.37	144.3	85.634	26.292	1.6246e-05	59.239	81.707	126.314	152.113	60.295	132.831	392.072	60.408	63.983	374.104	194.250	64.179	69.269	68.770	73.845	163.952	74.294	-8191	255	
7622.021	1	1	0	0	0.068738	0.26265	0.32716	0.19113	0.13185	0.14946	0.10517	0.062189	0.2217	0.27225	0.12056	0.25431	0.031249	0.21004	0.093601	0.27839	-1.2687	-2.1292	-1.7083	-2.1375	-2.2167	-1.4833	-2.275	-2.0667	-1.7062	-2.2208	-1.8125	-1.9562	-2.2667	-1.8167	-2.1	-2.2438	381.823	282.045	162.473	56.624	385.887	47.505	316.409	157.529	265.613	300.286	48.458	341.469	227.247	285.167	318.157	395.603	0.00073512	0.0010761	7.5296e-05	720.21	2.691e-06	1.1076e-05	948.5	243.21	1.2706e-05	3.8928e-06	377.84	122.57	62.152	18.918	4.0873e-06	50.525	0.0014397	0.0014101	0.00041752	857.32	1.5809e-05	1.5536e-05	1077.2	285.66	1.5675e-05	1.5559e-05	439.08	144.53	84.18	26.502	1.6763e-05	60.203	75.985	83.004	144.874	60.306	370.274	133.357	60.399	64.174	288.080	47.463	64.168	69.166	68.614	73.993	67.912	74.977	-8191	255	
7622.140	1	1	0	0	0.27131	0.11218	0.23162	0.10711	0.094366	0.15186	0.28694	0.11209	0.068197	0.034202	0.063808	0.10828	0.03556	0.21639	0.22169	0.11751	-1.3271	-2.2708	-1.9312	-1.9458	-2.2854	-1.8229	-2.15	-2.0479	-1.5938	-2.2562	-1.9708	-1.7979	-2.2479	-1.6521	-1.9854	-2.1667	124.093	362.911	232.064	380.531	390.676	299.707	348.178	388.330	167.565	310.612	310.474	295.370	299.769	92.167	360.263	230.019	0.00058488	0.00073797	0.0003706	704.36	7.7751e-06	4.0997e-06	947.09	239.96	1.401e-05	3.4621e-06	377.69	121.74	62.486	18.791	8.6438e-06	50.746	0.0014254	0.0014269	0.00043148	838.08	1.5724e-05	1.5666e-05	1076.8	281.04	1.5573e-05	1.5786e-05	440.62	143.17	83.912	26.701	1.7046e-05	59.841	89.272	376.700	165.318	60.097	135.657	129.623	60.194	64.064	364.000	401.230	63.719	69.026	68.574	73.878	166.905	74.817	-8191	255	
7622.212	1	1	0	0	0.17064	0.070572	0.17794	0.21563	0.17854	0.19391	0.043414	0.055912	0.2792	0.20986	0.074804	0.2994	0.30093	0.13849	0.15377	0.098318	-1.2333	-2.1146	-1.8833	-1.9667	-2.2958	-1.7	-2.1188	-2.2104	-1.4375	-2.2313	-1.9917	-1.9146	-2.1208	-1.6979	-1.8896	-2.3104	220.132	122.614	100.733	66.758	380.424	198.844	56.602	46.686	260.629	136.240	331.378	350.202	362.791	59.843	275.608	361.695	0.0011131	0.0013959	0.00021508	703.91	9.5148e-06	7.4503e-06	929.3	237.35	6.1608e-06	9.4714e-06	373.64	121.64	61.677	18.797	8.9783e-06	50.807	0.0013966	0.0014527	0.00043418	829.16	1.5493e-05	1.5997e-05	1065.8	276.71	1.5418e-05	1.6276e-05	435.79	142.27	83.237	27.088	1.6912e-05	59.913	104.475	187.853	72.601	60.481	358.426	207.363	59.979	63.983	398.174	212.456	64.009	69.429	68.902	74.553	148.667	74.960	-8191	255	
7622.308	1	1	0	0	0.25606	0.045085	0.22232	0.12996	0.085191	0.047968	0.18807	0.1496	0.10693	0.26414	0.16725	0.14518	0.2393	0.055227	0.1941	0.29927	-1.0938	-1.9937	-2.0875	-1.6167	-2.2	-1.6396	-2.0354	-2.4062	-1.6042	-2.0896	-2.1708	-1.7	-2.2229	-1.85	-2.1083	-2.2229	294.268	154.462	198.251	387.658	106.210	395.748	397.107	163.555	155.445	147.303	93.563	304.605	272.692	355.969	226.145	337.910	0.00081678	0.0021539	0.00025083	696.82	1.4156e-05	1.0239e-05	930.49	238.01	1.4206e-05	4.4629e-06	375.66	121.02	61.912	18.919	6.055e-06	51.391	0.0013997	0.0015023	0.00042711	825.87	1.5567e-05	1.6687e-05	1064.7	276.33	1.5578e-05	1.6869e-05	436.91	142.65	83.924	27.589	1.6726e-05	60.17	99.193	176.968	334.276	60.360	195.426	175.642	60.139	64.181	241.101	191.121	63.979	69.277	68.650	74.070	247.416	74.633	-8191	255	
7622.404	1	1	0	0	0.22698	0.2385	0.10994	0.26017	0.21669	0.17912	0.09121	0.050373	0.23218	0.14893	0.14722	0.16365	0.12496	0.16036	0.074576	0.14449	-1.2375	-2.0958	-2.0333	-1.6979	-2.2958	-2.1167	-1.8917	-2.35	-1.8625	-2	-2.175	-1.6042	-2.1083	-2.1271	-1.775	-2.3063	131.463	127.141	128.719	379.827	284.344	97.988	227.074	212.358	328.658	57.550	382.183	321.800	353.604	341.944	376.672	386.603	0.0013396	0.0010951	0.00019297	692.75	1.2294e-05	5.7691e-06	928.51	237.34	1.8082e-05	2.9396e-06	373.74	121.9	62.147	18.934	7.1246e-06	51.59	0.0014505	0.001577	0.00042409	825.52	1.6043e-05	1.7299e-05	1060.8	276.6	1.6236e-05	1.7213e-05	435.78	143.03	85.372	27.849	1.6509e-05	60.413	79.348	268.563	326.914	60.496	183.181	120.132	60.406	64.411	179.901	190.701	64.149	69.142	69.079	74.210	215.623	75.064	-8191	255	
7622.525	1	1	0	0	0.12888	0.097426	0.22203	0.15278	0.21436	0.12786	0.25744	0.33251	0.088869	0.063884	0.12567	0.12176	0.39847	0.08777	0.077606	0.035421	-1.1375	-1.8521	-2.2562	-1.7979	-2.1667	-2	-2.0542	-2.2625	-1.8646	-2.0812	-2.3875	-1.55	-2.2708	-2.1	-1.6604	-2.3021	319.679	77.042	107.617	94.654	308.738	405.560	355.764	387.157	80.312	247.847	344.065	347.638	385.133	266.665	142.549	380.886	0.0012282	0.00032894	3.2616e-05	701.64	1.4384e-05	9.3985e-06	933.55	238.26	3.4856e-06	5.8637e-06	377.65	121.85	63.057	19.057	9.2619e-06	51.624	0.0015019	0.0015827	0.00042042	829.75	1.6801e-05	1.7278e-05	1062.2	278.41	1.7001e-05	1.7275e-05	438.04	143.71	87.137	27.774	1.6438e-05	60.634	89.630	116.954	182.049	60.203	192.796	255.034	60.300	64.282	294.067	144.306	64.130	69.592	68.755	74.610	245.035	74.581	-8191	255	
7622.621	1	1	0	0	0.21082	0.26083	0.22296	0.22961	0.11663	0.053862	0.35566	0.11788	0.083874	0.21992	0.20111	0.043299	0.21396	0.10322	0.12393	0.26592	-1.4021	-1.95	-2.2833	-1.7792	-2.1688	-2.0604	-1.7437	-2.4292	-1.8208	-1.7917	-2.2417	-1.8229	-1.9917	-2.2188	-1.5854	-2.5271	227.643	338.906	164.303	405.735	379.176	242.534	382.330	368.405	132.534	261.331	343.650	60.588	255.825	115.535	292.574	62.455	0.0014943	0.00079167	0.00012053	705.66	8.9757e-06	9.3512e-06	931.65	240.85	2.6425e-05	6.4794e-06	375.34	122.39	62.596	18.867	1.918e-05	51.125	0.0015749	0.0015522	0.00041813	836.67	1.7472e-05	1.7002e-05	1064.3	281	1.7392e-05	1.6852e-05	436.32	143.85	87.423	27.32	1.6134e-05	60.143	84.662	309.487	267.413	60.377	196.139	114.616	60.295	64.225	153.969	182.746	64.062	69.183	68.724	74.040	387.993	74.857	-8191	255	
7622.717	1	1	0	0	0.070845	0.3473	0.10702	0.076311	0.11447	0.023235	0.29868	0.28262	0.14141	0.042599	0.16007	0.34199	0.15648	0.20849	0.19604	0.12618	-1.4708	-1.6667	-2.3104	-1.6646	-2.0938	-2.1813	-1.6125	-2.3396	-1.7583	-1.7708	-2.45	-1.8208	-1.925	-2.175	-1.7167	-2.2562	166.518	318.274	252.539	136.428	374.280	236.283	91.713	309.549	347.037	161.722	123.421	55.775	373.546	53.449	216.594	92.953	0.00096643	0.00051129	3.0978e-05	702.23	1.1035e-05	1.8622e-05	937.07	239.57	6.7813e-06	1.4019e-06	378.3	120.93	62.641	18.751	1.0023e-05	50.854	0.0015733	0.0015082	0.00040986	837.44	1.727e-05	1.6458e-05	1059.9	281.53	1.7276e-05	1.6264e-05	433.85	144.26	86.81	27.028	1.5961e-05	60.665	106.189	295.123	102.340	60.473	251.925	275.731	60.029	64.093	381.875	114.747	64.141	69.411	68.731	74.144	189.947	75.045	-8191	255	
7622.789	1	1	0	0	0.32072	0.10989	0.065121	0.34864	0.064753	0.19086	0.090902	0.37175	0.12216	0.10965	0.19468	0.16302	0.042052	0.24114	0.12093	0.44342	-1.425	-1.4375	-2.1479	-1.7896	-1.7917	-2.1104	-1.6938	-2.1479	-2.1042	-1.7417	-2.4437	-1.9375	-1.675	-2.2104	-1.6292	-2.1937	94.982	272.790	163.869	65.403	364.821	139.368	390.834	156.824	380.745	158.299	322.888	51.037	108.653	63.183	117.235	330.438	0.00064356	0.00066843	0.00021376	699.1	4.1876e-06	1.7884e-06	930.38	238	1.6332e-05	8.2424e-06	375.4	121.19	62.452	18.712	4.5472e-06	51.351	0.0015411	0.0014695	0.00040526	838.57	1.6751e-05	1.6028e-05	1051.4	281.18	1.6668e-05	1.6026e-05	432.29	144.69	85.662	26.868	1.6005e-05	61.177	77.008	332.200	137.087	60.619	69.036	261.915	60.467	64.295	305.250	171.196	63.768	69.161	68.222	74.195	258.027	74.822	-8191	255	
7622.909	1	1	0	0	0.13105	0.19159	0.20012	0.27138	0.15702	0.24908	0.23021	0.06397	0.15854	0.18696	0.19822	0.23607	0.26625	0.2534	0.40584	0.10807	-1.6208	-1.6854	-2.2208	-1.9396	-1.8104	-2.1771	-1.7042	-2.025	-2.1688	-1.6979	-2.2354	-1.9229	-1.75	-2.2104	-1.7896	-2.0042	205.069	280.980	312.145	390.034	114.075	185.055	332.544	125.204	349.156	111.344	351.501	391.299	312.817	353.172	237.904	301.431	0.00037726	0.00090961	6.5513e-05	695.66	8.27e-06	5.6386e-06	933.38	237.65	8.2718e-06	5.7211e-06	376.48	122.74	62.525	18.805	1.516e-05	51.482	0.0014991	0.0014462	0.00040923	840.47	1.6361e-05	1.5875e-05	1057	282.16	1.6193e-05	1.5635e-05	434.91	145.52	84.941	26.633	1.6299e-05	61.208	119.503	64.978	205.517	60.159	336.716	186.920	60.399	64.376	339.285	210.445	64.100	69.081	68.592	74.155	165.202	74.888	-8191	255	
7623.006	1	1	0	0	0.27684	0.046296	0.098222	0.1357	0.11393	0.21312	0.19228	0.4507	0.11132	0.28853	0.11585	0.46509	0.071342	0.16989	0.10612	0.33262	-1.6146	-1.5979	-2.2292	-2.1042	-1.7354	-2.2333	-1.6437	-2.0625	-2.3854	-1.5729	-2.2	-2.3187	-1.8604	-2.4	-1.7625	-2.0417	104.484	62.863	175.035	123.936	72.313	317.444	195.412	304.255	180.989	194.080	396.824	403.590	110.912	96.361	328.295	54.679	0.000361	0.00027991	0.00020899	701.07	9.2439e-06	2.0363e-06	937.3	238.96	1.1948e-05	6.7575e-06	376.09	121.66	61.847	18.868	2.8905e-05	51.107	0.0014546	0.0014217	0.0004183	840.51	1.5833e-05	1.5564e-05	1064.5	281.63	1.5804e-05	1.5457e-05	436.68	144.44	84.119	26.661	1.6774e-05	60.547	73.171	391.991	165.006	60.201	377.964	394.216	59.959	64.054	290.086	235.546	63.972	69.227	68.519	74.422	270.742	75.051	-8191	255	
7623.102	1	1	0	0	0.23427	0.21189	0.21084	0.092861	0.18768	0.10263	0.20258	0.24887	0.21834	0.074557	0.22536	0.066125	0.21047	0.14917	0.062184	0.27316	-1.7146	-1.6083	-1.9146	-2.0625	-1.5187	-2.1771	-2.025	-1.9979	-2.3771	-1.675	-2.1375	-2.2729	-1.5521	-2.2042	-2.0104	-1.9292	139.193	163.180	171.902	310.638	148.552	115.460	337.324	352.215	307.191	331.399	349.705	387.158	378.435	242.953	129.297	353.331	0.00083113	0.00059257	0.00025843	700.29	6.2145e-06	8.5736e-06	935.63	238.11	7.0035e-06	7.795e-06	376.89	121.94	62.842	18.937	3.965e-06	51.37	0.0014266	0.001419	0.00043046	835.33	1.5646e-05	1.5592e-05	1067.3	279.48	1.5649e-05	1.5813e-05	438.41	143.63	83.96	26.879	1.7148e-05	60.477	404.836	144.805	164.097	60.348	102.654	185.188	60.316	64.395	52.428	176.681	63.985	69.164	68.434	75.068	135.609	75.007	-8191	255	
7623.222	1	1	0	0	0.11392	0.37222	0.11783	0.21138	0.11217	0.11788	0.22667	0.30663	0.16685	0.034515	0.10095	0.32526	0.12878	0.15145	0.1202	0.25623	-1.7625	-1.7646	-2.0917	-2.1896	-1.6354	-2.4667	-2.1021	-1.7687	-2.3583	-1.7271	-2.0583	-2.0583	-1.625	-2.1417	-1.8875	-1.7854	364.015	253.128	347.479	288.097	339.771	248.196	92.275	306.222	178.330	153.454	319.190	352.191	120.241	334.327	152.248	352.596	0.0010715	0.00068185	0.00035438	699.22	4.4321e-06	8.0185e-06	932.35	238.68	7.8474e-06	6.8611e-06	375.15	122.22	62.354	18.876	1.8354e-05	51.472	0.0014141	0.001453	0.00043601	828.86	1.5565e-05	1.6107e-05	1067.5	277.63	1.5527e-05	1.6235e-05	438.73	143.09	83.678	27.203	1.6869e-05	60.274	66.726	178.754	312.549	60.345	334.769	176.902	60.218	64.097	282.273	230.089	63.931	69.547	68.563	74.180	324.766	74.815	-8191	255	
7623.317	1	1	0	0	0.13632	0.19288	0.18864	0.28944	0.36982	0.1893	0.16235	0.13407	0.13756	0.25459	0.2131	0.32922	0.30612	0.12216	0.14726	0.10962	-1.9771	-1.8062	-1.8729	-2.3083	-1.4562	-2.2417	-2.3187	-1.6729	-2.1146	-1.9833	-2.0438	-2.2562	-1.7396	-2.0083	-2.0583	-1.8583	225.389	233.028	156.069	372.382	73.846	70.371	383.565	334.178	312.697	391.348	304.406	400.284	336.674	221.496	70.825	147.057	0.0012794	0.0013325	0.00046991	699.86	4.8793e-06	1.1249e-05	930.98	237.43	2.7347e-05	9.0566e-06	375.25	121.97	62.242	18.854	8.3372e-06	51.776	0.0014051	0.0015048	0.00042491	825.34	1.5454e-05	1.655e-05	1063.5	276.57	1.5571e-05	1.6651e-05	436.99	142.88	84.015	27.5	1.6469e-05	60.448	83.948	178.656	208.739	60.407	64.639	199.533	60.191	64.279	159.690	280.917	64.008	69.269	68.757	74.208	81.247	74.709	-8191	255	
7623.413	1	1	0	0	0.060783	0.20414	0.13519	0.16524	0.10795	0.23529	0.24805	0.12467	0.13466	0.3076	0.13888	0.14468	0.1473	0.17179	0.077012	0.14863	-1.7333	-1.9042	-1.7583	-2.2292	-1.8542	-2.2042	-2.2146	-1.5229	-2.1542	-1.9917	-1.8604	-2.4833	-1.7521	-1.9	-1.9396	-1.6583	316.335	251.425	277.343	301.204	186.421	288.032	298.391	354.217	136.885	306.896	402.799	347.439	70.770	379.396	404.446	229.301	0.0015039	0.00056563	0.00022025	702.15	7.3065e-06	1.4483e-05	929.6	237.4	1.3729e-05	5.9899e-06	373.99	121.99	62.668	19.038	1.3415e-05	51.607	0.001423	0.0015362	0.00041692	825.24	1.5678e-05	1.6733e-05	1056.7	275.78	1.5733e-05	1.6825e-05	432.9	142.2	84.196	27.472	1.5948e-05	60.13	76.813	152.983	398.269	60.390	103.592	209.229	60.140	64.418	183.662	240.946	64.313	69.504	68.429	74.119	139.656	74.899	-8191	255	
7623.509	1	1	0	0	0.25562	0.035153	0.24151	0.25094	0.17742	0.16633	0.2422	0.10829	0.17256	0.35912	0.23371	0.06629	0.25912	0.091452	0.16234	0.15507	-1.5646	-1.8917	-1.7604	-2.2792	-1.6604	-2.1458	-2.1896	-1.6542	-2.0292	-2.0125	-1.7437	-2.3771	-1.9417	-2.0083	-2.2062	-1.9417	228.135	109.276	293.889	351.433	354.659	242.104	373.932	396.483	302.283	227.086	320.619	297.682	375.798	351.294	404.784	294.563	0.0012003	0.00056131	0.00037447	696.05	1.5362e-05	2.4981e-06	927.77	236.5	4.8304e-06	5.0729e-06	371.87	121.65	61.509	18.583	1.2082e-05	51.435	0.0014421	0.0015062	0.00040068	817.33	1.5986e-05	1.6478e-05	1047.3	273.59	1.6032e-05	1.6338e-05	428.24	141.29	84.412	27.018	1.5565e-05	60.042	78.732	384.756	192.659	60.447	224.302	226.033	60.012	64.532	221.598	161.068	63.999	69.546	68.762	74.297	115.294	74.755	-8191	255	
7623.605	1	1	0	0	0.20554	0.33649	0.39578	0.42272	0.1389	0.18234	0.1911	0.17948	0.10548	0.049208	0.076006	0.1011	0.1305	0.17063	0.19192	0.23492	-1.4646	-1.8979	-1.7	-2.3187	-1.9167	-2.0208	-2.3792	-1.8021	-2.0458	-2.075	-1.875	-2.3375	-1.9646	-1.7083	-2.3292	-1.8229	225.639	106.074	210.425	361.553	105.679	126.535	305.071	406.266	258.956	107.373	227.688	53.036	261.328	149.466	222.803	347.769	0.0012267	0.00024752	0.00033953	689.21	1.4093e-06	3.5256e-06	922.81	234.17	3.9187e-06	1.1067e-05	371.68	122.36	61.801	18.804	8.4952e-06	52.064	0.0014756	0.0014777	0.00039372	813.51	1.6299e-05	1.5982e-05	1042	273.21	1.624e-05	1.5898e-05	426.5	141.83	84.828	26.867	1.5417e-05	60.44	84.823	220.052	326.444	60.374	202.359	339.772	60.121	64.468	250.198	196.946	64.221	69.509	68.860	74.081	184.665	75.017	-8191	255	
7623.701	1	1	0	0	0.30717	0.31433	0.1455	0.43782	0.17223	0.41174	0.18673	0.14703	0.14236	0.48235	0.068432	0.55751	0.44616	0.072639	0.20413	0.17921	-1.3604	-2.0354	-1.6063	-2.2438	-1.7583	-1.7354	-2.3458	-1.8167	-2.125	-2.1333	-1.7729	-2.2667	-2.1312	-1.7583	-2.4	-1.8771	71.815	150.566	216.185	375.939	96.095	296.333	386.678	267.381	99.709	151.757	312.353	361.944	393.617	281.844	237.889	326.480	0.00072918	0.00056959	0.00036704	688.21	3.3048e-06	4.4019e-06	927.13	235.86	5.4214e-06	3.0206e-06	371.44	123.03	61.663	18.929	7.7665e-06	52.414	0.001487	0.0014355	0.00038993	815.85	1.635e-05	1.5527e-05	1038.6	274.37	1.6435e-05	1.561e-05	426.92	143.33	85.074	26.765	1.5404e-05	61.119	67.511	385.429	237.579	60.563	49.214	50.930	59.870	64.684	130.303	268.408	63.928	69.299	68.484	74.548	155.345	75.108	-8191	255	
7623.822	1	1	0	0	0.39636	0.10335	0.18153	0.089445	0.2869	0.13701	0.061164	0.22887	0.2223	0.41491	0.16627	0.28753	0.13378	0.10392	0.089593	0.31083	-1.6	-2.3208	-1.6771	-2.1729	-1.9896	-1.8583	-2.3458	-1.8833	-1.9271	-2.075	-1.7125	-2.0917	-2.0438	-1.8958	-2.2708	-2.0708	65.119	331.906	52.799	210.562	143.881	152.260	112.510	341.523	289.532	152.234	51.002	350.451	327.187	284.689	176.828	75.212	0.00090043	0.00058139	0.00017125	693.47	6.4984e-06	4.377e-06	927.32	236.73	1.2769e-05	1.1614e-05	374.91	123.2	62.032	18.953	1.3789e-05	52.298	0.0014799	0.0014193	0.00038987	825.8	1.6268e-05	1.5636e-05	1043.2	278.29	1.6272e-05	1.5606e-05	429.54	144.93	84.877	26.736	1.5543e-05	61.554	108.891	143.220	144.397	60.529	336.895	56.493	60.209	64.774	198.060	80.105	64.011	69.619	68.790	73.991	245.389	75.153	-8191	255	
7623.918	1	1	0	0	0.19347	0.29524	0.072614	0.10735	0.28872	0.18954	0.097327	0.35936	0.13508	0.21852	0.052953	0.21072	0.046151	0.21764	0.15272	0.13784	-1.3083	-2.1271	-1.625	-2.1375	-2.1458	-1.6708	-2.2938	-2.1146	-1.7292	-2.2417	-1.6812	-2.0729	-2.2271	-1.7188	-2.2062	-2.0042	78.795	332.232	207.816	344.564	80.411	80.416	349.562	299.102	287.747	284.143	364.040	401.397	264.582	366.718	273.790	259.430	0.00099345	0.00038257	0.00015484	695.54	1.1552e-05	6.8127e-06	926.22	236.76	2.8694e-06	8.3995e-06	373.29	121.94	61.776	19.015	8.1264e-06	51.868	0.0014463	0.0014096	0.00039597	829.5	1.5829e-05	1.5267e-05	1045.4	278.17	1.57e-05	1.5262e-05	428.8	144	83.602	26.378	1.57e-05	61.025	76.817	180.367	153.978	60.593	370.739	314.206	60.604	64.149	208.154	301.086	64.237	69.355	68.783	74.369	262.741	75.072	-8191	255	
7624.014	1	1	0	0	0.16236	0.23928	0.11863	0.073254	0.10517	0.20095	0.039916	0.20468	0.056388	0.2556	0.21702	0.10905	0.16909	0.19566	0.13273	0.21257	-1.1979	-2.3146	-1.8479	-1.7833	-2.2271	-1.8	-2.2667	-2.2833	-1.6812	-2.3104	-2.1396	-2.0708	-2.1312	-1.825	-2.2104	-2.1792	275.222	150.615	82.036	355.734	208.719	209.119	274.387	304.786	75.327	296.807	297.598	139.340	369.160	279.023	329.257	373.611	0.00071425	0.00077762	3.9049e-05	691.72	8.2496e-06	2.6634e-06	923.09	234.45	2.1855e-05	5.3156e-06	369.03	121.7	61.658	18.892	4.1064e-06	51.996	0.0013972	0.0013756	0.00040216	822.95	1.5342e-05	1.5001e-05	1046.4	275.34	1.5355e-05	1.5107e-05	429.3	143.18	82.642	26.445	1.6186e-05	60.932	74.467	204.281	168.491	60.363	76.789	276.280	60.342	64.420	381.457	207.654	64.003	69.336	68.909	74.489	289.124	74.730	-8191	255	
7624.086	1	1	0	0	0.37386	0.11347	0.19337	0.21178	0.079467	0.039012	0.14894	0.15068	0.10897	0.33336	0.072648	0.25721	0.30555	0.049889	0.058794	0.16476	-1.4188	-2.3063	-1.7	-2	-2.2229	-1.5521	-2.1542	-2.4521	-1.5708	-2.1813	-2.1542	-1.7854	-2.3937	-1.5333	-2.2417	-2.2896	377.473	52.498	175.378	391.173	356.387	77.814	328.897	348.729	264.901	337.912	347.409	376.955	124.168	374.212	108.093	400.919	0.0010103	0.00060481	0.0005219	689.1	1.1137e-05	1.4016e-05	920.37	235.39	9.3819e-06	4.2021e-06	373.5	121.34	61.983	18.983	1.3507e-05	51.924	0.0013875	0.0013758	0.00041391	819.4	1.5217e-05	1.5151e-05	1051.8	275.29	1.5096e-05	1.5276e-05	433.14	142.61	82.697	26.528	1.6562e-05	60.544	77.678	264.279	144.369	60.124	314.812	156.124	60.383	64.527	350.800	330.429	64.169	69.766	68.495	74.164	207.056	74.857	-8191	255	
7624.205	1	1	0	0	0.21952	0.27387	0.1098	0.15901	0.26634	0.13515	0.29506	0.28916	0.094348	0.049217	0.31013	0.10827	0.089702	0.25116	0.24186	0.14287	-1.1229	-2.1688	-1.8396	-1.9708	-2.1896	-1.8563	-2.1125	-2.0542	-1.6708	-2.175	-2.1083	-1.875	-2.4521	-1.7021	-1.875	-2.2979	306.697	186.289	121.340	101.403	102.858	238.165	348.535	223.483	105.283	105.649	389.090	390.951	374.620	83.377	341.503	194.377	0.00076251	0.0014321	0.00023563	693.7	6.0252e-06	7.9659e-06	929.52	236.77	6.5834e-06	7.117e-06	374.5	121.74	62.323	19.15	7.6867e-06	51.578	0.0013708	0.0014041	0.00042146	819.6	1.5055e-05	1.5549e-05	1059.6	275.34	1.5147e-05	1.5765e-05	435.8	142.5	83.194	27.045	1.6504e-05	60.361	88.334	216.398	183.510	60.135	272.533	233.192	60.059	64.309	126.439	233.770	64.132	69.185	69.063	74.352	360.665	75.061	-8191	255	
7624.301	1	1	0	0	0.061076	0.29733	0.23632	0.15531	0.15867	0.1462	0.2006	0.25431	0.32416	0.1066	0.46209	0.14229	0.18272	0.1163	0.29494	0.03302	-1.1604	-2.0417	-2.0167	-1.8333	-2.3063	-1.8813	-2.2271	-2.2396	-1.7104	-2.0708	-2.2979	-1.8104	-2.3625	-1.9146	-1.8188	-2.3979	126.567	338.752	46.499	370.559	201.657	182.267	48.747	94.333	216.092	307.386	334.127	70.018	346.780	80.893	67.934	276.939	0.0007989	0.0015174	0.00033381	697.32	6.7996e-06	9.9024e-06	930.71	237.3	1.603e-05	6.197e-06	375.48	122.06	62.621	19.096	9.513e-06	51.777	0.0013702	0.0014611	0.00041875	821.17	1.5124e-05	1.6103e-05	1057.2	275.86	1.517e-05	1.6334e-05	434.93	142.06	83.324	27.259	1.6134e-05	60.124	81.804	189.900	183.381	60.230	49.101	151.601	60.388	64.183	305.014	221.690	64.156	69.467	68.356	74.538	170.787	74.784	-8191	255	
7624.397	1	1	0	0	0.31064	0.092076	0.025386	0.21758	0.038782	0.15156	0.11233	0.084882	0.054535	0.12043	0.30562	0.032106	0.27315	0.17111	0.17817	0.081781	-1.3937	-2.0979	-2.0229	-1.8417	-2.3438	-1.8708	-1.9354	-2.4896	-1.6833	-2.0687	-2.1875	-1.7875	-2.3604	-1.9021	-1.6229	-2.1333	320.983	105.670	232.102	345.223	259.639	226.372	66.634	358.930	283.080	168.636	328.409	391.495	213.993	297.127	404.396	115.283	0.00087987	0.0015487	0.00023231	698.12	1.3953e-05	1.9659e-05	927.26	235.88	2.6759e-05	1.427e-05	370.01	122.29	62.296	18.777	9.2376e-06	51.799	0.0013766	0.0014881	0.00040703	818.47	1.5355e-05	1.6485e-05	1049.2	273.89	1.5387e-05	1.6512e-05	429.87	141.85	83.624	27.238	1.5743e-05	60.088	69.090	213.494	355.160	60.400	189.775	192.665	59.975	64.118	143.056	270.821	64.144	69.533	68.308	74.252	143.367	74.795	-8191	255	
7624.493	1	1	0	0	0.19439	0.042074	0.14033	0.21883	0.14532	0.21582	0.35337	0.067713	0.13277	0.16831	0.36142	0.28812	0.24796	0.23967	0.067222	0.1799	-1.3188	-1.9771	-2.0979	-1.5708	-2.1063	-2.075	-1.8542	-2.2583	-1.825	-1.7604	-2.3021	-1.425	-2.2521	-1.9062	-1.7208	-2.3104	55.658	405.418	143.177	346.615	156.467	236.330	345.688	381.149	93.054	347.102	383.901	75.279	123.814	235.578	287.300	208.186	0.0012889	0.0012528	0.00038728	693.65	1.3888e-05	2.9018e-06	919.83	235.68	1.4374e-05	3.2939e-06	373.54	122.31	61.695	18.846	1.0189e-05	52.009	0.0014306	0.0015043	0.00039946	816.39	1.5866e-05	1.6378e-05	1045	273.54	1.5936e-05	1.6284e-05	428.66	141.67	84.497	27.144	1.5574e-05	60.198	70.488	256.312	89.126	60.525	201.389	119.790	59.906	63.909	230.871	207.624	64.113	69.490	68.838	74.377	266.105	74.998	-8191	255	
7624.614	1	1	0	0	0.14939	0.1923	0.13319	0.17944	0.057198	0.30232	0.38765	0.27944	0.0417	0.28545	0.23161	0.14788	0.055312	0.02049	0.1799	0.21618	-1.2708	-1.6896	-2.1479	-1.7313	-2.15	-1.9646	-1.8937	-2.4021	-1.9375	-1.9	-2.3125	-1.7292	-2.2396	-2.1729	-1.6	-2.3854	345.462	79.520	58.260	334.351	212.693	337.301	352.805	339.983	359.084	324.257	351.541	314.451	322.749	294.694	391.856	317.823	0.0016685	0.00039165	0.0002092	692.06	1.3582e-05	5.6699e-06	921.83	236.17	6.7801e-06	5.7225e-06	374.68	122.36	61.916	19.04	2.2984e-05	52.34	0.0014679	0.0014743	0.00039682	814.85	1.6302e-05	1.6075e-05	1040.6	273.7	1.6446e-05	1.6041e-05	429.32	142.65	85.465	27.123	1.5559e-05	60.97	77.534	55.672	90.390	60.368	188.226	98.536	60.306	64.568	219.899	62.215	64.327	69.658	68.781	74.136	161.802	74.783	-8191	255	
7624.710	1	1	0	0	0.236	0.27854	0.2498	0.14864	0.11118	0.093107	0.11621	0.21738	0.26347	0.11869	0.19495	0.1598	0.25358	0.10828	0.43799	0.2196	-1.4417	-1.6854	-2.4313	-1.7812	-1.9375	-2.1625	-1.7792	-2.3271	-1.9646	-1.7104	-2.4792	-1.8458	-2.1063	-2.0792	-1.6375	-2.3646	187.865	129.402	317.621	90.201	296.641	85.551	337.858	269.186	217.391	107.503	368.325	368.361	158.141	248.776	385.690	334.054	0.00079192	0.0005066	0.00025481	692.46	1.2367e-05	8.9347e-06	928.25	236.6	1.9003e-05	1.9481e-06	377.44	123.29	62.553	19.093	1.1723e-05	52.487	0.0015056	0.0014542	0.00039552	819.97	1.6702e-05	1.5894e-05	1045.1	275.93	1.6624e-05	1.5873e-05	431.06	144.25	85.812	27.048	1.552e-05	61.498	83.951	250.111	116.993	60.396	233.941	339.227	60.247	64.431	336.871	373.802	63.978	69.338	69.574	74.186	254.847	74.808	-8191	255	
7624.782	1	1	0	0	0.12203	0.13562	0.11842	0.18317	0.1013	0.31149	0.14287	0.18743	0.23555	0.39858	0.13383	0.4246	0.18968	0.20496	0.045701	0.17185	-1.5292	-1.5708	-2.3187	-1.8188	-2.0146	-2.3521	-1.7708	-2.3479	-1.9062	-1.7417	-2.1708	-1.7521	-1.9417	-2.3563	-1.6646	-2.1458	348.878	256.249	317.286	385.537	288.336	48.605	59.664	293.327	349.775	114.951	363.779	54.965	401.229	388.908	350.437	348.955	0.00089646	0.0010259	5.1723e-06	699.13	4.7519e-06	5.6728e-06	920.96	237	1.73e-05	6.0285e-06	376.45	122.83	62.187	19.086	1.3976e-05	52.632	0.0015009	0.0014352	0.00039467	828.51	1.6434e-05	1.5707e-05	1042.3	278.35	1.6323e-05	1.5632e-05	428.84	144.96	85.127	26.822	1.5482e-05	61.62	70.163	177.877	122.918	60.295	48.392	246.804	60.563	64.172	332.300	312.353	64.036	69.622	68.626	74.114	298.234	75.035	-8191	255	
7624.902	1	1	0	0	0.13728	0.26051	0.18814	0.044377	0.049921	0.30829	0.23084	0.33414	0.165	0.28631	0.35166	0.10999	0.31025	0.27791	0.16679	0.32078	-1.6458	-1.6229	-2.1937	-2.0417	-1.8438	-2.2854	-1.7833	-2.1542	-2.1417	-1.8125	-2.4708	-2.1229	-1.8417	-2.3271	-1.6938	-2.0438	372.937	251.809	378.777	107.621	119.192	299.678	345.007	346.583	338.558	148.386	394.230	193.791	349.844	197.318	141.329	75.787	0.00069873	0.00015829	0.00031563	687.86	5.5889e-06	3.1205e-06	921.74	234.48	1.4076e-05	1.1178e-05	372.03	122.42	62.034	19.216	1.2122e-05	53.365	0.0014612	0.0014097	0.00039751	825.62	1.5964e-05	1.5424e-05	1040.7	276.93	1.5993e-05	1.5575e-05	428.75	145.47	83.856	26.968	1.6115e-05	62.694	74.766	384.384	196.762	60.695	224.408	173.095	60.284	64.055	145.187	296.805	64.329	69.701	68.804	74.582	200.949	75.136	-8191	255	
7624.999	1	1	0	0	0.56569	0.20706	0.15822	0.16407	0.18087	0.21858	0.13386	0.13373	0.16959	0.1222	0.21302	0.15115	0.17887	0.26634	0.086662	0.087609	-1.6812	-1.575	-1.8937	-2.1437	-1.5021	-2.1854	-1.9062	-1.8083	-2.2604	-1.5938	-2.1813	-2.0917	-1.7979	-2.2792	-2.0604	-1.9792	92.000	398.766	81.103	325.365	136.377	150.500	341.075	348.385	179.396	334.821	397.715	303.834	376.485	64.947	157.667	170.266	0.0012574	0.00058356	0.00034304	683.38	1.0157e-05	9.555e-06	917.42	233.71	1.0256e-05	2.7092e-06	375.5	122.55	61.843	19.228	1.0286e-05	53.359	0.0014375	0.0014108	0.00041153	825.32	1.5888e-05	1.5428e-05	1047.7	276.12	1.572e-05	1.5492e-05	433.73	145.42	83.805	26.923	1.667e-05	62.656	72.080	215.368	134.672	60.420	146.876	223.772	60.612	64.165	265.950	268.014	64.202	69.286	69.079	75.248	275.075	74.981	-8191	255	
7625.095	1	1	0	0	0.17678	0.3813	0.21288	0.097089	0.28184	0.20232	0.28231	0.088201	0.2641	0.21759	0.2193	0.25883	0.23903	0.15661	0.12375	0.19524	-1.9062	-1.8604	-1.9271	-2.2313	-1.8333	-2.2687	-1.8458	-2.1167	-2.1417	-1.75	-2.0438	-2.0708	-1.4937	-2.2604	-1.8	-1.9438	290.361	217.090	274.111	307.160	271.631	298.412	320.203	315.859	326.079	286.296	58.837	82.417	361.517	124.490	285.390	394.259	0.00081036	0.0014935	0.00042551	686.79	1.0139e-05	6.2883e-07	921.71	234.48	2.0358e-05	5.1934e-06	376.18	122.54	62.375	19.514	5.6109e-06	52.958	0.0014294	0.0014192	0.00042813	822.54	1.5711e-05	1.5694e-05	1057.3	277.09	1.582e-05	1.5802e-05	438.21	145.32	84.114	27.351	1.7151e-05	62.207	84.100	123.325	112.721	60.100	110.622	355.429	60.573	64.443	317.212	176.788	64.025	69.606	68.566	74.571	296.207	75.277	-8191	255	
7625.191	1	1	0	0	0.10284	0.136	0.21201	0.21198	0.10235	0.19302	0.093866	0.075772	0.10076	0.23906	0.40308	0.15247	0.14337	0.22688	0.198	0.071115	-1.85	-1.6125	-1.9958	-2.3229	-1.5542	-2.2208	-2.1042	-1.5562	-2.0875	-1.5146	-1.8917	-2.3604	-1.6875	-2.2062	-2.0729	-1.7875	245.899	255.588	107.159	69.745	169.676	376.166	390.870	226.197	387.153	195.704	395.712	118.053	151.790	337.339	401.886	377.861	0.00090063	0.00047744	3.5103e-05	694.3	5.4342e-06	1.3409e-05	922.49	235.42	4.7235e-06	9.6415e-06	375.82	122.9	62.099	19.333	8.9281e-06	52.974	0.0014275	0.0014566	0.00043871	825.1	1.5629e-05	1.6013e-05	1061.2	276.32	1.5707e-05	1.6246e-05	438.71	144.33	83.822	27.61	1.7108e-05	61.724	72.149	59.808	201.980	60.093	80.755	173.486	60.303	64.279	307.101	236.698	64.169	70.043	68.790	74.733	277.735	74.796	-8191	255	
7625.310	1	1	0	0	0.25546	0.064009	0.049912	0.031749	0.079141	0.092941	0.36506	0.21434	0.14537	0.15839	0.3075	0.31618	0.14128	0.099481	0.07883	0.32747	-2.0458	-1.7396	-1.925	-2.2938	-1.875	-2.3063	-2.0979	-1.7146	-2.3125	-1.7479	-1.9708	-2.3104	-1.7	-2.2104	-2.0542	-2	248.687	102.862	141.947	304.586	339.899	305.744	323.308	255.616	162.962	286.656	384.993	367.037	222.265	382.024	328.871	329.623	0.00089189	0.0011421	0.00018457	685.33	1.0422e-05	1.4062e-05	920.02	233.12	1.121e-05	4.7479e-06	372	122.14	61.898	19.117	1.2757e-05	52.795	0.001413	0.0015053	0.00042942	815.43	1.5545e-05	1.6565e-05	1051.7	273.32	1.5569e-05	1.6673e-05	433.61	143.1	83.459	27.617	1.6568e-05	61.438	69.276	154.007	378.046	60.576	224.079	190.987	60.496	64.460	281.876	153.943	64.178	69.521	68.706	74.433	297.482	74.751	-8191	255	
7625.381	1	1	0	0	0.12713	0.063454	0.014991	0.044532	0.20277	0.091414	0.13368	0.23446	0.094091	0.084269	0.24102	0.29575	0.059489	0.12261	0.10887	0.1586	-1.8375	-1.9896	-1.9521	-2.2375	-1.7292	-1.9229	-2.1604	-1.8646	-2.2667	-1.7208	-1.9375	-2.4021	-1.8958	-1.9854	-2.2292	-1.7479	200.349	174.464	406.530	362.552	256.427	283.323	238.574	58.215	244.548	251.493	61.224	380.649	316.673	404.280	101.976	296.755	0.0011776	0.0014644	0.00016993	685.54	4.5535e-06	9.882e-06	917.03	233.67	1.219e-05	1.23e-05	370.94	123.1	62.483	19.161	1.1574e-05	52.967	0.0014145	0.0015266	0.00041555	810.77	1.5574e-05	1.6773e-05	1046.4	272.1	1.5645e-05	1.678e-05	430.27	143.12	83.921	27.795	1.6039e-05	61.304	68.550	145.518	369.488	60.331	250.408	176.468	60.359	64.616	244.581	197.875	63.963	69.642	69.005	74.509	331.297	75.024	-8191	255	
7625.502	1	1	0	0	0.2805	0.08816	0.21407	0.19198	0.4382	0.17489	0.072014	0.17722	0.15409	0.17553	0.2078	0.056372	0.13699	0.034817	0.12602	0.18152	-1.8917	-1.9333	-1.8646	-2.3937	-1.7375	-2.1479	-2.2062	-1.6771	-2.3146	-2.0646	-1.5833	-2.3854	-1.8687	-2.0792	-2.2062	-1.6958	190.636	301.767	122.553	272.967	347.034	269.985	365.503	78.482	175.058	176.031	335.534	366.482	72.493	71.052	183.329	252.459	0.0011742	0.00038626	4.7197e-05	684.22	1.5353e-05	4.571e-06	916.46	232.99	5.9794e-06	1.7719e-06	370.69	122.63	61.925	19.074	5.6328e-06	53.129	0.0014384	0.0015272	0.0004054	807.79	1.5921e-05	1.6546e-05	1041	271.44	1.6157e-05	1.656e-05	428.95	142.35	84.861	27.536	1.5825e-05	61.339	77.456	139.031	363.726	60.063	182.674	125.654	60.379	64.374	189.323	311.453	64.217	69.514	68.618	74.547	232.563	74.982	-8191	255	
7625.598	1	1	0	0	0.22649	0.32224	0.16004	0.17342	0.094483	0.18794	0.20587	0.24782	0.06068	0.15778	0.14296	0.061616	0.34767	0.10457	0.21479	0.21065	-1.5854	-1.9458	-1.8604	-2.2396	-1.7208	-1.7896	-2.4167	-1.8208	-1.9688	-2.0354	-1.6583	-2.3187	-2.0646	-1.8979	-2.2458	-1.775	259.081	394.134	318.340	77.596	321.506	233.919	274.046	405.441	47.397	120.366	46.652	368.778	389.344	384.289	233.448	306.524	0.0010129	5.1284e-05	0.00028254	688.61	1.1909e-05	3.8098e-06	926.53	235.7	4.4249e-06	3.2656e-06	371.93	122.21	62.451	19.196	1.3628e-05	52.662	0.0014926	0.0014962	0.00040182	813.1	1.6541e-05	1.6326e-05	1043.8	273.82	1.6598e-05	1.6243e-05	429.76	143.05	85.765	27.208	1.5548e-05	61.163	88.067	241.719	117.107	60.258	200.064	404.511	60.477	64.103	139.236	314.956	64.163	69.470	68.787	73.937	223.943	74.940	-8191	255	
7625.694	1	1	0	0	0.10121	0.27359	0.1005	0.085352	0.084827	0.2134	0.22672	0.073534	0.37264	0.057661	0.2465	0.19949	0.30277	0.19631	0.27711	0.28445	-1.6479	-1.9104	-1.5708	-2.3104	-1.9292	-1.6979	-2.3688	-1.9417	-2.1229	-1.9708	-1.7729	-2.2479	-2.0417	-1.7708	-2.275	-1.8438	338.700	126.562	135.461	324.102	270.348	152.310	313.311	285.871	301.562	207.045	356.169	71.997	354.088	401.103	114.980	67.177	0.00071079	0.0014053	0.00018207	696.78	5.3595e-06	1.0605e-05	922.58	237.49	3.2563e-06	4.4979e-06	372.19	122.66	62.51	19.127	4.978e-06	52.121	0.0014995	0.0014467	0.0003929	820.26	1.6484e-05	1.5712e-05	1041.6	276.28	1.6325e-05	1.5545e-05	426.42	143.15	85.201	26.804	1.5129e-05	60.945	86.950	90.962	113.190	60.542	244.304	385.011	60.080	64.467	330.244	291.021	64.222	69.488	68.612	73.731	67.735	75.295	-8191	255	
7625.790	1	1	0	0	0.11559	0.26182	0.15821	0.2183	0.065147	0.28492	0.35278	0.24113	0.33338	0.10804	0.28458	0.30076	0.052499	0.12119	0.21587	0.1299	-1.45	-2.0312	-1.7333	-2.2625	-2.0229	-1.8146	-2.5375	-1.7687	-1.925	-2.2562	-1.8	-2.325	-2.0583	-1.5604	-2.0833	-1.9729	230.997	265.708	216.970	93.923	185.015	68.836	326.405	392.115	223.528	395.606	397.966	55.859	125.366	250.783	391.041	390.183	0.00030854	0.00035244	0.0001416	689.07	5.4268e-06	7.7986e-06	920.6	234.82	3.7227e-06	2.8527e-06	373.11	122.85	61.945	19.023	1.1297e-05	52.12	0.0014612	0.001397	0.00038468	819.35	1.5976e-05	1.535e-05	1035.8	275.93	1.6003e-05	1.5293e-05	425.54	143.69	84.209	26.657	1.5171e-05	61.264	70.957	89.695	322.571	60.003	130.600	311.694	60.159	64.210	378.087	208.673	64.106	69.439	68.703	74.204	263.942	74.954	-8191	255	
7625.911	1	1	0	0	0.091472	0.12204	0.019737	0.28153	0.1191	0.034562	0.090419	0.1422	0.23309	0.18931	0.10527	0.34376	0.14225	0.19758	0.11654	0.19508	-1.6354	-2.1958	-1.5604	-2.2062	-1.9479	-1.675	-2.325	-1.8167	-1.8479	-2.3812	-1.7083	-2.0604	-2.3229	-1.8021	-2.2917	-2.0354	228.824	151.361	50.630	404.261	373.122	311.965	403.524	331.303	263.329	157.779	222.255	349.667	110.579	308.512	201.622	164.398	0.0011944	0.00087658	0.00039055	687.88	9.5557e-06	1.2339e-05	917.33	233.83	1.3421e-06	5.3999e-06	372.65	122.69	61.956	19.001	1.5592e-05	52.341	0.0014228	0.0013763	0.00038602	820.77	1.5696e-05	1.5061e-05	1034.6	275.14	1.5466e-05	1.4957e-05	426.53	144.01	83.122	26.448	1.5485e-05	61.534	61.724	161.369	211.845	60.345	290.131	383.320	60.333	64.316	394.832	55.299	64.050	69.315	68.468	74.495	313.394	74.729	-8191	255	
7625.983	1	1	0	0	0.25765	0.20728	0.098605	0.064949	0.34027	0.073345	0.057232	0.16018	0.2537	0.30154	0.042151	0.065201	0.15208	0.11855	0.15747	0.22792	-1.2042	-2.15	-1.6729	-2.0083	-2.1667	-1.5917	-2.2708	-2.0604	-1.5583	-2.4062	-1.6562	-2.0958	-2.3625	-1.6938	-2.0729	-2.0625	232.260	365.149	59.488	263.507	108.791	271.055	178.031	331.900	327.676	178.273	71.226	293.177	62.545	132.278	189.660	59.885	0.0011101	0.00096179	0.00030777	688.42	7.8822e-06	4.8178e-06	922.29	235.52	1.0108e-05	6.0633e-06	373.73	122.71	62.408	19.112	1.0349e-05	52.847	0.0013925	0.0013604	0.00039595	819.73	1.5208e-05	1.4879e-05	1041	275.45	1.5177e-05	1.4873e-05	430.43	144.11	83.245	26.531	1.6018e-05	61.565	86.216	86.847	174.627	60.506	337.758	155.958	60.184	64.214	48.639	134.747	64.118	69.380	68.450	73.992	153.557	75.269	-8191	255	
7626.079	1	1	0	0	0.22892	0.33653	0.029849	0.068045	0.16428	0.055083	0.28902	0.27008	0.04025	0.13255	0.23872	0.11798	0.029295	0.17986	0.22571	0.17129	-1.2	-2.1271	-1.6667	-2.1	-2.0583	-1.4708	-2.2208	-2.0812	-1.7021	-2.275	-1.8667	-1.9167	-2.2313	-1.8458	-1.9792	-2.0625	262.059	264.017	96.651	326.504	334.945	172.120	75.226	69.498	142.786	273.631	372.626	177.620	75.730	367.229	278.584	302.144	0.00087416	0.00027831	0.0002092	693.97	6.1606e-06	1.0785e-05	924.03	235.78	1.43e-05	2.8908e-06	376.51	123.94	62.203	19.148	9.6391e-06	52.618	0.0013808	0.0013725	0.00041348	823.84	1.5071e-05	1.5026e-05	1052.3	276.47	1.5186e-05	1.5066e-05	435.12	143.95	83.179	26.623	1.6401e-05	61.216	56.797	178.071	85.028	60.225	73.185	135.975	60.401	64.168	110.661	159.774	64.177	69.160	68.538	74.362	268.632	74.949	-8191	255	
7626.175	1	1	0	0	0.017404	0.072236	0.23104	0.2857	0.16179	0.09999	0.18553	0.19864	0.055022	0.24167	0.11516	0.12749	0.36949	0.27995	0.2616	0.29023	-1.1833	-2.0292	-1.6833	-1.8417	-2.2167	-1.6875	-2.2562	-2.2854	-1.6083	-2.25	-2.0187	-1.7542	-2.375	-1.6938	-1.8687	-2.1271	286.256	347.227	99.725	380.894	344.277	211.564	273.463	322.460	191.328	54.069	87.392	325.772	158.646	384.688	196.048	281.828	0.0010723	0.0012801	3.1084e-05	693.51	3.337e-06	1.5851e-06	920.23	236.81	8.2403e-06	2.5242e-06	378.03	122.35	62.703	19.129	1.4065e-05	52.267	0.0013574	0.0013833	0.00041576	818.6	1.4916e-05	1.5318e-05	1052.3	274.92	1.4919e-05	1.551e-05	435.59	142.21	82.775	26.914	1.629e-05	60.656	84.664	201.634	80.224	60.332	160.215	229.647	60.416	64.151	376.573	53.253	64.182	69.555	68.678	74.443	232.345	74.788	-8191	255	
7626.271	1	1	0	0	0.12765	0.077948	0.19341	0.26126	0.22482	0.097515	0.12518	0.1225	0.31148	0.11508	0.069076	0.061436	0.38154	0.09679	0.23205	0.11678	-1.3229	-2.2812	-2.0375	-1.8729	-2.325	-1.8563	-2.1146	-2.2938	-1.6729	-2.0625	-2.0979	-1.75	-2.2687	-1.9875	-1.9729	-2.3792	192.371	184.833	66.556	359.783	195.100	73.111	274.080	205.856	152.622	239.863	235.815	247.716	353.489	189.869	257.856	226.261	0.0010601	0.0012027	6.4484e-05	694.75	7.9396e-06	7.8091e-06	928.27	237.14	1.419e-05	9.7926e-07	373.88	122.94	62.294	19.115	1.1515e-05	52.336	0.0013569	0.001435	0.00041457	816.12	1.4882e-05	1.5875e-05	1054	274.22	1.4915e-05	1.5934e-05	432.75	142.67	82.965	27.21	1.5982e-05	60.558	93.168	174.913	328.897	60.205	311.603	124.937	60.109	64.314	219.619	201.540	64.333	69.735	68.731	74.244	312.123	74.764	-8191	255	
7626.390	1	1	0	0	0.14607	0.23713	0.1539	0.096885	0.20541	0.056582	0.23201	0.11548	0.16448	0.14181	0.06595	0.25442	0.012431	0.20369	0.15845	0.14893	-1.3312	-1.9562	-2.0917	-1.6583	-2.3583	-1.6083	-1.9854	-2.4708	-1.5292	-2.0167	-2.3167	-1.6833	-2.1854	-1.8604	-1.85	-2.4437	381.605	124.325	369.608	126.151	152.766	212.114	360.189	91.476	82.097	222.802	266.482	341.816	91.122	275.562	362.895	114.110	0.001258	0.0011568	0.00015536	695.53	1.5128e-05	8.6593e-06	925.25	236.72	1.1793e-05	6.9712e-06	376.88	123.52	63.115	19.168	1.1216e-05	52.626	0.0013727	0.0014816	0.00040525	815.48	1.5078e-05	1.6283e-05	1047.6	273.87	1.5328e-05	1.632e-05	431.8	142.59	84.045	27.587	1.5892e-05	60.921	73.971	184.561	76.465	60.412	201.607	301.959	60.137	64.233	197.830	225.280	63.796	69.320	68.561	74.531	393.451	74.752	-8191	255	
7626.486	1	1	0	0	0.053449	0.10687	0.095714	0.22848	0.11663	0.2683	0.12337	0.13894	0.24599	0.31442	0.19579	0.067798	0.19177	0.22813	0.15252	0.27989	-1.2292	-1.9104	-2.35	-1.6667	-2.3292	-1.9479	-1.8188	-2.3729	-1.8229	-1.9333	-2.2375	-1.6938	-2.1542	-2.0104	-1.7292	-2.5729	364.787	232.779	96.355	343.998	189.636	117.136	103.335	312.508	290.651	102.198	330.429	79.003	333.408	298.427	88.858	386.782	0.0010665	0.00030963	6.1901e-05	699.99	9.3732e-06	5.5418e-06	925.67	237.83	1.2995e-05	1.1836e-05	379.75	124.13	63.247	18.98	6.3642e-07	52.646	0.0014179	0.001503	0.00040252	821.34	1.5869e-05	1.6504e-05	1051.5	275.99	1.5983e-05	1.6587e-05	433.98	143.6	85.594	27.481	1.5667e-05	60.792	94.480	122.314	58.573	60.071	122.780	398.215	60.136	63.987	196.659	273.800	63.893	69.848	68.662	74.200	89.876	74.660	-8191	255	
7626.582	1	1	0	0	0.19181	0.12976	0.06931	0.3239	0.2665	0.14717	0.27435	0.10254	0.15618	0.2751	0.2141	0.080178	0.20293	0.24459	0.05672	0.07097	-1.3667	-2.0042	-2.3979	-1.5917	-2.1042	-2.1354	-1.8188	-2.4146	-1.9167	-1.8771	-2.2792	-1.7521	-2.0979	-2.1396	-1.7917	-2.3042	204.783	102.964	92.121	400.207	394.066	393.388	369.659	269.513	371.761	312.410	386.472	136.523	384.780	374.598	294.900	234.437	0.0013748	0.00025505	0.0003755	705.9	1.1937e-05	7.7744e-06	927.13	237.95	1.3181e-05	1.8995e-06	373.26	123.32	62.866	19.197	1.9295e-05	52.609	0.0014621	0.0014652	0.00039587	822.21	1.6193e-05	1.6219e-05	1049.7	276.89	1.6565e-05	1.6331e-05	431.16	143.7	86.031	27.351	1.544e-05	60.786	81.389	152.594	51.115	60.243	224.124	351.341	60.264	64.457	159.499	372.729	63.808	69.361	68.845	74.123	298.187	75.213	-8191	255	
7626.679	1	1	0	0	0.061872	0.31018	0.15773	0.16228	0.19176	0.20675	0.1182	0.1456	0.08497	0.061942	0.25884	0.19232	0.00868	0.22282	0.067313	0.055851	-1.3271	-1.9688	-2.1917	-1.625	-1.8708	-2.2667	-1.7563	-2.3937	-1.8271	-1.7375	-2.3104	-1.8042	-2.0333	-2.0104	-1.6812	-2.2542	318.660	376.049	72.103	90.266	216.247	287.253	367.223	391.524	218.942	202.246	89.986	207.226	195.561	237.351	211.066	118.790	0.00073442	0.00084634	0.00012882	696.93	5.4025e-06	6.7299e-06	923.63	237.33	2.6689e-06	7.7426e-06	375.64	123.75	62.559	19.058	2.0576e-05	52.927	0.0014878	0.0014387	0.00038899	816.16	1.632e-05	1.5608e-05	1039.3	275.22	1.6425e-05	1.5695e-05	429.15	143.81	85.492	27.131	1.6071e-05	62.949	91.900	71.753	266.662	60.462	164.960	383.435	60.286	64.603	96.309	239.134	63.744	69.260	68.463	74.643	393.141	75.087	-8191	255	
7626.775	1	1	0	0	0.13237	0.23293	0.13209	0.31363	0.20981	0.16823	0.30452	0.19849	0.26783	0.15045	0.18057	0.28823	0.14627	0.083327	0.15011	0.3337	-1.5458	-1.6292	-2.2313	-1.9937	-2.0396	-2.3396	-1.6437	-2.0375	-2.0208	-1.7625	-2.3729	-1.85	-1.8563	-2.1208	-1.6875	-2.325	240.789	130.487	76.537	91.688	199.623	287.326	338.073	357.771	200.088	63.464	372.811	64.140	313.482	160.364	320.820	349.321	0.00084003	0.0001517	0.000321	691.08	1.2191e-05	6.1481e-06	921.36	235.54	8.9546e-06	4.5153e-06	374.14	122.75	62.455	19.165	5.9899e-06	53.098	0.0017017	0.0016444	0.00044949	841.41	1.7911e-05	1.7013e-05	1056.5	282.61	1.7982e-05	1.7315e-05	439.22	149.11	88.889	28.366	1.7759e-05	64.274	116.949	272.685	287.790	60.284	61.612	294.495	60.254	64.072	72.081	205.057	64.270	69.565	68.586	74.287	104.137	75.005	-8191	255	
7626.871	1	1	0	0	0.1834	0.2707	0.11871	0.19782	0.021504	0.20957	0.29088	0.17646	0.084247	0.31529	0.14895	0.44341	0.11939	0.32335	0.17956	0.13549	-1.4771	-1.6958	-2.1458	-1.8062	-1.9458	-2.3708	-1.9354	-2.2708	-2.1292	-1.7667	-2.3708	-1.9333	-1.7917	-2.4562	-1.4667	-2.3021	111.176	312.957	306.606	354.846	248.729	92.740	349.340	358.265	63.431	132.045	218.476	377.074	298.255	87.434	330.810	356.148	0.00088201	0.00061856	0.00020666	692.49	7.0652e-06	6.7857e-06	920.66	236.48	1.756e-05	4.6842e-06	375.75	123.7	62.375	19.324	8.0155e-06	53.25	0.0016619	0.0015948	0.00043644	840.22	1.68e-05	1.6126e-05	1049.9	280.52	1.6487e-05	1.5962e-05	434.04	147.28	85.853	27.498	1.7112e-05	64.223	86.911	176.987	108.611	60.304	337.381	373.214	60.178	64.352	124.234	69.262	63.998	69.399	68.343	74.729	162.104	75.038	-8191	255	
7626.992	1	1	0	0	0.12475	0.1448	0.16923	0.1951	0.33629	0.070456	0.15745	0.089247	0.26037	0.046109	0.30251	0.29719	0.18335	0.22323	0.171	0.1871	-1.7229	-1.7125	-2.1729	-2.175	-1.7563	-2.4583	-1.8917	-2.1083	-2.4	-1.65	-2.4458	-2.2833	-1.8292	-2.2875	-1.7458	-2.1208	228.526	50.918	385.691	351.299	248.028	145.247	150.291	103.383	369.773	160.259	302.010	54.768	357.413	187.329	149.881	318.424	0.0011242	0.00069579	0.00033685	691.52	4.9521e-06	1.1525e-05	924.7	236.62	4.4203e-06	4.065e-06	375.04	123.61	62.418	19.15	1.272e-05	53.027	0.0016577	0.001657	0.00047799	854.58	1.756e-05	1.6955e-05	1067.8	284.33	1.7183e-05	1.6675e-05	441.54	148.41	86.978	27.862	1.813e-05	63.717	81.683	340.987	174.950	60.358	192.820	64.941	60.465	64.170	385.653	327.869	64.297	69.405	68.804	74.112	199.878	74.644	-8191	255	
7627.086	1	1	0	0	0.18297	0.14286	0.20674	0.25235	0.46743	0.15677	0.0443	0.44329	0.12183	0.17953	0.35705	0.12579	0.093973	0.12933	0.18689	0.39487	-1.8854	-1.625	-2.075	-2.1833	-1.7563	-2.2083	-1.9479	-2.1271	-2.2083	-1.7042	-2.2542	-2.0292	-1.6771	-2.1979	-2.0083	-1.8312	81.696	72.177	230.754	288.225	108.328	217.461	297.786	301.174	256.582	64.717	324.029	353.191	95.539	404.049	356.940	333.100	0.00070078	0.0013233	0.00010259	681.22	8.2183e-06	1.0044e-05	907.32	228.66	8.8265e-06	1.3965e-06	367.93	121.93	60.794	18.978	1.1191e-05	53.511	0.0015606	0.001556	0.00046634	835.49	1.7189e-05	1.679e-05	1051.4	274.14	1.6188e-05	1.6094e-05	431.33	143.94	82.804	27.03	1.6989e-05	62.596	101.106	125.598	122.613	60.606	208.288	240.129	60.310	64.368	304.871	104.877	64.309	69.648	68.355	75.008	198.336	75.121	-8191	255	
7627.184	1	1	0	0	0.087997	0.093929	0.18682	0.087193	0.11122	0.24773	0.23344	0.28563	0.13601	0.25957	0.16946	0.10343	0.040419	0.11179	0.20703	0.18367	-1.7271	-1.6646	-1.9771	-2.2438	-1.7375	-2.2708	-2.0375	-1.6375	-2.2521	-1.8646	-1.9104	-2.175	-1.6333	-2.2521	-1.9104	-2.0729	197.903	379.653	369.963	98.843	242.554	253.939	308.784	306.709	123.071	170.033	53.204	188.719	146.696	367.861	325.210	356.831	0.0010188	0.00080662	8.9875e-05	668.87	3.4583e-06	1.0642e-05	895.83	226	1.6069e-05	6.0356e-06	365.97	121.88	60.254	19.046	1.5657e-05	53.929	0.0014369	0.0014588	0.0004389	804.48	1.601e-05	1.6456e-05	1041.2	268.31	1.6042e-05	1.6616e-05	432.66	144.43	82.683	27.608	1.7487e-05	63.249	99.762	112.826	172.026	59.977	67.007	195.812	60.499	64.390	193.817	171.771	64.020	69.610	68.972	74.822	240.240	75.168	-8191	255	
7627.278	1	1	0	0	0.17815	0.32977	0.22164	0.17084	0.34945	0.039847	0.13283	0.13747	0.33072	0.22588	0.18516	0.12891	0.11393	0.22369	0.092408	0.15272	-1.8333	-1.8042	-1.9167	-2.325	-1.8438	-2.2812	-2.3563	-1.6896	-2.1125	-1.9396	-1.8458	-2.2479	-1.7646	-2.0583	-2.0042	-1.7104	80.167	153.134	250.472	133.249	179.812	238.280	85.968	289.754	363.802	320.988	374.581	403.188	184.801	309.789	140.262	53.197	0.0012119	0.0013275	0.00035165	663.01	1.5024e-05	3.7735e-06	895.4	224.28	7.8025e-06	1.9227e-05	363.07	121.58	59.317	19.097	7.7698e-06	54.108	0.0014476	0.0015374	0.0004433	798.64	1.5854e-05	1.6752e-05	1034	265.27	1.5647e-05	1.6794e-05	426.8	142.66	81.469	27.594	1.6649e-05	62.743	84.937	168.893	118.031	60.540	158.852	58.477	60.323	64.518	91.517	189.300	64.162	69.483	68.633	75.124	372.243	75.146	-8191	255	
7627.374	1	1	0	0	0.14203	0.067868	0.26215	0.058155	0.23914	0.14595	0.32616	0.21348	0.09526	0.20843	0.25644	0.19569	0.2713	0.20107	0.24597	0.087343	-1.8375	-1.8958	-1.875	-2.2771	-1.6396	-2.0438	-2.0271	-1.8062	-2.2188	-1.6771	-1.8229	-2.2542	-1.7229	-2.1521	-2.1917	-1.9146	281.272	221.793	340.133	129.140	50.088	188.012	378.039	372.683	284.250	56.294	348.612	385.807	385.608	267.291	294.104	376.673	0.0010608	0.0007354	0.00040889	660.97	9.9318e-06	7.2966e-06	896.86	224.68	1.2817e-05	6.5823e-06	364.71	122.96	59.616	19.069	8.6499e-06	53.944	0.0014101	0.0015151	0.00041853	786.41	1.5575e-05	1.6717e-05	1025.6	263.81	1.5659e-05	1.6868e-05	424.85	143.01	82.383	27.792	1.6297e-05	62.558	62.850	68.239	314.267	60.360	183.113	223.122	60.309	64.414	116.303	182.736	64.396	69.977	68.530	74.584	96.439	75.184	-8191	255	
7627.471	1	1	0	0	0.20277	0.14572	0.25828	0.23612	0.17275	0.036246	0.17486	0.14535	0.17081	0.10454	0.13224	0.21586	0.17189	0.2094	0.028457	0.25987	-1.7812	-2.0292	-1.825	-2.5354	-1.7958	-2.1688	-2.3396	-1.6625	-2.2708	-2.1229	-1.8417	-2.1479	-1.7667	-1.9229	-2.0604	-1.5833	382.144	246.002	327.194	372.712	381.186	106.549	343.854	339.693	273.240	192.750	342.977	308.768	143.545	393.454	372.807	172.225	0.00096479	0.00012599	0.00028969	679.33	1.3295e-05	8.9769e-06	916.61	231.38	1.745e-05	8.1038e-06	371.83	122.23	62.131	19.068	1.7651e-05	52.022	0.0014533	0.0015428	0.00041032	804.93	1.616e-05	1.6962e-05	1041.7	270.79	1.6201e-05	1.6842e-05	431.2	142.96	85.434	27.688	1.6169e-05	60.698	70.889	47.264	339.830	60.390	70.006	196.547	59.670	64.426	223.350	170.929	64.190	69.417	68.798	73.701	171.309	74.747	-8191	255	
7627.567	1	1	0	0	0.16372	0.011439	0.19448	0.14455	0.2437	0.19296	0.094014	0.34239	0.064109	0.15044	0.055835	0.14313	0.11677	0.088007	0.14335	0.089462	-1.6333	-2.1604	-1.4917	-2.2208	-1.7437	-1.9833	-2.2875	-1.8563	-2.2396	-2.1188	-1.6521	-2.3354	-1.7271	-1.8667	-2.225	-1.9104	210.611	168.613	244.734	398.210	395.123	297.827	115.898	324.585	330.985	229.280	106.289	391.849	149.392	267.734	108.595	317.705	0.0016437	0.0010839	0.00015776	699.64	1.0259e-05	1.2846e-05	929.62	239.79	1.1556e-05	4.1871e-06	376.93	124.04	63.455	19.047	7.2593e-06	51.444	0.001515	0.0015382	0.00041052	826.71	1.6777e-05	1.6724e-05	1057.7	278.98	1.6859e-05	1.6633e-05	434.21	143.84	87.436	27.326	1.5919e-05	60.093	87.687	98.587	386.557	60.779	128.848	354.872	60.336	64.446	160.161	179.633	63.995	69.230	68.716	74.375	100.190	74.423	-8191	255	
7627.687	1	1	0	0	0.34783	0.31449	0.05969	0.10557	0.097328	0.13953	0.087642	0.23327	0.2018	0.092099	0.1814	0.17942	0.14141	0.11194	0.24545	0.12817	-1.5	-2.2104	-1.7542	-2.2687	-1.8667	-1.9125	-2.0958	-1.8021	-2.0458	-2.1771	-1.8083	-2.35	-1.7458	-1.7875	-2.1792	-1.7542	223.290	63.624	227.220	282.939	146.153	199.940	316.207	384.418	165.121	217.067	370.612	341.026	167.820	341.920	402.581	279.636	0.0012726	0.00076042	0.00013937	703.29	3.4025e-06	7.7274e-06	927	238.24	1.0482e-05	5.1018e-06	375.22	122.43	62.18	18.73	9.9773e-06	51.682	0.0015257	0.0014793	0.00040318	828.38	1.675e-05	1.6084e-05	1046.6	276.95	1.6683e-05	1.5974e-05	430.04	143.01	85.807	26.813	1.5621e-05	60.803	64.678	365.982	378.331	60.228	226.008	316.564	60.181	64.368	191.495	171.648	64.206	69.280	68.772	73.864	380.604	74.657	-8191	255	
7627.783	1	1	0	0	0.18601	0.29345	0.23232	0.24953	0.18342	0.42526	0.32593	0.21753	0.12901	0.12269	0.32497	0.13466	0.23521	0.043462	0.050705	0.063119	-1.4937	-2.0708	-1.7479	-2.0812	-1.8687	-1.8563	-2.3417	-1.9375	-1.9542	-2.0521	-1.7375	-1.9896	-2.1833	-1.55	-2.2333	-1.8104	218.954	115.475	51.974	162.190	174.029	280.355	345.807	371.242	288.837	390.648	376.771	376.367	308.825	235.697	267.555	327.355	0.0010021	0.00045499	0.00013643	695.82	5.7165e-06	3.9457e-06	926.27	239.24	1.4908e-05	1.9728e-06	374.93	123.44	62.532	18.99	1.715e-05	51.714	0.0015076	0.0014372	0.00039388	827.94	1.6593e-05	1.5729e-05	1045.7	280.08	1.6477e-05	1.5741e-05	430.78	144.8	85.572	26.796	1.5712e-05	61.136	108.539	352.000	59.606	60.157	279.236	141.621	59.920	64.185	264.484	79.813	63.905	69.351	68.435	74.490	204.334	74.691	-8191	255	
7627.880	1	1	0	0	0.14403	0.3446	0.089604	0.13271	0.12967	0.11752	0.044231	0.17729	0.080358	0.15255	0.18041	0.18592	0.13443	0.095503	0.14265	0.16363	-1.2417	-1.9625	-1.7188	-2.1688	-2.0042	-1.6896	-2.3021	-2.0125	-1.7146	-2.2042	-1.4771	-2.3375	-2.1708	-1.5979	-2.175	-2.0417	197.702	127.340	71.598	308.366	284.366	237.032	259.316	136.845	90.803	202.036	339.651	391.868	320.376	68.663	82.800	334.831	0.00065771	0.00059661	0.00013084	705.96	7.6607e-06	9.9137e-06	933.42	239.71	1.4581e-05	7.1014e-06	380.19	123.36	63.449	18.911	1.1628e-05	50.642	0.0014832	0.0014353	0.00040108	839.93	1.634e-05	1.5665e-05	1056.7	284.18	1.6258e-05	1.5749e-05	436.13	146.01	85.952	26.831	1.6198e-05	60.773	80.700	287.457	169.741	60.128	49.255	275.373	60.060	64.136	347.440	93.842	63.857	69.730	68.240	73.643	270.286	74.719	-8191	255	
7627.951	1	1	0	0	0.059528	0.42565	0.17823	0.35317	0.11136	0.092086	0.20444	0.32133	0.17642	0.14663	0.19629	0.2624	0.04925	0.068276	0.32313	0.1736	-1.2792	-2.1354	-1.6625	-1.9521	-2.1979	-1.7229	-2.175	-1.9917	-1.6604	-2.1625	-1.9792	-1.7687	-2.1188	-1.8271	-2.0271	-1.9896	320.341	199.900	136.630	364.711	73.710	302.488	329.575	350.054	91.773	352.896	55.275	65.999	288.856	197.005	282.928	240.541	0.0009433	0.00082281	0.00041041	715.86	1.8232e-06	1.3745e-05	939.03	243.64	1.3931e-05	2.1358e-06	378.13	123.13	63.256	18.9	7.8908e-06	51.115	0.0014618	0.0014309	0.00041639	851.54	1.608e-05	1.572e-05	1066.6	286.24	1.6185e-05	1.5814e-05	438.85	145.67	85.591	26.813	1.6878e-05	60.849	81.105	163.478	146.451	60.123	257.711	143.630	60.275	64.232	91.855	331.312	63.687	69.221	68.296	73.978	93.875	74.697	-8191	255	
7628.072	1	1	0	0	0.19808	0.13713	0.18498	0.20094	0.2152	0.21599	0.21033	0.10088	0.29552	0.0046393	0.19257	0.071751	0.16628	0.077503	0.11135	0.23523	-1.2604	-2.2062	-1.6646	-1.9771	-1.9813	-1.5458	-2.0583	-2.0417	-1.7708	-2.3104	-1.9458	-1.8333	-2.3458	-1.6437	-1.9958	-2.1688	183.070	343.270	80.020	54.652	265.877	249.578	249.078	388.723	377.774	366.041	331.128	191.671	46.430	71.475	83.919	338.365	0.0015026	0.0010785	0.0001724	703.11	7.5289e-06	1.0015e-05	926.73	239.47	4.6358e-06	4.5759e-06	379.89	122.25	62.459	18.824	9.5914e-07	50.886	0.001457	0.0014359	0.00043096	839.26	1.5848e-05	1.571e-05	1065.4	281.87	1.5748e-05	1.5705e-05	440.35	144.43	84.624	26.779	1.7057e-05	60.339	83.057	100.661	159.914	60.431	242.491	95.873	60.328	63.896	213.433	250.756	64.105	69.205	68.790	74.125	308.520	74.841	-8191	255	
7628.168	1	1	0	0	0.13197	0.21672	0.053047	0.14445	0.071192	0.11772	0.17267	0.29772	0.098043	0.084436	0.2012	0.41786	0.094615	0.30562	0.11848	0.1102	-1.2896	-2.3104	-1.8854	-1.9375	-2.4313	-1.6208	-2.2812	-2.2167	-1.6187	-2.2792	-1.9688	-1.7292	-2.2958	-1.5625	-2.1	-2.0542	324.976	388.441	256.699	369.388	255.059	381.316	320.057	295.214	238.218	160.259	369.705	387.513	52.860	71.156	149.264	60.678	0.0010191	0.00065675	0.0002271	694.39	7.3586e-06	1.8282e-05	928.41	238.42	8.9906e-06	7.7941e-06	375.41	122.82	62.8	18.924	8.4877e-06	51.69	0.0014346	0.001446	0.00043637	829.02	1.567e-05	1.606e-05	1063.6	279.22	1.5736e-05	1.6206e-05	439.63	144.09	84.424	27.269	1.7166e-05	60.801	104.582	225.984	166.351	60.426	396.344	191.534	60.361	64.256	236.889	364.961	64.001	69.255	68.463	74.230	138.923	74.735	-8191	255	
7628.264	1	1	0	0	0.12499	0.064072	0.27269	0.0615	0.081198	0.12852	0.25752	0.16405	0.23228	0.2251	0.03787	0.16131	0.082903	0.019379	0.21204	0.22608	-1.2208	-2.0729	-2.0812	-2.0542	-2.2812	-2.0375	-1.9813	-2.2042	-1.5479	-2.1125	-2.3042	-1.8271	-2.15	-1.8646	-1.675	-2.3063	265.253	127.862	98.227	82.039	336.612	280.749	392.254	390.764	85.438	125.096	394.240	274.740	272.982	224.747	119.033	182.784	0.0013359	0.00086646	5.0463e-05	696.43	3.9097e-06	5.6242e-06	925.85	237.38	1.7735e-05	1.0197e-05	374.49	122.28	62.382	18.916	8.0498e-06	51.808	0.0014189	0.0015022	0.00043574	825.14	1.5675e-05	1.6645e-05	1063.1	277.9	1.577e-05	1.6904e-05	438.76	143.85	84.464	27.592	1.6893e-05	60.599	81.780	191.542	308.236	60.329	272.519	232.546	59.612	63.974	170.650	204.128	64.167	69.374	68.585	74.421	310.135	74.615	-8191	255	
7628.383	1	1	0	0	0.082573	0.24705	0.095553	0.20155	0.35984	0.26434	0.19821	0.21807	0.25314	0.21357	0.24982	0.1651	0.22879	0.098203	0.11514	0.26155	-1.2646	-2.0104	-2.1917	-1.7104	-2.3104	-1.7625	-1.9333	-2.4292	-1.75	-2.1875	-2.2958	-1.6375	-2.2021	-1.8625	-2.1417	-2.3	177.537	135.995	336.926	373.184	318.629	139.928	359.543	371.620	254.300	245.964	114.217	300.905	179.542	191.514	149.028	64.614	0.0011615	0.0014415	0.00011603	699.38	9.0662e-06	6.7531e-06	925.26	238.22	1.1694e-05	2.9984e-06	374.09	121.45	62.47	18.819	1.0629e-05	50.77	0.0014337	0.0015424	0.00042379	825.55	1.5728e-05	1.6884e-05	1056.5	277.57	1.5715e-05	1.6857e-05	434.19	142.4	84.716	27.426	1.6254e-05	59.659	68.791	66.051	163.298	60.353	183.063	66.275	60.028	64.234	97.421	312.607	63.775	69.194	68.691	74.153	381.142	74.655	-8191	255	
7628.479	1	1	0	0	0.11545	0.1023	0.21556	0.28751	0.17924	0.16722	0.34473	0.055109	0.22927	0.096278	0.13304	0.074176	0.29542	0.20636	0.17767	0.20016	-1.4542	-1.9979	-2.3521	-1.7083	-2.175	-2.0521	-1.6479	-2.5292	-1.8146	-1.9604	-2.0708	-1.7375	-2.3458	-1.9417	-1.6583	-2.3438	351.597	200.300	60.396	380.144	124.266	220.419	401.983	352.091	142.221	114.239	276.136	120.105	310.724	349.330	403.186	56.513	0.0013998	0.00084237	0.00014407	700.76	1.0909e-05	3.5795e-06	928.59	239.33	1.9941e-05	5.7725e-06	375.28	122.11	63.443	18.888	9.3553e-06	50.698	0.0014556	0.0015448	0.00041289	823.94	1.6055e-05	1.6921e-05	1053.6	277.9	1.617e-05	1.6805e-05	433.73	142.26	86.128	27.422	1.6114e-05	59.446	68.083	255.788	163.018	60.371	222.502	152.720	59.707	64.172	145.927	59.469	63.980	69.008	68.987	73.678	189.686	74.798	-8191	255	
7628.551	1	1	0	0	0.065627	0.15393	0.13627	0.1701	0.33848	0.096691	0.24534	0.24445	0.12969	0.16868	0.16655	0.17305	0.20157	0.21365	0.15486	0.2626	-1.5354	-1.9375	-2.3396	-1.5938	-2.175	-2.2146	-1.725	-2.2562	-2.1125	-1.95	-2.4458	-1.6187	-2.175	-2.1021	-1.6854	-2.3125	327.806	373.330	94.746	323.245	149.979	389.722	330.734	47.937	257.321	362.829	97.826	70.718	169.561	333.026	154.002	68.035	0.0010401	0.000249	0.00034634	703.17	7.2784e-06	7.9459e-07	930.12	241.04	1.8771e-06	2.8331e-06	377.89	121.54	63.274	18.692	4.6092e-06	51.062	0.001501	0.0015234	0.00040857	828.83	1.6658e-05	1.6625e-05	1055.8	279.51	1.6819e-05	1.6656e-05	434.66	142.94	87.042	27.313	1.6089e-05	60.021	72.932	172.943	137.077	60.332	86.252	292.188	60.292	64.163	89.425	218.255	63.890	69.198	68.485	74.037	141.514	74.598	-8191	255	
7628.672	1	1	0	0	0.074119	0.11347	0.07621	0.33279	0.19206	0.19233	0.27554	0.14012	0.15771	0.01585	0.29527	0.19165	0.37603	0.059784	0.063701	0.20428	-1.4417	-1.6958	-2.1542	-1.9104	-2.0229	-2.1271	-1.7104	-2.3021	-1.7896	-1.6292	-2.4896	-1.6833	-2.1792	-2.175	-1.6583	-2.4083	374.855	196.936	211.907	83.286	315.040	405.142	299.307	294.770	313.307	169.345	341.319	353.339	332.866	312.725	94.003	313.937	0.00066192	0.0013677	0.00015176	706.43	1.502e-05	6.9501e-06	933.4	240.63	1.7359e-05	2.4142e-06	377.75	123.51	63.36	18.782	8.6826e-06	51.146	0.0015498	0.0015023	0.00040829	834.59	1.7136e-05	1.6453e-05	1056.5	281.59	1.7243e-05	1.6493e-05	435.77	144.98	87.904	27.245	1.608e-05	60.62	76.718	261.369	213.338	60.336	222.260	93.875	60.230	64.231	180.847	116.137	63.729	69.700	68.589	74.076	213.053	74.543	-8191	255	
7628.768	1	1	0	0	0.20295	0.25329	0.10523	0.13712	0.20125	0.14412	0.22459	0.21925	0.074359	0.18568	0.22544	0.017371	0.10758	0.17513	0.12231	0.10216	-1.8375	-1.7854	-2.1625	-1.6021	-2.05	-2.15	-1.7854	-2.1833	-2.1125	-1.675	-2.2021	-1.9583	-1.7542	-2.3438	-1.6792	-2.3521	198.729	54.841	337.110	402.479	404.224	172.310	262.031	250.334	270.936	386.219	228.917	237.283	307.303	301.932	322.272	53.233	0.00099682	0.0016299	0.00033401	703.11	1.6598e-05	1.4428e-05	930.41	239.6	9.6896e-06	4.9629e-06	376.14	121.62	62.45	18.781	1.0081e-05	50.64	0.0015513	0.0014817	0.00040788	837.76	1.6896e-05	1.6106e-05	1053.7	283.43	1.6859e-05	1.6036e-05	432.38	144.69	86.538	26.929	1.5925e-05	60.469	73.798	321.458	183.226	60.454	244.397	222.093	60.074	64.143	92.092	154.148	63.795	69.444	68.285	73.753	142.560	74.941	-8191	255	
7628.864	1	1	0	0	0.1366	0.3465	0.10191	0.18235	0.083218	0.18319	0.13395	0.14537	0.21633	0.081737	0.23185	0.27724	0.31696	0.29485	0.12131	0.29747	-1.5667	-1.5187	-2.3937	-1.9125	-1.8333	-2.1729	-1.6979	-2.0583	-2.0333	-1.8	-2.2208	-1.8687	-1.6792	-2.1917	-1.6625	-1.9646	350.409	55.140	327.512	356.019	399.357	120.832	322.124	274.530	305.098	117.293	306.835	357.606	49.094	338.519	133.288	358.223	0.00086402	0.00092748	0.00027785	702.21	5.7074e-06	4.9119e-06	926.62	238.35	1.1837e-05	5.6457e-06	374.9	122.29	62.951	18.898	1.7408e-05	51.029	0.0015042	0.0014527	0.00040495	839.67	1.6566e-05	1.5883e-05	1051	282.58	1.6619e-05	1.6042e-05	433.25	145.6	86.359	26.942	1.6491e-05	60.949	51.171	172.449	155.219	60.334	285.127	56.905	60.328	64.291	392.179	259.655	63.859	69.105	68.766	73.909	224.876	75.031	-8191	255	
7628.984	1	1	0	0	0.066782	0.1426	0.13255	0.04344	0.13008	0.24278	0.18081	0.19617	0.18634	0.17294	0.11191	0.42052	0.22559	0.12903	0.17395	0.17824	-1.6792	-1.5292	-2.1625	-2.0604	-1.7604	-2.3375	-1.8729	-2.0875	-2.1292	-1.6646	-2.2833	-1.8542	-1.5688	-2.3312	-1.8	-2.0917	144.270	107.207	391.517	392.887	326.806	147.452	287.170	339.663	197.714	259.558	91.585	334.015	382.120	87.495	354.296	304.746	0.00039775	0.00063218	0.00041787	704.07	6.0226e-06	6.5456e-06	934.35	242.47	8.5341e-06	3.8001e-06	382.66	121.79	63.727	19.184	1.6524e-05	50.873	0.001485	0.0014495	0.00042021	848.34	1.6345e-05	1.5941e-05	1068.4	286.79	1.6269e-05	1.5958e-05	441.49	146.11	86.432	27.011	1.7016e-05	60.737	117.030	124.338	137.956	60.327	349.941	237.959	60.304	64.372	303.090	98.690	64.029	68.938	68.521	73.593	260.301	74.557	-8191	255	
7629.081	1	1	0	0	0.07341	0.015115	0.31434	0.13473	0.24099	0.21996	0.12427	0.28221	0.043266	0.12887	0.36257	0.24701	0.1467	0.16319	0.23856	0.12677	-1.8229	-1.45	-2.0833	-2.1146	-1.5312	-2.1833	-1.9	-1.9479	-2.3292	-1.6604	-2.1479	-2.1312	-1.8521	-2.2562	-1.8792	-1.9229	66.940	394.500	398.410	53.220	232.619	92.838	58.685	338.232	255.255	74.608	54.170	357.527	345.394	66.765	70.454	382.566	0.00054451	0.00080531	0.00039116	711.67	9.6758e-06	8.503e-06	938.16	243.17	4.4723e-06	5.2915e-06	381.15	122.69	64.08	18.976	1.2079e-05	51.012	0.0014804	0.0014581	0.00043659	850.63	1.6256e-05	1.6054e-05	1075.5	287.13	1.625e-05	1.6142e-05	444.91	145.72	86.602	27.225	1.7507e-05	60.477	60.662	282.348	123.543	60.059	310.210	342.577	60.401	64.072	237.170	257.484	63.949	69.300	68.474	74.018	261.055	74.662	-8191	255	
7629.152	1	1	0	0	0.15081	0.12146	0.22789	0.024036	0.076222	0.28473	0.16593	0.21364	0.047963	0.15309	0.21182	0.080416	0.14991	0.041154	0.28465	0.30121	-1.8979	-1.8563	-1.8188	-2.2021	-1.7542	-2.2458	-2.3688	-1.9146	-2.4521	-1.7708	-2.0604	-2.3042	-1.7854	-2.2667	-1.9333	-1.9083	384.722	88.361	157.351	142.464	330.337	76.131	357.742	98.051	313.135	398.990	344.568	252.830	165.255	158.418	204.068	373.302	0.0011107	0.00055209	8.4571e-05	714.29	8.5796e-06	8.1045e-06	945.38	245.49	1.0497e-05	1.2184e-05	381.5	122.69	64.149	18.921	8.2778e-06	49.924	0.0014658	0.0014802	0.00045048	850.32	1.6076e-05	1.6362e-05	1082.8	286.66	1.6133e-05	1.6567e-05	446.14	144.66	86.391	27.417	1.7554e-05	59.616	97.985	272.121	150.120	60.585	253.229	206.590	60.100	64.231	212.725	238.317	63.660	68.999	69.051	73.855	303.223	74.785	-8191	255	
7629.248	1	1	0	0	0.23586	0.16061	0.042141	0.038207	0.11046	0.051919	0.34959	0.028744	0.087938	0.08378	0.13419	0.21825	0.17437	0.18081	0.1404	0.083449	-1.8333	-1.7146	-1.9583	-2.075	-1.7125	-2.2875	-2.2042	-1.8729	-2.2521	-1.8146	-1.9438	-2.2979	-1.7646	-2.15	-1.9917	-1.6854	114.395	120.792	246.413	319.080	335.947	191.371	368.895	123.207	282.886	190.916	287.120	383.187	162.945	290.356	377.997	239.442	0.001255	0.0015148	0.00016841	713.5	9.7843e-06	3.4e-06	939.41	245.52	1.1147e-05	1.3125e-05	376.75	122.12	64.107	18.787	9.0894e-06	50.077	0.0014487	0.0015204	0.00044246	846.32	1.5903e-05	1.6846e-05	1076.2	285.28	1.5941e-05	1.7065e-05	442.66	143.92	86.207	27.624	1.7267e-05	59.368	99.716	162.702	185.058	60.054	196.548	232.457	59.889	64.188	260.578	241.825	63.750	69.037	68.560	74.178	54.678	74.794	-8191	255	
7629.367	1	1	0	0	0.23166	0.17243	0.15571	0.15771	0.12327	0.25975	0.38776	0.23893	0.18136	0.15876	0.30153	0.23347	0.058044	0.16364	0.11572	0.27229	-1.8521	-1.9271	-1.9188	-2.3667	-1.7396	-2.1083	-2.3917	-1.6479	-2.0542	-2.1083	-1.6979	-2.2021	-1.7375	-1.925	-2.0583	-1.7375	367.263	270.732	109.999	269.843	217.114	283.653	365.924	73.680	221.242	287.276	325.602	52.955	325.477	64.120	206.435	171.965	0.0009915	0.0019199	0.00025011	708.89	6.3863e-06	1.8562e-05	936.05	242.85	8.9399e-06	3.7505e-06	379.34	122.49	63.792	18.807	1.5203e-05	50.669	0.0014624	0.0015708	0.00043482	839.59	1.6062e-05	1.7299e-05	1069.1	282.97	1.6246e-05	1.7432e-05	440.58	143.65	86.348	27.836	1.6836e-05	59.595	68.821	182.974	258.719	60.296	250.982	141.192	60.043	64.082	79.583	242.596	63.829	69.283	68.721	73.931	64.592	74.754	-8191	255	
7629.463	1	1	0	0	0.049753	0.14273	0.11851	0.34502	0.23892	0.27324	0.19053	0.24496	0.23337	0.11438	0.31475	0.31748	0.075612	0.082604	0.21474	0.23483	-1.8354	-2.1354	-1.7896	-2.3542	-1.8458	-1.8813	-2.2812	-1.85	-2.3063	-1.9312	-1.7896	-2.2979	-1.7333	-2.1917	-2.2104	-1.7854	320.872	387.308	245.158	49.891	138.095	186.827	284.480	377.863	53.396	300.742	336.689	82.123	81.427	279.224	191.813	318.037	0.0012911	0.00064605	0.00029953	708.52	1.3131e-05	9.8109e-06	931.12	242.42	2.1247e-05	5.0126e-06	377.29	122.49	64.164	18.908	1.1395e-05	50.503	0.0014917	0.0015998	0.00042713	837.79	1.6589e-05	1.7448e-05	1064.2	282.15	1.6803e-05	1.7491e-05	438.56	143.8	87.814	27.858	1.6685e-05	59.565	76.195	216.144	273.459	60.642	167.106	381.410	60.169	64.115	173.227	193.167	64.087	69.269	69.093	73.758	223.148	74.925	-8191	255	
7629.560	1	1	0	0	0.32154	0.112	0.16819	0.26426	0.18048	0.12128	0.14558	0.10474	0.096924	0.26433	0.20848	0.24611	0.14054	0.19819	0.19392	0.12887	-1.7	-2.0333	-1.75	-2.4604	-1.8687	-1.9729	-2.3354	-1.725	-2.2	-1.9813	-1.9292	-2.3333	-1.8729	-1.8104	-2.4792	-1.8875	195.060	380.336	139.214	329.418	396.952	51.194	318.020	121.147	72.234	175.636	353.983	362.437	136.168	282.380	92.687	345.628	0.0010491	0.00087549	0.00016408	707.96	1.1387e-05	1.0583e-05	937.24	242.24	1.1354e-05	9.3548e-06	379.13	122.23	63.737	18.924	7.8673e-06	50.428	0.001541	0.0015751	0.00042192	838.58	1.7202e-05	1.7182e-05	1063.8	283	1.715e-05	1.7107e-05	437.68	143.58	88.228	27.543	1.6301e-05	59.517	75.528	258.416	74.267	60.290	208.167	328.938	60.124	64.300	241.679	309.306	63.555	69.231	68.350	73.413	339.707	74.806	-8191	255	
7629.656	1	1	0	0	0.28935	0.31002	0.22401	0.034666	0.11939	0.22597	0.097557	0.20806	0.11774	0.25724	0.13166	0.12181	0.12795	0.19462	0.20533	0.10294	-1.6396	-2.0312	-1.7	-2.2042	-1.6938	-1.7	-2.2625	-1.7292	-1.9354	-2.0167	-1.4958	-2.1292	-2.0104	-1.6729	-2.2	-1.7729	106.208	346.262	370.103	73.190	384.711	160.832	240.079	354.826	68.927	226.843	402.245	69.325	358.120	50.531	319.534	155.694	0.0007757	0.00037307	4.3889e-05	704.45	5.1597e-06	4.7942e-06	929.52	241.18	1.1068e-05	2.6842e-06	375.57	122.12	62.857	18.767	1.0048e-05	50.264	0.0015714	0.001531	0.00041271	834.94	1.7282e-05	1.659e-05	1053.8	281.92	1.7348e-05	1.6557e-05	433.18	143.79	88.117	27.229	1.6196e-05	59.781	99.311	81.827	110.931	60.232	215.349	391.366	59.861	64.359	84.144	134.731	63.911	69.070	68.176	74.287	225.400	74.766	-8191	255	
7629.776	1	1	0	0	0.24086	0.23899	0.22286	0.094008	0.21605	0.16359	0.14042	0.17531	0.1128	0.10646	0.12079	0.27663	0.18266	0.21796	0.11313	0.052146	-1.55	-2.1562	-1.6917	-2.2188	-2.0271	-1.8021	-2.4458	-1.8917	-2.1688	-2.2792	-1.7771	-2.1063	-2.0104	-1.7313	-2.1979	-1.7812	195.376	156.005	181.180	205.419	304.229	159.683	296.672	337.003	161.078	353.575	351.544	234.048	403.449	77.148	232.901	90.636	0.0015626	0.00059218	0.00031628	703.43	4.1498e-06	6.4224e-06	932.18	240.81	6.836e-06	2.2461e-06	376.08	121.53	63.102	18.809	2.3257e-06	50.18	0.0015682	0.0015049	0.00041149	840.96	1.7288e-05	1.6382e-05	1054.1	284.08	1.7182e-05	1.639e-05	434.13	144.94	87.666	27.078	1.6244e-05	60.266	115.170	66.140	163.604	60.357	68.194	288.069	60.301	64.288	403.739	320.155	63.900	69.374	68.742	73.853	178.174	75.050	-8191	255	
7629.848	1	1	0	0	0.24728	0.23845	0.29481	0.18756	0.29494	0.2297	0.17337	0.21784	0.24739	0.22953	0.20268	0.094196	0.33522	0.25213	0.22323	0.37341	-1.3229	-2.1625	-1.5688	-2.0458	-2.0208	-1.7563	-2.2792	-2.1271	-1.7958	-2.35	-1.9396	-2.3375	-2.2208	-1.7687	-2.2833	-2.1875	300.419	164.191	158.335	358.041	238.630	203.436	338.900	376.351	81.193	188.812	337.820	349.999	366.057	96.811	338.824	376.345	0.00056749	0.00086997	0.00011087	704.08	8.7453e-06	1.6152e-05	927.39	241.96	9.642e-06	2.8546e-06	376.85	121.6	63.279	18.709	2.3538e-05	50.564	0.0015376	0.0014874	0.00041328	845.97	1.6872e-05	1.6213e-05	1054.4	285.79	1.6782e-05	1.6267e-05	436.77	146.2	87.049	26.96	1.659e-05	60.641	74.139	246.394	110.803	60.586	115.039	367.333	60.073	64.212	135.049	186.083	63.710	69.195	68.243	73.979	249.666	74.626	-8191	255	
7629.944	1	1	0	0	0.2366	0.19214	0.058983	0.058177	0.16087	0.19547	0.28281	0.13845	0.12941	0.12806	0.20791	0.034697	0.24516	0.13231	0.21813	0.23436	-1.2875	-2.3646	-1.6625	-2.1667	-2.0208	-1.75	-2.4125	-1.9875	-1.6604	-2.1771	-1.6646	-1.7271	-2.5354	-1.7167	-2.1729	-2.1937	102.187	295.006	266.005	63.729	351.711	267.741	335.423	257.288	234.352	374.639	356.937	72.522	61.296	301.780	138.644	368.662	0.00077241	0.00013463	0.00011735	701.07	8.8959e-06	7.3523e-06	929.21	240.48	1.3343e-05	1.556e-05	375.05	121.56	63.65	18.86	1.2425e-05	50.144	0.0015058	0.001474	0.00042483	847.04	1.6505e-05	1.6076e-05	1061.4	285.83	1.644e-05	1.6158e-05	437.61	145.54	86.359	26.969	1.7063e-05	60.29	98.078	131.251	127.675	60.370	189.645	356.060	60.251	64.059	182.895	195.170	63.773	69.060	68.487	74.016	258.571	74.567	-8191	255	
7630.065	1	1	0	0	0.21835	0.21995	0.091719	0.37025	0.0096706	0.29088	0.17529	0.21346	0.14268	0.22539	0.28024	0.25789	0.18546	0.19551	0.14202	0.19826	-1.4521	-2.1646	-1.8917	-2.0896	-2.3063	-1.5792	-2.2417	-2.1479	-1.7479	-2.2875	-1.55	-1.9438	-1.9542	-1.8271	-2.0229	-2.2562	141.285	393.669	306.561	347.549	153.400	74.379	364.126	328.418	298.091	353.823	348.584	118.970	69.404	94.967	161.142	97.583	0.00079757	0.00052386	4.1664e-05	701.02	1.7979e-05	7.2948e-06	927.3	241.92	9.5619e-06	2.8732e-06	374.37	121.66	63.845	18.865	1.5801e-05	49.834	0.0014687	0.0014559	0.00043732	843.93	1.6146e-05	1.5937e-05	1064.4	284.78	1.6202e-05	1.6026e-05	439.29	144.5	86.103	26.975	1.7558e-05	59.628	61.609	207.748	334.848	60.093	223.218	90.672	60.511	64.062	169.463	154.530	63.591	69.260	68.343	74.226	262.494	74.501	-8191	255	
7630.161	1	1	0	0	0.16005	0.068659	0.089177	0.22404	0.30375	0.20765	0.061355	0.1858	0.10712	0.098627	0.038532	0.13344	0.14519	0.1219	0.30466	0.022351	-1.1125	-2.2167	-1.7708	-2.0583	-2.1771	-1.8687	-2.1396	-2.3646	-1.7583	-2.3729	-1.8708	-1.9375	-2.3542	-1.6875	-1.9458	-2.2125	199.577	336.783	281.672	89.489	77.680	380.612	295.411	92.654	310.977	190.593	137.146	287.329	186.204	61.623	351.769	161.301	0.00082296	0.001112	9.9768e-05	702.88	6.5548e-06	2.0531e-06	931.26	242.43	8.8482e-06	7.2152e-06	376.57	121.54	63.623	18.653	1.7009e-05	49.713	0.0014617	0.0014749	0.00044693	839.49	1.6111e-05	1.6243e-05	1069.6	284.04	1.5975e-05	1.6438e-05	442.77	143.82	85.997	27.259	1.7581e-05	59.181	80.329	149.974	56.350	60.065	283.062	366.549	60.428	64.244	230.081	293.465	63.871	69.409	68.377	73.910	241.172	74.517	-8191	255	
7630.255	1	1	0	0	0.075635	0.14692	0.11374	0.26128	0.2648	0.082051	0.088823	0.26648	0.23595	0.1283	0.094656	0.098869	0.16876	0.1941	0.040535	0.17712	-1.4062	-2.1104	-1.9813	-1.7292	-2.2417	-1.7437	-2.2313	-2.0667	-1.675	-2.0729	-2.0687	-1.725	-2.4167	-1.7188	-1.9062	-2.3146	162.660	145.210	130.602	69.587	314.283	189.061	275.371	286.610	242.940	55.093	295.680	304.585	86.510	159.655	57.043	393.039	0.0010934	0.0014511	0.00014094	708.48	1.1907e-05	1.2148e-05	930.51	241.75	1.8736e-05	4.6029e-06	373.93	121.37	63.611	18.852	9.0358e-06	49.738	0.0014597	0.0015329	0.000445	840.19	1.6023e-05	1.6942e-05	1069.7	283.11	1.5999e-05	1.7084e-05	441.36	143.14	86.005	27.656	1.7386e-05	59.183	71.493	130.784	328.548	60.141	163.687	153.858	59.831	64.097	141.831	222.040	63.774	69.265	68.431	74.318	232.181	74.471	-8191	255	
#DATA ENDS
