BOXY.EXE: ISS Imagent and Oximeter Data Acquisition Program Version 0.80
Ascii Record File

#ACQ INFORMATION
2  Detector Channels 
16  External MUX Channels 
1  Auxiliary Channels 
5000  Waveform (CCF) Frequency (Hz)
1  Waveforms Skipped 
30  Waveforms Averaged 
1  Cycles Averaged 
16  Acquisitions per Waveform 
10.0806  Updata Rate (Hz) 

#FILE INFORMATION
TRUE -- External MUX Channel results are PARSED.
FALSE -- AC DC and Phase are NOT grouped.
TRUE -- Companion Program Settings File CREATED.
FALSE -- AC data not excluded
FALSE -- DC data not excluded
FALSE -- Phase data not excluded
FALSE -- Auxillary Chn. data not excluded
Tab delimiters

#CALIBRATION STATE
TRUE -- Waveform Calibration Values APPLIED.


#AUX CALIBRATION VALUES
Val Type	aux-1	

Term	1.0000e+00	
Factor	0.0000e+00	


#WF CALIBRATION VALUES
A = Detector Channel
Val Type	A-AC1	A-AC2	A-AC3	A-AC4	A-AC5	A-AC6	A-AC7	A-AC8	A-AC9	A-AC10	A-AC11	A-AC12	A-AC13	A-AC14	A-AC15	A-AC16	A-DC1	A-DC2	A-DC3	A-DC4	A-DC5	A-DC6	A-DC7	A-DC8	A-DC9	A-DC10	A-DC11	A-DC12	A-DC13	A-DC14	A-DC15	A-DC16	A-Ph1	A-Ph2	A-Ph3	A-Ph4	A-Ph5	A-Ph6	A-Ph7	A-Ph8	A-Ph9	A-Ph10	A-Ph11	A-Ph12	A-Ph13	A-Ph14	A-Ph15	A-Ph16	

Term	0.00000e+00	0.00000e+00	0.00000e+00	0.00000e+00	0.00000e+00	0.00000e+00	0.00000e+00	0.00000e+00	0.00000e+00	0.00000e+00	0.00000e+00	0.00000e+00	0.00000e+00	0.00000e+00	0.00000e+00	0.00000e+00	0.00000e+00	0.00000e+00	0.00000e+00	0.00000e+00	0.00000e+00	0.00000e+00	0.00000e+00	0.00000e+00	0.00000e+00	0.00000e+00	0.00000e+00	0.00000e+00	0.00000e+00	0.00000e+00	0.00000e+00	0.00000e+00	0.00000e+00	0.00000e+00	0.00000e+00	0.00000e+00	0.00000e+00	0.00000e+00	0.00000e+00	0.00000e+00	0.00000e+00	0.00000e+00	0.00000e+00	0.00000e+00	0.00000e+00	0.00000e+00	0.00000e+00	0.00000e+00	
Factor	1.00000e+00	1.00000e+00	1.00000e+00	1.00000e+00	1.00000e+00	1.00000e+00	1.00000e+00	1.00000e+00	1.00000e+00	1.00000e+00	1.00000e+00	1.00000e+00	1.00000e+00	1.00000e+00	1.00000e+00	1.00000e+00	1.00000e+00	1.00000e+00	1.00000e+00	1.00000e+00	1.00000e+00	1.00000e+00	1.00000e+00	1.00000e+00	1.00000e+00	1.00000e+00	1.00000e+00	1.00000e+00	1.00000e+00	1.00000e+00	1.00000e+00	1.00000e+00	X	X	X	X	X	X	X	X	X	X	X	X	X	X	X	X	

B = Detector Channel
Val Type	B-AC1	B-AC2	B-AC3	B-AC4	B-AC5	B-AC6	B-AC7	B-AC8	B-AC9	B-AC10	B-AC11	B-AC12	B-AC13	B-AC14	B-AC15	B-AC16	B-DC1	B-DC2	B-DC3	B-DC4	B-DC5	B-DC6	B-DC7	B-DC8	B-DC9	B-DC10	B-DC11	B-DC12	B-DC13	B-DC14	B-DC15	B-DC16	B-Ph1	B-Ph2	B-Ph3	B-Ph4	B-Ph5	B-Ph6	B-Ph7	B-Ph8	B-Ph9	B-Ph10	B-Ph11	B-Ph12	B-Ph13	B-Ph14	B-Ph15	B-Ph16	

Term	0.00000e+00	0.00000e+00	0.00000e+00	0.00000e+00	0.00000e+00	0.00000e+00	0.00000e+00	0.00000e+00	0.00000e+00	0.00000e+00	0.00000e+00	0.00000e+00	0.00000e+00	0.00000e+00	0.00000e+00	0.00000e+00	0.00000e+00	0.00000e+00	0.00000e+00	0.00000e+00	0.00000e+00	0.00000e+00	0.00000e+00	0.00000e+00	0.00000e+00	0.00000e+00	0.00000e+00	0.00000e+00	0.00000e+00	0.00000e+00	0.00000e+00	0.00000e+00	-2.02558e+02	-1.16413e+02	-1.30120e+02	-1.82161e+02	-9.57707e+01	-1.01369e+02	-1.59306e+02	-1.62015e+02	-1.14350e+02	-5.77035e+01	-1.70639e+02	-1.72301e+02	-1.77500e+02	-1.76674e+02	-5.36760e+01	-1.49496e+02	
Factor	4.10936e-05	9.52974e-05	2.49006e-05	1.49428e-01	8.83243e-07	8.91524e-07	1.68800e-01	4.93801e-02	1.17695e-06	7.15398e-07	8.34437e-02	2.98807e-02	2.54106e-02	8.75613e-03	1.20421e-06	1.26828e-02	6.26555e-07	6.35961e-07	1.78841e-07	7.42432e-02	6.95763e-09	6.96690e-09	7.86376e-02	2.43642e-02	6.96256e-09	6.98071e-09	3.91092e-02	1.39300e-02	1.23175e-02	4.23067e-03	7.03845e-09	5.88851e-03	X	X	X	X	X	X	X	X	X	X	X	X	X	X	X	X	



#DISTANCE SETTINGS
A = Detector Channel
A-1	A-2	A-3	A-4	A-5	A-6	A-7	A-8	A-9	A-10	A-11	A-12	A-13	A-14	A-15	A-16	

2.5000e+00	3.0000e+00	2.5000e+00	3.0000e+00	2.0000e+00	3.0000e+00	1.5000e+00	3.0000e+00	3.0000e+00	3.0000e+00	3.0000e+00	3.0000e+00	3.0000e+00	3.0000e+00	1.5000e+00	3.0000e+00	

B = Detector Channel
B-1	B-2	B-3	B-4	B-5	B-6	B-7	B-8	B-9	B-10	B-11	B-12	B-13	B-14	B-15	B-16	

1.0000e+01	1.0000e+01	1.0000e+01	1.4400e+00	1.0000e+01	1.0000e+01	1.5100e+00	1.9400e+00	1.0000e+01	1.0000e+01	1.9900e+00	2.4900e+00	2.4100e+00	2.9000e+00	1.0000e+01	2.9800e+00	




#DATA BEGINS
time	group	step	mark	flag	A-AC1	A-AC2	A-AC3	A-AC4	A-AC5	A-AC6	A-AC7	A-AC8	A-AC9	A-AC10	A-AC11	A-AC12	A-AC13	A-AC14	A-AC15	A-AC16	A-DC1	A-DC2	A-DC3	A-DC4	A-DC5	A-DC6	A-DC7	A-DC8	A-DC9	A-DC10	A-DC11	A-DC12	A-DC13	A-DC14	A-DC15	A-DC16	A-Ph1	A-Ph2	A-Ph3	A-Ph4	A-Ph5	A-Ph6	A-Ph7	A-Ph8	A-Ph9	A-Ph10	A-Ph11	A-Ph12	A-Ph13	A-Ph14	A-Ph15	A-Ph16	B-AC1	B-AC2	B-AC3	B-AC4	B-AC5	B-AC6	B-AC7	B-AC8	B-AC9	B-AC10	B-AC11	B-AC12	B-AC13	B-AC14	B-AC15	B-AC16	B-DC1	B-DC2	B-DC3	B-DC4	B-DC5	B-DC6	B-DC7	B-DC8	B-DC9	B-DC10	B-DC11	B-DC12	B-DC13	B-DC14	B-DC15	B-DC16	B-Ph1	B-Ph2	B-Ph3	B-Ph4	B-Ph5	B-Ph6	B-Ph7	B-Ph8	B-Ph9	B-Ph10	B-Ph11	B-Ph12	B-Ph13	B-Ph14	B-Ph15	B-Ph16	aux-1	digaux	

7604.975	1	1	0	256	0.14996	0.040797	0.28149	0.16639	0.27413	0.3216	0.13761	0.29718	0.29246	0.25309	0.11977	0.17629	0.16489	0.19409	0.18492	0.10984	-1.4667	-1.6104	-2.1354	-1.7896	-1.9937	-2.2625	-1.7625	-2.3771	-1.95	-1.525	-2.3083	-1.9771	-2.0125	-2.1146	-1.7313	-2.2229	210.624	73.269	281.957	151.340	128.823	133.334	396.193	314.260	287.055	324.252	249.530	323.265	123.057	139.115	138.353	292.873	0.00087689	0.0011054	0.00010254	816.49	5.7878e-06	6.2155e-06	1092.5	243.82	6.7845e-06	2.1231e-06	386.45	119.03	59.375	17.402	1.3397e-05	48.888	0.0014737	0.0014056	0.00038527	938.96	1.6244e-05	1.5398e-05	1195.2	282.95	1.6213e-05	1.5436e-05	437.47	141.04	82.274	25.246	1.5259e-05	58.287	97.162	261.189	296.442	60.423	370.944	126.093	60.279	64.365	212.427	300.505	64.384	69.824	68.816	75.043	187.415	75.660	-8191	255	
7605.047	1	1	0	0	0.10075	0.065919	0.15393	0.15543	0.18129	0.095053	0.19024	0.1153	0.062331	0.27166	0.10259	0.17037	0.14312	0.41878	0.16928	0.044495	-1.4937	-1.6354	-2.0917	-1.6854	-1.8292	-2.1771	-1.7375	-2.2167	-2.0375	-1.6	-2.2875	-1.9104	-1.7979	-1.9917	-1.5938	-2.0021	345.720	97.939	193.458	62.627	167.497	84.651	79.265	58.399	324.953	396.844	335.996	229.104	389.221	96.217	209.065	339.156	0.00097183	0.00024391	0.00037268	809.36	9.2277e-06	8.9877e-07	1087.3	242.4	4.0197e-06	6.0355e-06	383.66	119.19	59.016	17.408	9.476e-06	48.895	0.0014597	0.0013877	0.00038727	936.86	1.5933e-05	1.5224e-05	1193.2	283.16	1.5706e-05	1.5184e-05	437.18	141.9	81.108	25.247	1.5615e-05	58.724	62.723	78.688	195.717	60.424	324.174	395.419	60.311	64.517	91.230	398.105	64.491	69.968	69.117	75.263	137.288	75.287	-8191	255	
7605.143	1	1	0	0	0.17861	0.14874	0.21542	0.07121	0.0098731	0.25616	0.30362	0.23567	0.17832	0.11738	0.10174	0.084898	0.27401	0.19461	0.12011	0.14358	-1.7646	-1.5688	-2.0917	-2.0979	-1.6604	-2.1792	-1.9062	-1.9625	-2.1958	-1.4771	-2.3	-2.1063	-1.8438	-2.2958	-1.7354	-1.7979	157.447	384.956	78.587	290.070	312.226	394.232	358.163	337.240	309.214	365.631	72.269	301.538	308.071	95.904	124.940	344.192	0.00049869	0.00072186	0.00036226	806.52	2.2491e-06	3.3213e-06	1081.6	240.31	8.2783e-06	1.2741e-06	381.7	118.68	58.593	17.643	1.3398e-05	48.657	0.0014163	0.0013844	0.00040061	935.23	1.5545e-05	1.5147e-05	1195.2	282.71	1.5568e-05	1.5197e-05	439.91	141.35	80.527	25.225	1.6302e-05	58.464	103.277	126.037	140.555	60.429	50.169	155.258	60.183	64.493	106.627	377.877	64.440	69.861	69.191	75.137	160.587	75.889	-8191	255	
7605.239	1	1	0	0	0.042968	0.1398	0.11383	0.095588	0.10377	0.24511	0.14928	0.17055	0.17542	0.15109	0.17954	0.11307	0.21512	0.24029	0.12258	0.093589	-1.7333	-1.5667	-2.1917	-2.1146	-1.6583	-2.0521	-2.0208	-2	-2.1937	-1.5896	-2.15	-2.0187	-1.6083	-2.35	-1.8375	-1.9896	308.868	103.102	230.516	374.428	279.906	102.621	330.759	307.866	143.476	191.976	365.874	82.569	156.695	264.719	195.904	286.341	0.0010509	0.0006132	0.0002442	802.62	8.392e-06	7.4718e-06	1080.9	240.1	1.354e-05	7.3049e-06	383.23	119.08	58.905	17.51	1.0346e-05	49.229	0.0013968	0.0013884	0.00041885	929.66	1.5471e-05	1.5203e-05	1203.2	281.38	1.5467e-05	1.5536e-05	444.95	141.34	80.786	25.473	1.687e-05	58.532	66.388	248.192	155.527	60.614	145.920	184.141	60.296	64.543	184.024	163.680	64.521	69.877	69.482	74.681	251.103	75.735	-8191	255	
7605.359	1	1	0	0	0.096616	0.1673	0.22928	0.26826	0.08491	0.10654	0.41071	0.20832	0.18693	0.18865	0.25127	0.26784	0.14913	0.14709	0.18682	0.090865	-1.8	-1.7333	-1.9792	-2.1333	-1.5417	-2.1937	-2.0396	-1.9083	-2.025	-1.6146	-2.0062	-2.1292	-1.7333	-2.2104	-1.7792	-1.6812	341.304	255.783	349.369	339.881	182.570	337.575	337.148	186.749	274.893	294.100	322.446	389.977	146.889	280.769	228.603	326.113	0.00093207	0.0010078	0.00027166	797.93	8.3438e-06	8.9549e-06	1083.3	238.79	2.0309e-06	5.3479e-06	384.57	119.32	58.67	17.534	8.2309e-06	49.323	0.0013911	0.0014048	0.00042569	921.15	1.5121e-05	1.5424e-05	1199.9	278.1	1.4878e-05	1.5459e-05	442.74	140.03	79.407	25.464	1.6362e-05	57.993	82.752	156.989	210.239	60.502	343.401	202.002	60.484	64.676	84.313	241.647	64.097	70.008	68.735	74.931	130.542	75.618	-8191	255	
7605.456	1	1	0	0	0.038064	0.41387	0.12819	0.33016	0.14428	0.10899	0.1859	0.14476	0.11668	0.13438	0.19039	0.087221	0.042633	0.097551	0.18921	0.32762	-1.8937	-1.6646	-1.9229	-2.1208	-1.5208	-2.0438	-2.0833	-1.8062	-2.0604	-1.8292	-2	-2.2625	-1.5521	-2.1021	-1.9125	-1.9104	375.769	270.428	132.680	397.660	283.693	275.774	338.956	95.719	338.153	97.703	281.367	222.605	356.503	324.352	108.380	380.950	0.0011307	0.00035158	8.2863e-05	799.02	8.5732e-06	1.4935e-05	1076.6	239.4	3.0241e-06	9.2398e-06	383.51	120.37	59.587	17.816	3.6109e-06	49.135	0.0013446	0.0014255	0.0004128	910.48	1.4705e-05	1.5669e-05	1193.9	277.17	1.4695e-05	1.5745e-05	441.26	139.47	79.843	25.81	1.5935e-05	57.466	79.447	123.786	163.446	60.413	131.177	226.599	60.603	64.533	282.877	228.427	64.344	69.814	68.960	75.102	256.685	75.309	-8191	255	
7605.550	1	1	0	0	0.3264	0.056129	0.20595	0.23796	0.024814	0.019731	0.23407	0.17918	0.18684	0.11325	0.10969	0.19632	0.30513	0.077249	0.093583	0.12922	-1.7667	-1.7479	-1.8917	-2.0375	-1.6938	-2.1708	-2.1417	-1.5958	-2.4	-1.9458	-1.7458	-2.3917	-1.6812	-1.9271	-2.0229	-1.6729	229.565	329.807	243.034	372.419	279.997	256.216	396.059	298.099	102.457	270.012	218.180	57.105	373.912	160.572	300.700	353.638	0.0013793	0.00076731	0.00017238	807.34	8.8335e-06	1.1591e-05	1082.4	244.32	2.0786e-05	6.7715e-06	386.34	120.29	59.751	17.441	5.5078e-06	48.533	0.0013362	0.001459	0.00040005	919.4	1.4807e-05	1.6012e-05	1196.3	279.68	1.4923e-05	1.6142e-05	439.52	138.65	80.498	25.796	1.5375e-05	56.792	74.243	156.948	316.276	60.585	93.889	178.336	60.470	64.469	121.718	167.077	63.981	69.797	68.876	75.087	368.090	75.869	-8191	255	
7605.646	1	1	0	0	0.10218	0.1312	0.10888	0.048151	0.31833	0.056883	0.11317	0.065328	0.30141	0.20376	0.0026013	0.19613	0.072158	0.1501	0.12178	0.11362	-1.8188	-1.9479	-1.5187	-2.4271	-1.5854	-1.8979	-2.3208	-1.5979	-2.1333	-1.9625	-1.9625	-2.3042	-1.7354	-1.9958	-2.2458	-1.7458	160.432	105.875	383.184	398.950	150.730	116.689	111.627	181.404	46.864	344.818	174.401	388.476	261.687	104.553	92.000	394.692	0.0012052	0.00071509	0.00047115	804.86	5.3649e-06	8.7438e-06	1071.7	240.71	1.0359e-05	1.9948e-06	381.08	119.73	59.085	17.406	1.0827e-05	49.152	0.0013666	0.0014673	0.00038795	911.23	1.5103e-05	1.5897e-05	1180.4	275.21	1.521e-05	1.5881e-05	434.55	137.99	80.866	25.627	1.5117e-05	57.123	76.896	214.733	111.212	60.307	195.901	115.509	60.155	64.533	204.933	97.044	64.463	69.765	69.116	75.017	386.910	75.697	-8191	255	
7605.744	1	1	0	0	0.30252	0.086541	0.13342	0.22737	0.070528	0.08064	0.32603	0.35642	0.2818	0.17263	0.22436	0.16887	0.21813	0.089582	0.047222	0.23442	-1.6437	-1.7667	-1.45	-2.2521	-1.8062	-1.8146	-2.4979	-1.7667	-1.9521	-2.1125	-1.8042	-2.2979	-1.8271	-1.9667	-1.9979	-1.9271	224.604	184.691	160.345	254.545	72.903	193.212	387.745	371.207	87.662	363.728	398.946	373.191	155.708	198.626	202.526	323.141	0.0013614	0.00035017	0.00024706	803.27	6.4033e-06	2.9224e-06	1069.1	239.16	6.7763e-06	4.8203e-06	379.65	119.57	58.745	17.546	2.551e-06	49.689	0.0014194	0.0014402	0.00038346	905.53	1.5714e-05	1.5604e-05	1172.7	274.06	1.5803e-05	1.5593e-05	432.22	138.58	81.556	25.547	1.4982e-05	57.831	83.137	136.662	76.083	60.618	92.787	320.795	60.398	64.347	154.918	365.748	64.080	69.984	68.885	75.054	256.480	75.852	-8191	255	
7605.838	1	1	0	0	0.12161	0.095181	0.23831	0.06983	0.052918	0.098595	0.12531	0.24142	0.1406	0.178	0.31291	0.06402	0.24084	0.2609	0.072013	0.124	-1.4875	-2.1667	-1.6979	-2.2812	-2.1104	-1.9188	-2.5396	-1.8708	-2.1375	-2.1021	-1.7021	-2.1458	-1.8479	-1.7125	-2.3812	-1.6917	220.987	209.536	96.524	152.178	165.340	179.551	368.314	334.585	384.931	287.830	375.883	295.220	114.472	286.319	285.304	51.485	0.0011906	0.00086057	0.00021468	790.06	5.4907e-06	1.067e-05	1072.7	238.53	6.8976e-06	3.0839e-06	382.87	121.14	59.004	17.861	6.5505e-06	50.831	0.0014544	0.0014064	0.00038057	904.39	1.6064e-05	1.5296e-05	1172.1	275.62	1.616e-05	1.5323e-05	434.24	140.86	82.055	25.626	1.5048e-05	59.203	102.242	305.318	273.321	60.626	181.568	320.405	60.392	64.507	205.880	149.615	64.693	70.027	69.436	75.096	154.206	75.665	-8191	255	
7605.935	1	1	0	0	0.11679	0.153	0.090264	0.19639	0.23782	0.089567	0.11447	0.14962	0.16494	0.15047	0.097205	0.17517	0.26953	0.049264	0.039201	0.42679	-1.3312	-1.9562	-1.4104	-1.9667	-1.9792	-1.4396	-2.3375	-1.8062	-2.0458	-2.2583	-1.6979	-2.1937	-2.0583	-1.7021	-2.2958	-1.9167	347.522	244.403	184.881	247.610	267.665	185.484	395.216	235.372	243.625	384.626	120.661	154.362	369.298	284.200	380.665	364.556	0.0014481	0.0015481	0.00032599	786.74	1.152e-05	8.8242e-06	1060.6	236.35	7.0508e-06	4.7525e-06	382.6	120.99	58.67	18.024	6.2158e-06	51.352	0.0014678	0.0013952	0.00038003	905.62	1.6009e-05	1.5192e-05	1163.3	275.52	1.5821e-05	1.5021e-05	432.6	142.28	80.922	25.539	1.4757e-05	60.021	63.861	236.912	59.296	60.665	277.504	156.275	60.406	64.547	237.093	198.520	64.603	70.200	68.854	75.521	320.983	75.620	-8191	255	
7606.055	1	1	0	0	0.21885	0.072555	0.19705	0.27786	0.19888	0.10459	0.25614	0.17166	0.16817	0.2478	0.18929	0.27579	0.17753	0.016251	0.3713	0.29367	-1.5021	-2.3937	-1.7292	-2.0271	-2.1583	-1.6583	-2.6708	-1.9771	-2.0354	-2.2083	-1.7708	-2.0958	-2.1437	-1.6583	-2.25	-1.95	116.280	114.242	352.386	389.288	377.018	282.722	364.256	333.320	209.936	123.375	124.424	330.069	397.337	353.494	213.184	396.536	0.00073809	0.00094242	0.00021537	778.25	2.1813e-06	6.5274e-06	1055.4	238.49	9.1752e-06	6.9932e-06	384.31	122.19	59.731	18.246	3.9172e-06	51.887	0.0014049	0.0013446	0.00037631	902.41	1.5348e-05	1.4839e-05	1165.5	278.45	1.5569e-05	1.5057e-05	437.69	144.23	81.942	25.913	1.5601e-05	60.909	98.100	50.957	175.197	60.627	397.336	158.745	60.498	64.689	132.536	270.866	64.608	69.965	69.108	75.382	245.380	75.431	-8191	255	
7606.151	1	1	0	0	0.30911	0.14854	0.1753	0.1296	0.13396	0.098981	0.23371	0.25654	0.28427	0.020635	0.10606	0.38689	0.14698	0.10958	0.084769	0.10687	-1.3042	-2.2313	-1.7875	-2.0687	-2.1229	-1.7458	-2.3312	-2.0958	-1.5854	-2.2	-1.8271	-2.1125	-2.125	-1.5104	-2.2146	-2.0312	334.171	151.728	310.819	100.785	260.505	381.169	71.844	306.595	306.787	377.153	111.442	359.438	73.675	66.629	363.803	253.224	0.0010205	0.001137	0.00027175	796.01	1.736e-06	6.9887e-06	1076.7	244.04	1.5562e-05	7.7541e-06	392.32	123.71	60.979	18.521	1.7683e-05	51.797	0.0014031	0.0013798	0.00040051	922.57	1.5558e-05	1.5102e-05	1189	285.33	1.5593e-05	1.5259e-05	447.96	146	82.896	26.221	1.6365e-05	61.225	70.468	159.000	116.098	60.523	222.190	218.287	60.359	64.551	304.690	237.443	64.581	70.105	69.452	75.065	259.899	75.391	-8191	255	
7606.248	1	1	0	0	0.41218	0.17717	0.088689	0.16907	0.15893	0.10895	0.2207	0.23573	0.27087	0.14551	0.17849	0.22643	0.26867	0.16403	0.046241	0.094742	-1.3292	-2.1396	-1.6542	-2.0833	-2.2083	-1.8125	-2.2104	-2.1562	-1.6729	-2.3958	-2.2042	-1.9146	-2.1333	-1.4813	-2.0917	-2	185.365	270.383	344.063	89.405	157.802	401.457	340.286	307.584	161.555	308.680	324.921	374.396	121.680	371.212	173.328	123.976	0.0010049	0.00053547	0.00028561	796.07	5.2984e-06	9.2619e-06	1077.7	243.41	6.9754e-06	2.7323e-06	390.73	123.39	61.184	18.566	2.2614e-05	51.868	0.001407	0.0013866	0.00042235	925.35	1.5592e-05	1.5365e-05	1202	285.02	1.548e-05	1.5491e-05	451.79	145.33	82.613	26.418	1.6723e-05	60.839	73.985	385.540	163.142	60.471	338.811	129.989	60.304	64.534	151.838	243.262	64.379	70.218	69.479	74.863	227.769	75.581	-8191	255	
7606.344	1	1	0	0	0.085708	0.11072	0.085564	0.036281	0.043153	0.27402	0.19879	0.078546	0.082114	0.16388	0.28417	0.30077	0.1108	0.41583	0.14925	0.059695	-1.2375	-2.0417	-1.8813	-1.8583	-2.0938	-1.6187	-2.1437	-2.0771	-1.5729	-2.2812	-2.0896	-1.8333	-2.3396	-2.0062	-2.0396	-1.9729	282.631	243.054	191.442	279.037	296.871	98.573	397.937	103.937	370.521	128.181	59.515	380.369	309.400	392.893	85.603	110.737	0.0011965	0.00047868	0.0001431	799.99	6.2253e-06	4.5584e-06	1086.3	246.85	1.1624e-05	1.1004e-05	394.41	124.03	61.464	18.648	1.1888e-05	51.484	0.001389	0.0014168	0.00042396	919.73	1.5055e-05	1.5449e-05	1204	283.93	1.5017e-05	1.5504e-05	452.31	144.33	82.498	26.612	1.6503e-05	59.846	64.048	195.092	97.728	60.667	217.608	332.003	60.691	64.668	170.760	290.208	64.174	70.126	69.007	75.018	53.609	75.243	-8191	255	
7606.440	1	1	0	0	0.06314	0.12293	0.13792	0.36916	0.041466	0.17994	0.2881	0.23612	0.30708	0.14617	0.23477	0.27912	0.13919	0.21132	0.28898	0.18191	-0.97917	-2.3396	-1.95	-1.6104	-2.25	-1.7333	-2.15	-2.2812	-1.6667	-1.9875	-1.9438	-1.7604	-2.3521	-1.8979	-1.9625	-2.2417	153.306	355.574	360.156	397.959	251.634	63.873	342.264	255.011	369.057	113.837	373.073	205.079	375.316	95.293	379.534	330.625	0.00091894	0.00082018	0.00012833	808.41	1.1478e-05	6.2766e-06	1083.8	245.81	1.9999e-05	1.034e-05	389.43	122.26	61.123	18.185	1.2668e-05	50.851	0.0013583	0.0014477	0.00042147	924.78	1.5131e-05	1.6149e-05	1204.8	284.24	1.5282e-05	1.6403e-05	448.35	142.64	81.997	26.551	1.6137e-05	58.988	61.320	132.099	353.044	60.460	157.220	123.221	60.240	64.258	384.924	242.146	64.329	69.789	69.010	75.446	139.058	75.561	-8191	255	
7606.536	1	1	0	0	0.37113	0.026087	0.087447	0.17156	0.12988	0.067379	0.19494	0.19709	0.1268	0.22369	0.11349	0.20248	0.24246	0.19998	0.052663	0.23117	-1.1313	-1.9333	-1.9583	-1.8604	-2.2083	-1.8396	-2.0646	-2.2729	-1.6938	-1.9271	-2.1312	-1.5896	-2.1625	-1.875	-1.7896	-2.3917	304.547	334.616	146.160	357.003	65.755	74.282	161.537	345.810	313.523	370.725	313.673	302.474	402.764	148.099	141.584	280.317	0.0010851	0.0010911	0.00022139	799.53	9.9884e-06	9.3478e-06	1081.1	243.34	1.5707e-05	3.4443e-06	389.05	122.3	60.789	17.785	3.9371e-06	49.754	0.0013588	0.0014784	0.00040426	911.28	1.4922e-05	1.6232e-05	1190.2	280.49	1.5049e-05	1.6275e-05	443.62	141.03	81.989	26.337	1.5621e-05	57.897	76.330	172.995	344.648	60.394	193.262	185.866	60.389	64.308	54.216	329.227	64.302	69.868	69.087	74.622	379.808	75.376	-8191	255	
7606.655	1	1	0	0	0.14809	0.34145	0.14906	0.53868	0.079797	0.1159	0.088758	0.10832	0.08117	0.2031	0.34822	0.075881	0.13149	0.22239	0.33487	0.32123	-1.2979	-1.975	-2.0229	-1.825	-2.1125	-1.9667	-1.8687	-2.3	-1.8625	-1.6792	-2.4896	-1.7104	-2.1333	-2.0292	-1.5667	-2.4479	52.861	299.451	186.516	402.071	143.511	296.623	358.367	208.408	376.142	121.337	50.260	84.232	392.498	78.066	330.715	52.317	0.0012419	0.00081177	0.00015705	803.55	1.632e-05	8.8943e-06	1081.1	244.74	6.0708e-06	4.7557e-06	386.68	120.64	60.21	17.829	1.0829e-05	49.158	0.0013916	0.0014918	0.00039498	915.02	1.5577e-05	1.6285e-05	1186.1	279.85	1.5698e-05	1.6285e-05	439.48	139.87	82.298	26.136	1.5484e-05	57.655	81.386	119.999	153.639	60.641	167.957	372.540	60.508	64.473	298.307	255.877	64.057	69.669	68.905	74.530	201.693	75.381	-8191	255	
7606.751	1	1	0	0	0.071457	0.25353	0.19445	0.22477	0.11071	0.22986	0.0993	0.24627	0.25078	0.054356	0.16558	0.19834	0.04136	0.16023	0.067401	0.13246	-1.3333	-1.7771	-2.4354	-1.6688	-2.0771	-1.8833	-1.6	-2.4083	-1.7708	-1.7042	-2.2812	-1.9104	-1.9833	-1.875	-1.7563	-2.3125	154.096	100.836	153.204	366.623	347.413	321.708	289.218	216.051	335.309	269.982	309.397	379.038	282.158	269.495	338.971	376.661	0.0011019	0.0011531	0.00045513	791.95	1.0254e-05	8.3612e-06	1064.9	241.36	7.3259e-06	1.0886e-05	382.09	118.47	59.773	17.452	1.1119e-05	48.53	0.0014473	0.0014606	0.00039085	904.47	1.5944e-05	1.5831e-05	1174	277.58	1.6117e-05	1.578e-05	434.39	138.29	82.158	25.509	1.5154e-05	56.898	92.462	234.899	404.476	60.419	202.684	86.009	60.141	64.524	299.185	214.348	64.041	69.870	68.952	74.722	281.493	75.144	-8191	255	
7606.847	1	1	0	0	0.30824	0.21362	0.083449	0.40368	0.085313	0.14433	0.30573	0.21615	0.28629	0.32931	0.075236	0.18373	0.13787	0.22945	0.30995	0.039269	-1.3854	-1.7896	-2.2854	-1.775	-2.0375	-2.1917	-1.8646	-2.1833	-1.8813	-1.7854	-2.2896	-1.9354	-1.825	-2.2438	-1.6125	-2.2021	299.293	367.092	243.879	330.675	135.157	84.679	386.254	308.566	315.441	238.879	115.260	404.349	271.861	163.684	244.915	200.254	0.0015101	0.0011071	0.0003107	790.91	8.2871e-06	7.0571e-06	1060.4	238.16	7.185e-06	3.3255e-06	378.51	117.72	58.648	17.288	1.5235e-05	48.648	0.0014696	0.0014096	0.00038314	905.3	1.6092e-05	1.5278e-05	1163.1	274.54	1.6058e-05	1.5266e-05	429.39	138.29	81.214	25.099	1.4906e-05	57.498	79.156	364.933	327.373	60.581	120.606	168.268	60.236	64.586	144.821	222.700	64.359	69.886	69.154	74.967	405.225	75.813	-8191	255	
7606.919	1	1	0	0	0.099719	0.48588	0.1075	0.22807	0.12152	0.051145	0.20254	0.20879	0.056491	0.16705	0.16131	0.20756	0.11049	0.15373	0.21769	0.20034	-1.5771	-1.6604	-2.3771	-1.6271	-1.8813	-2.0521	-1.7875	-2.1813	-2.1229	-1.6938	-2.4896	-1.825	-1.9667	-2.0104	-1.7229	-2.1604	230.894	115.995	196.489	335.245	101.760	90.746	312.341	293.029	392.122	69.140	288.616	292.513	113.124	304.143	292.230	383.851	0.00084718	0.00076779	0.00012952	784.04	6.6078e-06	8.3319e-06	1060	238.99	3.4523e-06	4.3087e-06	379.17	119.28	58.895	17.472	1.9997e-05	48.698	0.0014601	0.0013926	0.00038011	904.9	1.5903e-05	1.5083e-05	1164.1	278.26	1.5802e-05	1.5103e-05	431.92	140.22	81.457	25.146	1.5072e-05	57.99	77.446	261.783	71.216	60.404	185.097	52.457	60.216	64.252	403.944	145.101	64.350	69.613	68.968	74.790	190.968	75.411	-8191	255	
7607.015	1	1	0	0	0.14761	0.16188	0.37525	0.39743	0.10919	0.060007	0.13338	0.24837	0.11079	0.23965	0.31814	0.20304	0.22157	0.30197	0.038813	0.21012	-1.5	-1.7771	-2.0708	-1.9813	-1.6437	-2.3333	-1.7208	-2.0708	-2.1063	-1.6042	-2.1354	-2.0458	-1.9	-2.35	-1.7313	-1.9917	114.900	188.569	59.975	54.657	95.250	318.469	152.850	201.802	362.286	60.835	364.950	50.543	148.795	65.057	134.644	312.556	0.00079723	0.000691	0.00024681	791.76	4.6619e-06	4.3569e-06	1059.9	239.3	1.3277e-05	3.5638e-06	381.89	119.3	58.992	17.475	1.3936e-05	49.395	0.0014288	0.0013687	0.00038637	918.02	1.5521e-05	1.4936e-05	1166.7	279.81	1.5424e-05	1.4968e-05	434.21	141.02	80.664	25.121	1.5596e-05	58.884	134.033	124.308	279.506	60.461	261.396	65.643	60.361	64.306	351.952	284.513	64.542	69.458	69.121	74.779	181.266	75.587	-8191	255	
7607.136	1	1	0	0	0.32631	0.19144	0.13312	0.13274	0.13799	0.25915	0.2682	0.06528	0.22242	0.20435	0.21163	0.13424	0.13479	0.29977	0.14266	0.31735	-1.6583	-1.6479	-2.2021	-2.0229	-1.7542	-2.2646	-1.8104	-2.0479	-2.2812	-1.5938	-2.4938	-1.9333	-1.7	-2.2479	-1.6625	-2.0125	379.137	227.283	243.647	222.951	175.361	359.407	368.781	77.339	252.833	149.357	91.358	49.094	82.301	55.199	90.193	374.008	0.00060588	0.00018738	0.00037218	778.11	9.7374e-06	5.8747e-06	1054.4	238.48	7.3554e-06	7.2393e-06	383.28	119.51	59.513	17.453	9.7186e-06	48.014	0.0013996	0.0013686	0.00040104	908.35	1.5379e-05	1.5074e-05	1171.8	279.23	1.5345e-05	1.5031e-05	439.69	140.79	80.79	24.998	1.6e-05	57.114	103.963	351.671	201.940	60.428	116.607	103.582	60.578	64.705	248.499	245.432	64.255	69.573	68.621	74.542	210.023	75.484	-8191	255	
7607.232	1	1	0	0	0.25226	0.15631	0.29246	0.33243	0.059052	0.26466	0.16759	0.15548	0.19345	0.18284	0.17349	0.41737	0.30191	0.088679	0.22404	0.05638	-1.8521	-1.5583	-2.2313	-2.0667	-1.5438	-2.2208	-1.8958	-2	-2.2354	-1.6042	-2.1562	-2.0812	-1.7021	-2.1188	-1.6604	-1.8875	104.667	337.225	378.817	363.348	114.734	104.653	283.499	386.084	95.927	127.472	55.171	404.309	364.765	403.344	250.703	263.192	0.0011555	0.0012724	0.00031015	800.55	5.8558e-06	4.7722e-06	1072.9	241	7.3156e-06	1.0549e-05	382.35	119.51	59.21	17.699	5.9863e-07	49.212	0.0013759	0.0013644	0.00041175	921.2	1.5101e-05	1.5042e-05	1187.2	280.04	1.5214e-05	1.5243e-05	442.47	140.94	80.712	25.429	1.6717e-05	58.296	61.423	143.599	113.807	60.606	285.746	148.983	60.463	64.221	359.498	155.194	64.092	69.890	68.910	74.429	310.951	75.362	-8191	255	
7607.328	1	1	0	0	0.22804	0.14539	0.21633	0.13141	0.098548	0.26751	0.078722	0.26689	0.42694	0.12909	0.37251	0.15134	0.16021	0.070519	0.27297	0.35123	-1.7604	-1.4646	-1.9958	-2.2333	-1.4188	-2.1417	-2.0354	-1.7604	-2.2458	-1.6313	-2.0938	-2.2521	-1.5417	-2.2438	-2.1604	-1.65	232.588	290.087	178.558	138.502	350.513	356.423	354.713	323.706	66.519	146.156	372.832	95.875	313.070	264.813	277.538	307.426	0.00092564	0.0010319	7.6273e-05	766.94	1.1732e-05	7.8951e-06	1041.1	232.82	3.5717e-06	6.9594e-06	380.36	119.48	59.082	17.55	1.6674e-05	49.022	0.0013867	0.0014196	0.00042849	893.42	1.5318e-05	1.5688e-05	1168.6	272.97	1.5343e-05	1.5848e-05	440.94	140.12	80.195	25.624	1.6611e-05	57.633	78.503	181.889	153.580	60.432	50.769	85.249	60.462	64.412	78.690	249.284	64.322	70.316	69.835	75.246	217.388	75.262	-8191	255	
7607.424	1	1	0	0	0.10285	0.24439	0.12497	0.19665	0.04288	0.25057	0.13043	0.071101	0.1915	0.1475	0.22958	0.15123	0.21487	0.16938	0.10061	0.13508	-2.0771	-1.6896	-2.0312	-2.2729	-1.5083	-2.0229	-2.0812	-1.7333	-2.2667	-1.7583	-1.8167	-2.2375	-1.7812	-1.9396	-2.1521	-1.5146	361.517	359.382	149.988	403.193	262.404	51.702	369.724	74.636	147.573	48.880	402.476	312.579	348.660	99.567	58.832	354.688	0.00084672	0.0008066	9.7265e-05	793.14	3.194e-06	7.7372e-06	1058	239.2	1.0614e-05	8.3636e-06	380.39	119.26	58.831	17.443	1.0948e-05	49.746	0.001364	0.0014606	0.00041936	907.4	1.5148e-05	1.6227e-05	1181.8	276.51	1.5195e-05	1.634e-05	440.42	139.68	79.843	25.964	1.6186e-05	58.237	100.363	160.655	266.241	60.546	189.593	161.464	60.226	64.336	198.008	262.292	64.672	70.169	69.092	74.742	335.373	75.465	-8191	255	
7607.543	1	1	0	0	0.13238	0.42618	0.16662	0.065357	0.22627	0.21857	0.064971	0.29678	0.18244	0.26285	0.13695	0.29862	0.18134	0.21073	0.035408	0.31357	-1.8146	-1.7896	-1.7854	-2.3229	-1.6208	-1.7833	-2.2208	-1.6125	-2.2188	-1.9958	-1.9562	-2.2667	-1.9146	-2.0646	-2.0854	-1.6313	370.467	97.301	405.317	208.967	402.136	246.596	403.235	48.480	99.654	138.975	103.300	338.431	386.545	70.125	272.888	381.930	0.00099904	0.00051928	0.0002312	780.72	4.387e-06	5.3527e-06	1059.7	238.67	1.4952e-05	4.5722e-06	385.49	120.91	59.703	17.703	1.3488e-05	49.419	0.0013849	0.0014986	0.00040864	895.85	1.5253e-05	1.6479e-05	1174.1	276.03	1.5368e-05	1.6529e-05	439.53	140.23	81.43	26.228	1.58e-05	57.731	64.946	175.868	191.741	60.592	251.373	296.049	60.498	64.109	184.458	307.735	64.347	69.760	69.513	74.462	231.286	75.425	-8191	255	
7607.616	1	1	0	0	0.21905	0.055082	0.22456	0.13606	0.2246	0.14218	0.03396	0.11789	0.19325	0.063908	0.10881	0.23854	0.14285	0.21619	0.12973	0.13797	-1.7042	-1.9042	-1.7125	-2.3854	-1.6313	-1.9917	-2.4083	-1.6979	-2.2125	-1.9042	-1.7521	-2.7021	-1.8604	-1.7958	-2.3	-1.6562	153.074	372.523	373.117	260.899	254.001	165.396	187.801	387.412	303.478	373.335	252.264	341.625	250.736	378.144	372.066	340.088	0.0014611	0.0013454	8.1283e-05	797.31	1.1759e-05	1.0061e-05	1075	245.99	1.8235e-05	4.9837e-06	390.47	120.32	60.921	17.78	7.2578e-06	48.062	0.001419	0.001506	0.000401	911.07	1.585e-05	1.6402e-05	1184.7	282.75	1.6048e-05	1.6504e-05	444.46	140.15	83.63	26.019	1.5665e-05	56.633	73.140	117.666	219.020	60.206	203.650	78.687	60.316	64.158	197.178	95.261	64.410	69.508	68.885	74.428	323.936	75.084	-8191	255	
7607.735	1	1	0	0	0.10595	0.19766	0.19922	0.21862	0.18411	0.24591	0.27911	0.04138	0.16851	0.15813	0.15091	0.28571	0.085358	0.0865	0.057717	0.15051	-1.4813	-2.2042	-1.6229	-2.2792	-1.7812	-1.7375	-2.3625	-1.8021	-2.0604	-1.9896	-1.8417	-2.0667	-1.8125	-1.9438	-2.2083	-1.925	116.219	63.053	163.130	344.166	125.512	374.511	376.306	371.267	388.121	306.629	403.335	186.140	289.463	188.322	101.903	402.368	0.0012488	0.00047052	4.5584e-05	815.81	1.7493e-05	1.2653e-05	1083.1	251.12	2.1648e-05	7.7756e-06	395.88	120.57	61.892	17.515	6.1034e-06	47.632	0.001455	0.0014647	0.0003883	922.73	1.5959e-05	1.5715e-05	1186.5	286.75	1.5991e-05	1.57e-05	445.77	139.57	84.464	25.46	1.5069e-05	55.928	77.683	94.727	96.342	60.419	194.469	63.196	60.247	64.421	180.058	238.342	63.771	69.554	68.768	74.155	192.441	75.114	-8191	255	
7607.831	1	1	0	0	0.14102	0.075535	0.37654	0.12804	0.24248	0.018871	0.12165	0.12	0.35054	0.1946	0.17472	0.33647	0.18895	0.16296	0.13549	0.025564	-1.4521	-2.0271	-1.4771	-2.4188	-1.9896	-1.6875	-2.4979	-1.7437	-2.1542	-2.0792	-1.7958	-2.2292	-1.9521	-1.7958	-2.3771	-1.8104	335.079	361.588	166.216	401.587	214.042	137.882	304.297	289.154	302.367	328.400	59.072	362.795	396.380	107.753	280.635	264.470	0.0014707	0.00033023	0.0003921	825.21	1.4258e-05	7.5398e-06	1092.8	253.42	1.754e-05	3.7389e-06	396.65	120.55	61.476	17.656	9.231e-06	48.553	0.001473	0.0014119	0.00038258	936.28	1.6194e-05	1.5333e-05	1193.7	289.71	1.6186e-05	1.5351e-05	444.77	141.57	84.566	25.557	1.5176e-05	57.538	74.863	299.779	361.818	60.756	288.559	353.249	60.272	64.238	266.875	202.065	64.181	69.682	69.550	74.716	211.574	75.470	-8191	255	
7607.928	1	1	0	0	0.099043	0.29853	0.31444	0.33756	0.20301	0.098982	0.24392	0.046372	0.094762	0.16426	0.12892	0.052615	0.11582	0.044133	0.24837	0.14917	-1.5	-2.2292	-1.5938	-2.2667	-2.0417	-1.8375	-2.4188	-1.9188	-1.9688	-2.3333	-1.9646	-2.2167	-2.1771	-1.5875	-2.3375	-1.7687	54.468	232.182	246.457	383.895	144.759	362.334	386.061	373.415	382.843	397.337	309.503	288.033	98.414	355.455	322.800	405.115	0.00097987	0.00063588	0.00014666	809.69	7.0412e-06	7.8516e-06	1085.9	250.89	6.3288e-06	9.1284e-06	391.38	121.56	60.342	17.483	3.5624e-06	48.676	0.0014686	0.0014083	0.00038652	933.71	1.6208e-05	1.5328e-05	1189	290.12	1.6016e-05	1.5276e-05	442.82	142.62	82.77	25.186	1.507e-05	57.869	95.625	128.390	375.534	60.545	64.371	349.118	60.227	64.246	121.025	181.997	64.290	70.001	68.475	75.201	147.057	75.775	-8191	255	
7608.024	1	1	0	0	0.25192	0.19465	0.11184	0.25604	0.25512	0.090369	0.15018	0.47765	0.13749	0.13348	0.10208	0.26399	0.2583	0.34832	0.21625	0.14909	-1.3042	-2.0396	-1.8354	-2.0646	-2.025	-1.6583	-2.4375	-2.0292	-1.7417	-2.2771	-1.9667	-2.0792	-2.1667	-1.8375	-2.3396	-2.1667	373.695	402.811	364.900	401.938	218.596	123.246	50.765	47.341	236.987	384.476	96.704	77.828	46.365	325.946	322.342	185.009	0.00058124	0.00096896	0.00030308	787.08	2.5712e-06	4.3827e-06	1065.7	243.26	3.1862e-06	4.1623e-06	385.91	119.29	60.078	17.301	1.5696e-05	47.889	0.0014161	0.0013577	0.00038215	914.25	1.5517e-05	1.4813e-05	1165.7	282.21	1.5182e-05	1.4727e-05	436.28	140.26	80.857	24.599	1.5113e-05	56.992	133.863	163.253	145.945	60.561	140.756	209.000	60.676	64.328	59.506	181.551	64.534	69.641	69.031	74.768	246.506	75.218	-8191	255	
7608.144	1	1	0	0	0.030413	0.156	0.10953	0.23785	0.19229	0.18572	0.1823	0.049866	0.13258	0.041864	0.12085	0.23464	0.19136	0.21194	0.12451	0.17652	-1.3479	-2.3146	-1.6833	-2.0187	-2.1479	-1.6021	-2.1625	-2.1042	-1.5979	-2.3375	-1.95	-1.8375	-2.475	-1.6292	-2.3354	-2.1437	98.389	385.305	146.498	378.737	370.841	169.475	331.661	399.197	118.182	269.554	82.793	230.086	166.831	68.832	51.466	258.334	0.00073985	0.0019176	0.00038801	791.43	5.3287e-07	7.4755e-06	1054.6	242.42	1.4153e-05	6.4637e-06	383.97	118.95	58.467	17.614	1.3418e-05	49.311	0.0013631	0.0013397	0.00039399	915.22	1.5079e-05	1.4873e-05	1170.2	281.8	1.5291e-05	1.5019e-05	440.76	141.47	80.461	25.257	1.6288e-05	58.644	82.286	129.715	155.950	60.380	84.325	223.778	60.586	64.460	95.633	203.238	64.484	69.735	69.450	75.098	232.052	75.769	-8191	255	
7608.216	1	1	0	0	0.17206	0.25126	0.107	0.26184	0.15701	0.125	0.17171	0.31692	0.061652	0.081176	0.13987	0.18514	0.056754	0.1864	0.059195	0.23025	-1.1688	-2.3083	-1.6979	-1.9542	-2.1625	-1.4271	-2.1583	-2.2771	-1.7708	-2.1542	-2.0167	-2.0146	-2.4396	-1.7229	-2.0125	-2.0979	382.192	192.607	112.786	367.374	377.968	123.152	305.291	360.528	180.693	74.675	287.912	113.319	103.367	189.190	336.460	348.227	0.0010903	0.0012082	0.00022929	774.21	5.861e-06	1.0372e-05	1046.6	236.68	4.7046e-06	2.6024e-06	379.65	119.61	58.177	17.559	1.1752e-05	50.7	0.0013889	0.0013828	0.00041978	901.53	1.5317e-05	1.5132e-05	1170.5	277.23	1.5169e-05	1.5162e-05	439.62	140.58	78.844	25.312	1.6334e-05	59.367	92.595	200.468	204.703	60.464	187.731	196.130	60.518	64.424	90.265	278.040	64.569	70.018	69.763	75.085	268.763	75.718	-8191	255	
7608.312	1	1	0	0	0.3637	0.03667	0.094707	0.15296	0.28565	0.10782	0.070968	0.16386	0.21439	0.029557	0.15685	0.26411	0.22926	0.10638	0.18109	0.17637	-1.0229	-2.2542	-1.8958	-1.7542	-2.3125	-1.6083	-2.2417	-2.1542	-1.7542	-2.1688	-2.0917	-1.7792	-2.2417	-1.8604	-1.8125	-2.2938	185.650	307.814	405.070	47.359	224.593	287.983	298.940	332.608	92.744	172.382	265.362	183.614	53.221	344.600	376.029	112.262	0.0010238	0.00118	0.00037041	735.29	5.2435e-06	1.0247e-05	1018.2	225.87	7.3203e-06	3.6809e-06	374.68	120.34	57.775	17.775	5.6043e-06	51.062	0.001342	0.0013731	0.00041236	855.82	1.4693e-05	1.505e-05	1133.8	262.81	1.4419e-05	1.5118e-05	432.49	139.47	77.436	25.481	1.5682e-05	59.141	98.480	179.951	224.749	60.504	63.259	191.721	60.780	64.734	158.474	140.957	64.046	70.003	69.264	75.402	405.038	75.393	-8191	255	
7608.433	1	1	0	0	0.27395	0.12175	0.12535	0.45499	0.19804	0.23974	0.22849	0.19937	0.091207	0.18726	0.12539	0.058567	0.1092	0.18341	0.019303	0.12869	-0.89583	-2.2188	-1.9083	-1.7146	-2.1167	-1.8542	-1.9104	-2.3146	-1.5	-2.1771	-2.0812	-1.7146	-2.3375	-1.5792	-1.7354	-2.3042	269.526	146.395	356.350	378.744	372.798	171.342	340.700	364.360	101.327	189.168	114.054	393.199	322.040	250.405	231.414	285.295	0.0012123	0.0013135	0.0002627	765.96	1.265e-05	1.2836e-05	1042.2	234.69	1.3275e-05	1.06e-05	379.74	120.9	57.904	17.892	1.2529e-06	51.443	0.0012988	0.0013856	0.00039555	874.08	1.4306e-05	1.5288e-05	1152.8	269.44	1.4291e-05	1.5538e-05	433.29	139.46	78.349	25.93	1.547e-05	59.474	70.888	135.736	86.837	60.630	201.731	137.532	60.574	64.520	162.425	225.226	64.151	70.177	69.460	75.157	302.735	75.594	-8191	255	
7608.529	1	1	0	0	0.13132	0.14409	0.24167	0.26998	0.27557	0.10488	0.1451	0.24847	0.10595	0.22464	0.18206	0.24911	0.47883	0.11701	0.049766	0.18755	-1.2042	-2.1042	-2.0708	-1.7062	-2.2229	-1.9562	-1.9458	-2.3854	-1.7812	-1.8833	-2.3312	-1.6938	-2.15	-2.1083	-1.7458	-2.3479	337.571	244.964	171.822	352.355	192.351	271.983	384.169	87.935	248.641	75.808	405.719	354.680	381.332	209.035	200.112	299.158	0.0011842	0.0020475	0.00013546	748.52	3.4619e-06	5.0269e-06	1028	232.36	9.7467e-06	3.1854e-06	379.58	120.69	58.348	17.941	1.1578e-05	50.566	0.0013243	0.0014424	0.00039352	860.71	1.4664e-05	1.5864e-05	1138.1	267.6	1.4903e-05	1.6024e-05	431.61	139.32	79.54	26.103	1.5148e-05	58.43	87.903	115.670	56.503	60.548	247.737	201.994	60.330	64.609	224.644	216.187	64.718	70.113	69.333	74.675	127.518	75.615	-8191	255	
7608.623	1	1	0	0	0.061254	0.14144	0.13106	0.37704	0.18153	0.13091	0.11615	0.29242	0.21864	0.14621	0.19331	0.17205	0.29866	0.093549	0.21949	0.15032	-1.6146	-1.9792	-2.1521	-1.6292	-2.1729	-1.9083	-1.7437	-2.4333	-1.9583	-1.8312	-2.4	-1.7625	-2.2333	-2.1875	-1.7687	-2.5354	375.969	148.522	404.985	381.238	137.054	278.074	355.564	300.645	50.068	242.675	297.140	370.517	323.525	255.788	136.992	68.062	0.00169	0.0010693	0.0001624	754.51	9.3779e-06	7.2833e-06	1026.7	231.64	1.2366e-05	6.647e-06	378.29	121.08	58.027	18	4.1124e-06	52.338	0.0013643	0.00144	0.00038243	863.46	1.5195e-05	1.5655e-05	1132.5	266.4	1.5244e-05	1.5675e-05	427.78	138.93	79.688	25.948	1.4905e-05	60.044	105.432	97.750	303.178	60.359	176.930	345.180	60.534	64.650	183.628	211.889	64.596	69.922	69.416	75.930	366.757	75.513	-8191	255	
7608.719	1	1	0	0	0.17341	0.39596	0.16035	0.15017	0.078718	0.11251	0.18306	0.22306	0.12823	0.20451	0.15653	0.39035	0.32346	0.15902	0.24916	0.29384	-1.2875	-1.8542	-2.3708	-1.7479	-2.0979	-2.2083	-1.6833	-2.15	-1.9229	-1.9937	-2.1729	-1.8312	-2.1688	-2.0333	-1.7604	-2.2917	283.012	351.955	310.678	337.522	341.707	301.620	359.424	397.403	167.962	354.204	406.693	260.943	278.291	389.025	344.048	330.751	0.0014957	0.0012736	0.00016424	735.19	4.6366e-06	4.5828e-06	1016	226.15	7.2112e-06	6.7839e-07	377.02	123.22	58.237	18.552	6.2241e-06	54.687	0.0014329	0.0014323	0.00038308	848.63	1.5951e-05	1.5871e-05	1123.4	263.85	1.6362e-05	1.5896e-05	429.69	143	81.917	26.687	1.5378e-05	62.692	79.875	381.867	51.934	60.780	266.017	366.222	60.821	64.875	168.031	254.422	64.913	70.450	68.977	75.146	70.360	75.837	-8191	255	
7608.840	1	1	0	0	0.20624	0.42204	0.21412	0.12664	0.026472	0.14147	0.096571	0.029948	0.18426	0.16583	0.29887	0.08436	0.1133	0.32934	0.16886	0.21032	-1.4646	-1.7417	-2.1437	-1.6833	-1.9625	-2.1208	-1.7292	-2.325	-2.0021	-2.0917	-2.3	-1.6583	-2.0042	-2.1354	-1.6437	-2.0792	118.874	123.784	99.402	291.007	52.390	404.512	377.711	104.292	379.011	174.130	389.466	56.134	339.653	90.679	236.239	191.968	0.0010318	0.0008698	9.6715e-05	736.01	5.5628e-06	1.0571e-05	1018.6	226.78	3.2076e-06	7.3278e-06	377.19	123.83	58.335	18.53	7.6218e-06	52.995	0.0015224	0.0014522	0.00039625	860.76	1.678e-05	1.5885e-05	1126.8	267.9	1.6745e-05	1.5666e-05	430.44	144.36	81.624	26.376	1.5032e-05	61.706	82.168	356.240	147.568	60.330	211.751	318.569	60.619	65.019	344.307	68.043	64.671	70.207	69.738	75.145	285.421	76.075	-8191	255	
7608.912	1	1	0	0	0.15172	0.12089	0.25742	0.043249	0.22693	0.38237	0.34215	0.26656	0.24969	0.16852	0.38475	0.28149	0.24433	0.26789	0.13938	0.15452	-1.6896	-1.4312	-2.3708	-1.7938	-1.8229	-2.3021	-1.9583	-2.0083	-1.9833	-1.5063	-2.4083	-1.9333	-1.8438	-2.1	-1.8771	-2.1583	405.698	278.807	231.646	337.873	351.251	59.178	300.488	355.194	154.056	231.902	235.095	400.617	352.053	84.385	101.500	340.781	0.00082879	0.00060005	0.00013201	752	4.2849e-06	4.6049e-06	1024.9	232.08	3.0302e-06	3.6608e-06	377.06	119.74	58.229	17.548	9.6463e-06	50.096	0.0014451	0.0013667	0.00037506	868.57	1.5524e-05	1.4695e-05	1126.1	270.25	1.5218e-05	1.4479e-05	424.52	139.86	79.387	24.838	1.4463e-05	58.793	75.969	382.253	231.695	60.389	358.083	361.442	60.670	64.479	253.400	131.628	64.433	70.005	68.946	74.957	223.209	75.805	-8191	255	
7609.008	1	1	0	0	0.11766	0.084443	0.2655	0.16328	0.085629	0.17925	0.23554	0.29693	0.13774	0.18631	0.11557	0.26798	0.082167	0.2223	0.29567	0.10556	-1.5833	-1.625	-2.1771	-2.0333	-1.8396	-2.3125	-1.8521	-2.1312	-2.1	-1.5917	-2.2479	-1.8292	-1.7771	-2.3208	-1.925	-2.0187	50.225	82.114	279.964	355.734	130.563	122.840	303.737	317.031	341.243	99.057	336.253	357.406	338.831	337.034	317.986	333.730	0.0011477	0.00033756	0.00012185	756	2.2196e-06	9.9047e-06	1019.5	231.42	7.4021e-06	7.4234e-06	374.74	119.62	57.627	17.728	9.4105e-06	50.268	0.0013677	0.0013141	0.0003731	874.36	1.4888e-05	1.4443e-05	1125.8	269.84	1.4827e-05	1.4269e-05	425.77	140.29	78.016	24.865	1.4787e-05	59.308	79.723	401.424	329.647	60.361	68.249	357.257	60.467	64.814	275.768	206.838	64.520	70.150	69.306	75.438	178.425	75.560	-8191	255	
7609.104	1	1	0	0	0.28145	0.021109	0.25249	0.13167	0.26195	0.25918	0.23514	0.18449	0.064499	0.21209	0.19043	0.013358	0.19155	0.12628	0.12041	0.046669	-1.9188	-1.6208	-2.3792	-1.9521	-1.7396	-2.225	-1.9167	-2.1312	-1.9979	-1.7313	-2.3875	-2.0958	-1.6812	-2.3396	-1.9521	-2.0458	256.614	103.896	385.697	365.182	75.697	181.924	350.752	277.545	273.580	126.987	309.581	262.903	309.177	376.198	208.720	167.894	0.0011369	0.00035922	0.00016356	751.38	2.7088e-06	6.7707e-06	1023.7	230.34	6.0336e-06	3.3029e-06	376.89	120.91	58.488	17.924	1.1637e-05	50.882	0.0013076	0.0012753	0.00037973	868.17	1.4372e-05	1.4091e-05	1129.9	269.17	1.441e-05	1.4008e-05	429.63	140.13	77.988	24.929	1.5309e-05	59.565	71.012	156.802	160.743	60.454	298.269	353.906	60.502	64.509	382.758	171.749	64.278	70.005	68.591	75.436	218.775	75.502	-8191	255	
7609.225	1	1	0	0	0.35906	0.083448	0.16971	0.05451	0.073273	0.081414	0.44453	0.22879	0.12412	0.15991	0.10517	0.10735	0.40333	0.21902	0.33492	0.33035	-1.7313	-1.6437	-2.0708	-2.1333	-1.6208	-2.2604	-2.0312	-1.8729	-2.2271	-1.6083	-2.1417	-2.2438	-1.6125	-2.2938	-1.9312	-1.8896	63.342	89.161	385.360	306.725	352.626	352.453	379.663	335.394	279.360	358.473	139.118	399.433	265.287	192.492	232.049	368.991	0.00095922	0.0013044	0.00025302	753.05	1.4882e-05	1.3472e-05	1025.6	233.38	2.8541e-06	6.5182e-06	379.98	121.59	58.567	17.924	1.3221e-05	50.642	0.0012968	0.001282	0.00038997	865.96	1.4049e-05	1.4017e-05	1133.8	268.43	1.3982e-05	1.4008e-05	432.98	139.46	77.63	24.809	1.5061e-05	58.441	92.844	160.239	113.174	60.318	59.033	228.028	60.336	64.268	71.104	247.988	64.785	70.065	68.501	74.913	228.001	75.458	-8191	255	
7609.321	1	1	0	0	0.26473	0.02816	0.3155	0.15569	0.34625	0.038258	0.40703	0.28693	0.10068	0.36934	0.095862	0.15908	0.13831	0.049079	0.18335	0.11395	-1.7833	-1.6583	-1.8771	-2.2083	-1.625	-2.1646	-1.9021	-1.7833	-2.2083	-1.9792	-1.9021	-2.0083	-1.6125	-2.2271	-2.0333	-1.8062	182.896	403.882	285.765	118.172	85.235	319.163	340.484	325.841	92.100	378.966	369.304	297.340	50.441	60.452	65.582	256.342	0.0011365	0.00059371	0.00012112	753.25	9.6492e-06	1.3001e-05	1033.1	235.19	6.5127e-06	8.4983e-06	380.38	121.55	58.952	17.924	1.3862e-05	50.987	0.0012433	0.0012708	0.00037993	860.49	1.3588e-05	1.4137e-05	1138.1	267.95	1.362e-05	1.4277e-05	431.83	138.35	77.441	25.192	1.5118e-05	58.418	75.052	160.467	263.011	60.473	79.574	212.267	60.581	64.526	347.658	217.592	64.472	70.116	68.749	75.366	105.189	75.372	-8191	255	
7609.417	1	1	0	0	0.15185	0.1031	0.20475	0.32403	0.24246	0.16221	0.23607	0.20937	0.2454	0.095553	0.093904	0.27986	0.29393	0.10718	0.09449	0.23748	-2.0292	-1.4667	-1.8125	-2.2687	-1.4896	-2.1979	-2.1854	-1.6729	-2.0875	-1.7104	-2.125	-2.2687	-1.7	-2.2104	-1.8354	-1.6375	285.172	131.083	328.006	290.384	72.262	195.743	354.122	355.119	115.148	177.922	347.847	378.699	244.973	67.360	315.746	314.820	0.0012068	0.00037767	0.00016251	759.07	9.1919e-06	7.6204e-06	1030	234.09	7.4833e-06	6.8323e-06	379.82	120.8	59.274	17.878	7.2177e-06	51.059	0.0012541	0.0013478	0.00038359	864.63	1.3794e-05	1.4893e-05	1138.5	268.26	1.3878e-05	1.5009e-05	430.72	138.54	78.074	25.51	1.4819e-05	58.397	85.848	336.809	222.938	60.602	200.445	124.979	60.624	64.582	184.591	157.944	64.466	69.882	69.229	75.539	380.968	75.689	-8191	255	
7609.513	1	1	0	0	0.23718	0.18239	0.17465	0.28284	0.24797	0.14419	0.17757	0.21692	0.10363	0.15588	0.17822	0.12527	0.21164	0.062853	0.058815	0.10115	-1.7188	-1.8292	-1.7875	-2.3708	-1.65	-2.1875	-2.2854	-1.6542	-2.1792	-2.0062	-2.0333	-2.2562	-1.6479	-1.9833	-2.1063	-1.9917	259.477	178.873	280.275	52.161	58.789	337.432	401.997	75.289	254.370	128.759	195.527	336.637	101.155	165.219	178.561	269.099	0.001119	0.0004339	3.5315e-05	754.44	4.1831e-06	2.8488e-06	1031.1	234.43	1.1434e-05	8.2042e-07	383.41	122.29	59.022	17.879	1.8123e-05	51.666	0.0012687	0.0013723	0.00037234	859.88	1.3966e-05	1.5085e-05	1129.3	267.2	1.4175e-05	1.5302e-05	430.61	139.06	79.03	25.801	1.476e-05	58.911	88.713	95.076	347.536	60.430	187.399	320.419	60.546	64.578	140.150	139.185	64.342	69.746	69.410	75.148	111.479	75.494	-8191	255	
7609.609	1	1	0	0	0.31864	0.15918	0.14664	0.10045	0.32198	0.1516	0.1327	0.18531	0.032489	0.23018	0.083226	0.21907	0.15058	0.14378	0.098559	0.19729	-1.5979	-1.9521	-1.6646	-2.4437	-1.7375	-1.8708	-2.2188	-1.7292	-2.1583	-1.9312	-1.7542	-2.0438	-1.7979	-1.9062	-2.1188	-1.7396	241.649	217.023	195.062	235.201	385.272	287.694	299.796	356.338	61.949	120.359	315.845	89.454	85.829	105.799	67.023	377.616	0.0010148	0.0010059	0.00019894	756.88	4.5449e-06	9.7782e-06	1032.5	236.12	5.2658e-06	7.8173e-06	383.27	122.33	59.364	17.969	1.1925e-05	51.37	0.0013433	0.0014178	0.00037733	864.21	1.519e-05	1.5751e-05	1137.3	271.11	1.5425e-05	1.573e-05	435.16	140.69	81.628	26.032	1.4902e-05	59.333	81.069	270.030	322.198	60.610	134.105	355.570	60.424	64.638	109.711	121.216	64.375	69.934	69.228	75.157	250.128	75.856	-8191	255	
7609.705	1	1	0	0	0.047968	0.25785	0.17189	0.13051	0.23571	0.016021	0.036887	0.11098	0.066087	0.22084	0.08902	0.31652	0.20536	0.22459	0.28353	0.09927	-1.5979	-1.7854	-1.6354	-2.3042	-1.8062	-1.9646	-2.2042	-1.7167	-1.9583	-2.2083	-1.6875	-2.3812	-1.9958	-1.9	-2.4	-1.7979	276.754	250.368	130.928	285.610	95.057	383.704	367.613	244.224	82.638	62.133	264.131	371.976	68.137	350.879	343.552	397.679	0.0015782	0.00051078	0.00013795	759.46	1.0013e-05	9.0026e-06	1029.1	236.38	6.919e-06	3.5057e-06	381.49	122.37	59.538	18.028	1.615e-05	51.488	0.0014168	0.0014114	0.00037642	867.07	1.5493e-05	1.5045e-05	1130.3	270.7	1.5395e-05	1.4881e-05	430.21	140.04	80.915	25.427	1.4284e-05	58.968	75.974	208.732	370.339	60.711	255.690	231.696	60.321	64.892	384.651	329.191	64.513	70.267	69.172	75.438	336.641	75.721	-8191	255	
7609.824	1	1	0	0	0.20321	0.10389	0.20525	0.11872	0.20007	0.12129	0.35284	0.22239	0.28359	0.16614	0.24352	0.10137	0.19137	0.1256	0.20145	0.1722	-1.4396	-2.0854	-1.5167	-2.3479	-2.0021	-1.5375	-2.4396	-1.9917	-1.7396	-2.275	-1.6979	-2.2625	-1.9417	-1.8729	-2.3333	-1.8833	137.802	318.284	253.845	385.224	342.224	57.563	374.940	89.722	375.141	325.915	339.617	289.878	394.042	58.036	58.840	312.507	0.0012162	0.00049223	0.00019666	756.36	9.3952e-06	3.9404e-06	1027.6	236.78	1.8466e-05	7.5813e-06	382.17	122.23	58.913	17.969	8.6583e-06	51.214	0.0013846	0.0013239	0.00036009	864.63	1.519e-05	1.4386e-05	1124	270.77	1.522e-05	1.4392e-05	429.69	141.24	80.677	25.211	1.4175e-05	59.675	74.355	285.156	94.922	60.445	84.025	368.654	60.322	64.740	149.976	245.878	64.427	69.758	69.269	75.399	111.289	75.972	-8191	255	
7609.920	1	1	0	0	0.14184	0.1963	0.13584	0.22297	0.44457	0.091881	0.086642	0.24539	0.067204	0.12254	0.1725	0.32469	0.031532	0.16327	0.28687	0.15779	-1.6771	-2.1312	-1.5063	-2.2521	-2.1021	-1.6229	-2.5	-1.8479	-1.7188	-2.1312	-1.7208	-2.025	-2.2146	-1.725	-2.2354	-1.9208	404.904	75.327	256.685	398.647	352.006	405.528	326.080	367.372	322.702	112.350	287.031	80.801	59.503	396.780	364.023	83.528	0.0012982	0.001752	0.00012835	760.04	1.3073e-06	7.8109e-06	1031.1	236.85	5.7614e-06	5.3294e-06	383.58	122.86	59.685	18.33	7.4978e-06	51.838	0.0013719	0.0013196	0.00036002	874.19	1.5106e-05	1.4407e-05	1130.7	274.32	1.5066e-05	1.4531e-05	432.03	142.81	80.634	25.368	1.4537e-05	60.295	82.077	134.314	171.047	60.366	239.068	124.413	60.607	64.808	299.702	89.932	64.593	70.335	68.970	74.681	250.645	75.321	-8191	255	
7610.017	1	1	0	0	0.24111	0.096246	0.083401	0.021672	0.31403	0.1859	0.13241	0.19268	0.24267	0.099996	0.33797	0.17392	0.13883	0.22306	0.05545	0.18539	-1.2417	-2.3729	-1.7708	-2.0563	-2.075	-1.6063	-2.1771	-1.9521	-1.8625	-2.3292	-1.7687	-1.8417	-1.9146	-1.6	-2.3417	-2.0042	295.890	180.980	269.367	375.401	160.297	54.576	53.750	314.640	305.781	319.228	380.694	364.543	274.498	200.749	133.574	374.606	0.00064867	0.00030282	8.617e-05	757.06	1.7372e-05	1.2459e-05	1030.1	238.15	8.438e-06	9.237e-06	385.26	122.74	59.182	18.191	2.4984e-05	51.678	0.001363	0.0013296	0.00037527	881.25	1.5025e-05	1.4491e-05	1137.5	276.64	1.4964e-05	1.4607e-05	436.15	143.68	80.293	25.45	1.5209e-05	60.449	96.140	243.205	107.125	60.759	366.329	187.956	60.546	64.857	304.312	109.074	64.397	70.141	68.725	74.982	226.511	75.413	-8191	255	
7610.113	1	1	0	0	0.29006	0.31061	0.024953	0.30302	0.13421	0.10976	0.27592	0.14432	0.026259	0.14294	0.19242	0.11076	0.24434	0.20395	0.11556	0.32573	-1.1979	-2.2854	-1.7604	-1.9896	-2.0563	-1.5312	-2.0792	-2.0042	-1.5354	-2.2667	-1.85	-1.9729	-2.1063	-1.6271	-2.1521	-2.0187	233.906	194.408	216.941	399.364	91.653	109.430	311.696	377.950	53.974	77.818	77.281	388.227	250.398	248.218	122.517	336.064	0.0010876	0.00035045	0.00040065	758.49	9.2385e-06	1.3907e-05	1031.2	235.45	1.3405e-05	2.2625e-06	384.3	121.97	59.208	18.245	2.5399e-06	51.421	0.0013467	0.0013298	0.0003914	882.62	1.4875e-05	1.4576e-05	1142.5	276.16	1.4801e-05	1.4617e-05	438.89	142.98	80.227	25.48	1.5881e-05	60.42	83.673	65.116	144.549	60.367	308.221	193.032	60.434	64.635	135.887	110.762	64.367	70.039	69.000	75.213	177.690	75.298	-8191	255	
7610.209	1	1	0	0	0.19801	0.31626	0.10441	0.22298	0.070498	0.14752	0.23445	0.09999	0.067431	0.15321	0.22809	0.20205	0.28678	0.11704	0.32415	0.24329	-1.1208	-2.0083	-1.75	-1.9083	-2.0875	-1.4333	-2	-2.0896	-1.775	-2.1333	-1.8417	-2.0375	-2.3229	-1.7583	-2.0187	-2.1479	292.170	346.224	352.618	326.184	392.152	144.126	327.126	281.765	306.140	66.728	341.647	84.452	81.006	299.170	220.838	345.760	0.00095311	0.00062933	0.00019967	760.06	9.1242e-06	1.9586e-06	1035	238.24	8.4149e-06	6.4406e-06	385.87	122.76	60.324	18.289	7.7041e-06	51.537	0.001358	0.00135	0.00040931	882.82	1.5042e-05	1.4974e-05	1155	277.41	1.5015e-05	1.515e-05	445.78	143.73	81.428	25.964	1.6596e-05	60.427	71.933	140.789	101.059	60.762	110.494	195.628	60.293	64.285	187.732	358.954	64.749	69.953	69.136	74.653	254.486	75.411	-8191	255	
7610.305	1	1	0	0	0.13276	0.27292	0.12748	0.20159	0.10848	0.13125	0.15847	0.28734	0.24177	0.075509	0.014989	0.2958	0.29317	0.067586	0.26348	0.062208	-1.2792	-2.2021	-1.7521	-1.7229	-2.2583	-1.6854	-1.8479	-2.1312	-1.7083	-2.2958	-2.1	-1.7896	-2.3708	-1.9375	-1.7583	-2.4167	301.181	236.675	178.623	370.304	262.423	211.190	89.253	71.428	125.787	326.080	398.407	381.075	304.612	153.067	388.159	349.188	0.00089033	0.0020603	0.00026096	764.54	7.118e-06	1.1737e-05	1035.3	239.82	6.1911e-06	8.3653e-06	386.89	123.11	60.416	18.333	1.3196e-05	51.779	0.0013753	0.0014251	0.000425	884.27	1.5167e-05	1.5786e-05	1160.8	278.6	1.5164e-05	1.5913e-05	447.26	143.94	81.548	26.609	1.6605e-05	60.484	68.444	185.303	194.357	60.611	156.920	151.830	60.263	64.428	164.647	195.097	64.264	69.859	69.373	75.571	74.802	75.182	-8191	255	
7610.401	1	1	0	0	0.12925	0.1484	0.13105	0.13494	0.28815	0.13663	0.17049	0.073769	0.17902	0.34075	0.099894	0.40387	0.19933	0.17946	0.19451	0.14298	-1.2875	-2.0625	-2.0979	-1.9375	-2.2458	-1.8771	-1.9875	-2.1875	-1.6583	-2.1667	-2.0667	-1.6542	-2.3312	-1.7646	-1.7583	-2.3083	118.417	382.438	73.359	351.771	396.968	207.789	305.414	356.363	143.447	394.247	99.070	376.905	177.396	404.593	387.762	396.446	0.0013309	0.001273	0.00012165	760.03	1.9116e-06	1.0016e-05	1032.7	238.92	8.4973e-06	2.262e-06	387.61	123.93	61.069	18.24	2.425e-05	51.927	0.0013705	0.0014849	0.00042099	881.8	1.526e-05	1.6424e-05	1155.2	278.32	1.5315e-05	1.6644e-05	447.23	143.79	82.158	26.904	1.6303e-05	60.625	95.489	216.014	329.981	60.724	239.298	149.515	60.248	64.463	152.349	368.728	64.220	70.034	68.856	75.248	380.830	75.456	-8191	255	
7610.520	1	1	0	0	0.18562	0.075575	0.207	0.44867	0.26596	0.11406	0.15942	0.25175	0.1296	0.17182	0.14199	0.19481	0.22409	0.29328	0.23378	0.15552	-1.1771	-2.1833	-2.2271	-1.9312	-2.05	-1.8521	-1.7792	-2.3125	-1.6562	-1.9354	-2.15	-1.6708	-1.9417	-1.7979	-1.6667	-2.2792	67.340	69.089	288.880	347.458	370.758	115.298	375.803	393.065	249.828	306.291	53.630	325.037	50.231	386.804	268.187	390.711	0.0010305	7.3164e-05	0.000217	758.81	4.2485e-06	7.1376e-06	1030.2	240.36	6.8531e-06	6.626e-06	388.92	124.16	61.575	18.447	5.0545e-06	52.104	0.0014074	0.0015335	0.00041222	879.91	1.5685e-05	1.6845e-05	1152.5	278.7	1.5763e-05	1.6865e-05	445.33	144.08	83.508	27.041	1.5869e-05	60.585	68.862	284.517	51.564	60.761	160.571	244.671	60.408	64.432	77.643	159.862	64.456	69.877	68.838	74.842	386.850	74.985	-8191	255	
7610.616	1	1	0	0	0.14751	0.028343	0.24871	0.13798	0.28916	0.19655	0.34847	0.26637	0.12613	0.10236	0.14532	0.04972	0.12428	0.13717	0.052318	0.084517	-1.4646	-1.8479	-2.1	-1.5792	-2.1479	-1.9958	-1.6917	-2.1479	-1.7812	-1.8917	-2.125	-1.4875	-2.0771	-1.9875	-1.7542	-2.3646	77.231	315.021	324.707	396.240	123.182	282.155	379.393	346.486	199.973	331.970	61.599	55.320	200.131	371.833	192.489	330.638	0.0013161	0.0015237	0.000426	760.28	1.1203e-05	4.9521e-06	1033.7	242.49	1.5267e-05	1.8825e-06	389.21	124.96	60.798	18.385	1.8191e-05	52.488	0.0014452	0.0015157	0.00040071	876.38	1.5912e-05	1.6395e-05	1146	277.82	1.5992e-05	1.6161e-05	442.77	143.34	83.777	26.682	1.5385e-05	60.528	50.766	400.478	164.146	60.626	159.070	240.364	60.636	64.468	167.521	69.875	64.587	69.810	69.256	75.125	319.219	75.809	-8191	255	
7610.712	1	1	0	0	0.30828	0.22112	0.27217	0.028254	0.16801	0.23803	0.34889	0.21699	0.16705	0.13854	0.13589	0.20092	0.17633	0.11461	0.10527	0.042783	-1.4937	-1.8896	-2.1417	-1.7396	-2.1958	-2.0604	-1.9417	-2.35	-1.8188	-1.8	-2.325	-1.7896	-1.9458	-2.0021	-1.7417	-2.3979	74.579	114.016	116.841	399.625	371.198	65.273	328.948	291.483	379.849	96.172	172.266	403.708	370.764	339.001	119.553	168.933	0.0015281	0.00049899	0.00020148	758.33	1.1076e-05	1.3965e-05	1033.4	241.97	3.7436e-06	4.2014e-06	389.7	124.77	61.103	18.693	1.095e-05	53.456	0.0014624	0.0014512	0.00038996	874.48	1.6159e-05	1.5773e-05	1141.3	277.7	1.6408e-05	1.5848e-05	441.92	145.03	84.534	26.609	1.5302e-05	61.589	103.975	340.989	91.988	60.567	208.933	80.025	60.217	64.364	101.198	48.090	64.582	70.318	68.857	74.965	71.183	75.507	-8191	255	
7610.786	1	1	0	0	0.16379	0.10865	0.20462	0.30796	0.153	0.12394	0.1215	0.27965	0.12548	0.10093	0.091363	0.20074	0.24864	0.17885	0.14987	0.11177	-1.4583	-1.725	-2.375	-1.8333	-1.75	-2.1125	-1.7021	-2.2146	-1.7458	-1.9396	-2.4354	-1.7313	-2.0187	-2.2062	-1.4854	-2.1958	145.773	169.651	396.372	58.316	82.056	54.041	299.152	353.276	160.326	302.064	360.155	266.199	317.379	397.977	120.472	380.079	0.0011024	0.0010551	9.9273e-05	763.23	6.0133e-06	8.5378e-06	1037.8	243.87	2.0575e-05	5.3778e-06	392.21	126.38	61.857	18.79	1.2698e-05	52.894	0.0014958	0.0014231	0.0003869	882.49	1.6417e-05	1.5621e-05	1144.9	282.08	1.6431e-05	1.5586e-05	445.24	147.1	84.993	26.574	1.5231e-05	61.91	56.961	65.049	284.720	60.633	50.582	132.889	60.493	64.182	172.752	276.464	64.121	70.226	69.022	74.839	163.340	75.707	-8191	255	
7610.905	1	1	0	0	0.11838	0.21092	0.17292	0.27715	0.066589	0.53705	0.38418	0.16698	0.015435	0.08352	0.25701	0.20158	0.18415	0.10415	0.31275	0.36401	-1.5667	-1.5708	-2.3667	-1.8021	-2.0083	-2.2667	-1.7125	-2.1813	-2.2104	-1.5375	-2.3979	-1.8813	-1.8583	-2.1854	-1.725	-2.0271	138.193	309.034	244.489	369.668	93.044	296.714	56.138	346.581	232.801	146.790	74.374	168.282	129.902	311.743	127.896	384.500	0.00071441	0.00068318	0.00029835	767.91	6.5326e-06	2.843e-06	1038	244.21	9.2672e-06	9.5023e-06	392.35	125.08	62.069	18.576	1.2186e-05	52.342	0.0014788	0.001406	0.00038778	894.08	1.6085e-05	1.5368e-05	1147.9	285.16	1.6071e-05	1.5386e-05	444.02	146.83	84.284	26.44	1.5474e-05	61.793	62.490	62.673	196.109	60.347	283.079	327.784	60.355	64.476	109.815	108.137	64.174	69.955	69.025	74.898	273.171	75.678	-8191	255	
7611.001	1	1	0	0	0.07211	0.16526	0.40123	0.18062	0.12522	0.22385	0.27562	0.05881	0.34325	0.31469	0.11112	0.12542	0.054901	0.057111	0.14729	0.23635	-1.6708	-1.6417	-2.1958	-1.9312	-1.8042	-2.1458	-1.7417	-2.0521	-2.0604	-1.6604	-2.2167	-1.8042	-1.7	-2.35	-1.5083	-1.9021	225.871	228.131	141.121	394.560	57.264	108.117	362.378	223.179	191.059	388.623	303.976	253.580	127.433	151.060	94.852	91.071	0.00043342	0.00078003	0.00019681	769.34	5.773e-06	4.5711e-06	1038.4	243.63	9.3352e-06	7.791e-06	392.92	125.09	61.643	18.521	1.9998e-05	52.335	0.0014411	0.0013935	0.00039845	899.14	1.5857e-05	1.5313e-05	1150.1	285.44	1.5761e-05	1.5282e-05	447.73	147.64	83.674	26.345	1.6078e-05	61.854	71.079	139.055	161.493	60.359	321.917	282.110	60.526	64.216	301.776	363.737	64.402	70.064	69.541	74.433	212.512	75.499	-8191	255	
7611.097	1	1	0	0	0.20378	0.33901	0.10572	0.16676	0.37137	0.22296	0.17786	0.16962	0.2344	0.10519	0.34751	0.148	0.26	0.24214	0.15209	0.23024	-1.6708	-1.5542	-2.1729	-1.9667	-1.5104	-2.1937	-1.7542	-1.9354	-2.1063	-1.7417	-2.2188	-1.8583	-1.6458	-2.1083	-1.8521	-1.9188	63.090	78.178	335.296	86.398	304.550	104.936	238.171	277.288	375.722	198.375	371.854	86.658	342.722	86.919	211.038	287.038	0.00077186	5.2918e-05	0.00015585	763.37	8.6911e-07	7.1515e-06	1036.9	246.92	4.5e-06	2.1328e-06	393.8	125.54	61.902	18.602	7.4136e-06	52.371	0.0014297	0.0013884	0.00041166	899.51	1.5577e-05	1.5374e-05	1161.2	287.34	1.5682e-05	1.5364e-05	452.99	147.58	83.872	26.356	1.6612e-05	61.531	74.437	49.925	125.312	60.245	283.006	129.651	60.215	64.379	266.899	358.956	64.104	69.492	68.771	74.747	86.942	75.314	-8191	255	
7611.218	1	1	0	0	0.27368	0.12864	0.34264	0.30368	0.15904	0.192	0.28305	0.19344	0.15813	0.27112	0.20067	0.17366	0.15151	0.02988	0.19811	0.26849	-1.6437	-1.4562	-1.9583	-2.0938	-1.6187	-2.0979	-1.9042	-1.7521	-2.3792	-1.3813	-2.0938	-2.0729	-1.5354	-2.2604	-1.85	-1.825	194.589	73.908	300.231	352.272	361.513	277.072	336.452	212.338	193.736	152.249	296.364	139.187	55.246	55.764	185.945	356.252	0.00072557	0.00081096	0.00019051	773.82	8.3977e-06	6.8372e-06	1049.7	248.46	1.1858e-05	8.2415e-06	397.83	125.91	62.666	18.822	1.4882e-05	52.192	0.0014272	0.001425	0.0004329	904.4	1.5646e-05	1.5628e-05	1175.3	288.94	1.5546e-05	1.5705e-05	460.26	148.22	85.205	26.992	1.7374e-05	61.173	46.564	165.865	170.463	60.751	252.144	142.628	60.387	64.207	322.233	284.787	64.132	69.788	68.843	74.600	245.537	75.246	-8191	255	
7611.314	1	1	0	0	0.20282	0.07568	0.14254	0.10312	0.20299	0.29836	0.27238	0.19281	0.19638	0.17841	0.14452	0.13405	0.29626	0.12706	0.081616	0.15748	-1.8	-1.7062	-1.8292	-2.3146	-1.6479	-2.1229	-2.0229	-1.8979	-2.1979	-1.9104	-2.0729	-2.3625	-1.5917	-1.9813	-1.9792	-1.7833	289.512	271.684	173.262	372.976	354.887	390.655	272.042	291.961	151.597	67.603	47.945	269.152	162.135	352.376	323.013	295.168	0.0014643	0.00088016	0.00033432	781.82	5.3726e-06	7.0883e-06	1052.3	250.7	1.1448e-05	8.961e-06	395.87	124.72	63.027	18.565	1.1427e-05	51.492	0.0014377	0.0014884	0.00044346	909.89	1.5767e-05	1.6445e-05	1179.8	289.39	1.5739e-05	1.6462e-05	457.58	146	84.362	26.942	1.6797e-05	60.227	73.911	149.520	99.717	60.450	281.618	183.114	60.206	64.216	132.382	188.611	64.118	69.524	69.095	74.359	405.412	75.185	-8191	255	
7611.385	1	1	0	0	0.28473	0.10384	0.23425	0.29079	0.16802	0.12155	0.12047	0.086545	0.12019	0.15636	0.18799	0.059656	0.29375	0.087149	0.11881	0.085798	-1.7125	-1.5333	-1.7396	-2.3396	-1.6771	-2.0354	-2.0187	-1.8958	-2.2667	-1.7979	-1.9208	-2.2271	-1.6938	-2.2333	-1.925	-2.0438	182.303	291.107	82.315	341.357	118.925	227.182	345.374	96.015	212.569	196.540	367.071	90.563	346.362	214.114	313.494	305.218	0.0012699	0.001939	0.00017711	775.64	1.9216e-05	9.4404e-06	1049.8	248.39	1.4046e-05	7.2276e-06	396.11	124.96	62.54	18.53	1.1231e-05	51.437	0.0013922	0.0014891	0.00042189	898.32	1.5211e-05	1.6308e-05	1165.3	285.69	1.5023e-05	1.6045e-05	450.04	143.78	82.807	26.443	1.5499e-05	59.36	67.246	171.077	106.788	60.213	212.696	200.945	60.305	64.434	130.204	273.298	64.120	69.646	68.575	74.964	120.426	75.500	-8191	255	
7611.506	1	1	0	0	0.13359	0.24924	0.0569	0.32324	0.20188	0.037069	0.067708	0.22601	0.031483	0.2979	0.16278	0.11125	0.12058	0.04116	0.1416	0.32707	-1.9042	-1.8062	-1.7563	-2.3854	-1.7708	-2.0396	-2.3063	-1.775	-1.9917	-2.0208	-1.9729	-2.3292	-1.7667	-1.8771	-2.3438	-1.7146	188.969	346.199	246.848	336.564	221.761	111.493	360.473	90.487	220.385	142.501	337.965	62.713	219.253	381.060	242.059	349.923	0.0014017	0.00030381	0.00019854	773.2	1.5521e-05	9.8597e-06	1047.2	247.9	4.0711e-06	9.9918e-06	397.93	124.71	62.72	18.425	5.1395e-06	51.115	0.0013446	0.0014421	0.00038852	886.26	1.4701e-05	1.5548e-05	1150.2	282.17	1.4653e-05	1.5452e-05	444.66	142.35	82.844	26.242	1.4979e-05	59.073	94.591	170.478	189.522	60.489	167.514	95.030	60.274	64.653	246.448	332.044	64.293	69.456	68.859	74.469	269.218	75.443	-8191	255	
7611.602	1	1	0	0	0.049558	0.15003	0.13975	0.19223	0.054667	0.12556	0.16401	0.14334	0.10502	0.17941	0.19544	0.042727	0.23883	0.24697	0.12242	0.17196	-1.7771	-1.9312	-1.5375	-2.2604	-1.8667	-1.9417	-2.2938	-1.625	-2.3354	-2.0812	-1.5292	-2.3271	-1.7479	-1.8021	-2.1104	-1.7896	177.111	172.428	115.684	55.364	314.324	366.341	271.937	122.916	316.192	87.712	367.375	256.261	110.161	109.903	341.296	390.921	0.0012574	0.00036221	0.00022602	776.08	1.0893e-05	6.6061e-06	1041.7	250.59	2.023e-05	9.1292e-06	397.44	125.09	62.454	18.477	9.4122e-06	51.455	0.0013872	0.0014391	0.00039087	890.89	1.5832e-05	1.6236e-05	1161.2	287.66	1.6779e-05	1.718e-05	456.69	147.77	88.745	27.861	1.7836e-05	61.894	57.287	291.003	128.772	60.552	176.426	309.126	60.332	64.149	60.330	384.069	64.090	69.328	68.891	74.440	285.012	75.103	-8191	255	
7611.697	1	1	0	0	0.32106	0.10416	0.1444	0.24108	0.098859	0.39458	0.44238	0.16373	0.17675	0.27479	0.085929	0.11938	0.33611	0.098092	0.031488	0.089868	-1.6271	-1.9771	-1.6167	-2.2938	-1.8917	-1.7625	-2.3542	-1.8792	-1.8583	-1.9771	-1.8083	-2.3104	-1.9625	-1.7042	-2.1229	-1.8833	171.717	50.834	253.878	315.313	372.819	335.819	303.085	395.488	54.229	144.356	85.660	105.984	337.573	92.114	94.550	276.811	0.0014824	0.00061957	0.00020417	772.2	9.8146e-06	6.0138e-06	1048.4	248.59	7.3314e-06	2.7708e-06	396.68	124.11	62.851	18.286	2.8414e-06	51.627	0.0017074	0.0017122	0.00046412	925.88	1.9542e-05	1.9145e-05	1192.7	297.72	1.9836e-05	1.9358e-05	466.34	151.68	91.773	28.386	1.8541e-05	62.582	73.418	79.502	164.798	60.340	237.046	361.364	60.201	64.581	290.212	383.421	64.025	69.817	68.529	74.321	390.744	75.294	-8191	255	
7611.817	1	1	0	0	0.17576	0.19616	0.28206	0.34582	0.13122	0.28723	0.22907	0.26748	0.026534	0.23871	0.29779	0.11591	0.086267	0.11513	0.1302	0.20909	-1.5083	-2.2083	-1.5667	-2.0812	-2.0187	-1.8875	-2.4708	-1.6208	-1.7396	-2.0958	-1.6479	-2.0312	-2.0104	-1.7354	-2.2792	-1.9542	113.599	165.606	258.523	405.425	127.696	52.543	52.904	389.254	161.924	189.909	88.985	356.910	85.461	274.481	174.001	364.595	0.00098744	0.00070675	0.00019246	771.82	4.6705e-06	1.0735e-05	1037.6	247.72	9.72e-06	8.7109e-06	393.69	124.74	62.491	18.355	6.468e-06	51.71	0.0017816	0.0017042	0.00046466	926.13	1.9346e-05	1.8361e-05	1181.1	296.36	1.9059e-05	1.8134e-05	459.84	150.56	89.786	27.624	1.7609e-05	62.778	106.617	73.049	206.619	60.522	230.045	361.315	60.196	64.367	371.242	61.364	63.908	69.681	68.477	74.853	197.998	75.192	-8191	255	
7611.913	1	1	0	0	0.16289	0.28204	0.13599	0.21614	0.27701	0.1085	0.24482	0.052372	0.27988	0.14708	0.2509	0.070817	0.1894	0.25782	0.25648	0.1568	-1.4083	-2.0729	-1.5896	-2.0292	-1.9875	-1.6208	-2.4125	-1.9729	-1.9583	-2.3083	-1.7667	-2.0167	-1.9167	-1.6458	-2.2208	-2.0563	245.702	386.555	91.906	140.988	80.522	375.457	395.210	68.327	180.906	300.745	370.859	155.831	94.612	355.743	152.653	359.601	0.00086027	0.00065668	0.00033665	767.07	3.9373e-06	4.2465e-06	1034.6	246.75	1.0072e-05	5.2045e-06	395.54	124.72	62.283	18.389	8.8597e-06	51.723	0.0016762	0.0016087	0.00044438	920.03	1.8219e-05	1.7431e-05	1169.3	294.01	1.7969e-05	1.7293e-05	456.41	150.47	87.656	27.128	1.7108e-05	62.608	49.015	143.294	112.736	60.479	265.509	231.075	60.573	64.357	55.662	185.154	64.370	69.963	68.876	74.659	215.216	75.419	-8191	255	
7612.010	1	1	0	0	0.023997	0.19026	0.10405	0.35786	0.1448	0.13988	0.08208	0.23554	0.22592	0.085195	0.23261	0.14574	0.085146	0.087664	0.10982	0.19451	-1.1104	-2.1937	-1.8458	-1.8292	-2.0771	-1.5042	-2.2562	-2.0521	-1.7729	-2.4083	-1.8458	-1.9021	-2.1333	-1.725	-2.1229	-2.2042	185.466	349.731	163.689	380.580	305.447	296.512	295.158	266.679	130.266	210.962	373.760	184.788	99.473	158.455	364.355	201.110	0.0012693	0.00043197	0.00025598	771.39	2.5918e-06	1.3909e-06	1039.9	246.89	1.3193e-05	6.6936e-06	393.39	125.36	62.02	18.516	1.7111e-05	51.937	0.0015837	0.0015368	0.0004369	918.08	1.7223e-05	1.6596e-05	1167.8	293.18	1.6942e-05	1.648e-05	455.79	149.87	85.904	26.805	1.7067e-05	62.171	83.031	161.367	124.240	60.384	56.293	104.737	60.500	64.255	313.491	251.150	64.059	69.655	68.902	74.759	278.433	75.486	-8191	255	
7612.081	1	1	0	0	0.18126	0.12193	0.22826	0.20426	0.11245	0.21117	0.057337	0.04281	0.26406	0.10662	0.22903	0.24738	0.17597	0.28188	0.14211	0.25033	-1.3188	-2.2375	-1.625	-2.0521	-2.3583	-1.6146	-2.2	-2.0542	-1.6812	-2.2125	-1.75	-1.9104	-2.2812	-1.7854	-2.0875	-2.05	316.061	287.665	387.732	374.248	140.720	269.645	95.041	354.316	236.187	188.934	323.446	66.247	191.364	288.154	203.897	371.719	0.00090199	0.00055355	0.00031971	773.32	9.8564e-06	4.8611e-06	1034.8	247.89	2.8528e-06	4.9385e-06	395.32	124.53	62.014	18.387	7.264e-06	51.646	0.0014973	0.0014692	0.00043417	908.97	1.6155e-05	1.5866e-05	1166.7	290.87	1.598e-05	1.5671e-05	454.92	147.14	84.269	26.35	1.6908e-05	60.973	80.653	235.085	121.277	60.046	125.071	160.596	60.383	64.241	354.014	278.295	63.899	69.663	68.650	74.791	192.422	75.292	-8191	255	
7612.177	1	1	0	0	0.07132	0.13756	0.11584	0.14242	0.18244	0.11045	0.35279	0.24317	0.31639	0.20702	0.045128	0.25013	0.12207	0.053605	0.097071	0.22814	-1.2854	-2.2313	-1.85	-1.8104	-2.1917	-1.7646	-2.2146	-2.1646	-1.6688	-2.2438	-1.7583	-1.8563	-2.3458	-1.6917	-2.1042	-2.1479	96.289	155.265	193.758	78.841	344.502	124.417	342.693	362.638	310.983	398.697	79.954	66.289	291.612	314.256	343.132	382.101	0.0007739	0.00055055	0.00031138	767.41	8.8119e-06	9.0273e-06	1033	245.41	8.2472e-06	1.0499e-05	391.7	125.6	62.322	18.538	4.058e-06	51.978	0.0014238	0.0014249	0.00043202	896.42	1.5695e-05	1.5707e-05	1162.7	286.19	1.5709e-05	1.5977e-05	456.79	147.11	84.267	26.742	1.7168e-05	60.933	51.483	91.842	108.714	60.368	189.737	102.707	60.077	64.059	193.612	255.925	64.538	69.751	69.172	74.857	99.033	75.315	-8191	255	
7612.298	1	1	0	0	0.13245	0.058335	0.14322	0.19076	0.18044	0.0026527	0.17444	0.13221	0.25316	0.3843	0.043958	0.21438	0.2359	0.27937	0.30201	0.012028	-1.1646	-2.1833	-2.0479	-1.6667	-2.2	-1.7687	-2.0625	-2.2583	-1.5021	-2.1312	-2.0458	-1.9125	-2.2646	-1.7125	-1.8375	-2.3292	127.698	238.046	213.378	213.989	362.495	385.008	256.018	216.160	103.848	172.740	80.453	360.660	387.612	359.976	67.167	309.540	0.0013458	0.0025423	0.00020623	781.68	1.2596e-05	6.9388e-06	1045.3	250.11	1.1931e-05	7.5583e-06	398.05	125.89	62.947	18.655	1.0229e-05	51.73	0.0014096	0.0014668	0.00043142	899.86	1.5427e-05	1.6183e-05	1173.1	289.65	1.5415e-05	1.6394e-05	458.08	146.48	84.544	27.045	1.6883e-05	60.795	102.861	163.258	289.603	60.282	277.434	163.816	60.374	64.140	330.748	231.954	64.278	69.884	69.160	74.786	60.371	75.495	-8191	255	
7612.394	1	1	0	0	0.16086	0.18806	0.14698	0.23074	0.16365	0.099591	0.19458	0.3541	0.15808	0.13993	0.15672	0.12837	0.10664	0.26837	0.21681	0.11248	-1.0708	-2.1875	-2.0375	-1.875	-2.1479	-1.6917	-2.1333	-2.2104	-1.7396	-2.0687	-2.1167	-1.675	-2.3417	-1.7729	-1.6375	-2.325	106.825	287.635	209.554	358.187	65.779	90.905	328.616	347.037	244.234	332.012	53.826	360.475	107.565	118.017	214.799	380.524	0.001041	0.0011769	0.0001715	768.16	1.6223e-05	1.3909e-05	1038.1	247.4	5.0653e-06	5.8871e-06	397.27	126.25	62.327	18.621	1.1865e-05	52.642	0.0014201	0.0015363	0.00043146	893.47	1.5767e-05	1.7021e-05	1165.7	287	1.5819e-05	1.7018e-05	455.79	147.04	84.895	27.438	1.6545e-05	61.295	62.062	113.601	270.681	60.499	218.490	205.675	60.252	64.258	183.921	209.105	64.062	69.717	69.075	74.796	343.857	75.409	-8191	255	
7612.490	1	1	0	0	0.44884	0.076398	0.25425	0.36764	0.20556	0.39795	0.39635	0.23102	0.081054	0.1773	0.14465	0.36454	0.10511	0.078742	0.082145	0.32877	-1.2917	-2.1792	-2.2167	-1.8583	-2.2021	-2.1396	-1.8146	-2.3771	-1.7938	-2.0125	-2.1854	-1.8104	-2.0708	-1.9042	-1.8208	-2.3229	143.599	289.557	260.406	321.656	223.639	291.897	307.317	205.512	340.389	339.594	178.406	394.686	198.150	200.069	153.954	63.124	0.0012327	0.00097783	0.00014761	762.16	6.1139e-06	5.3292e-06	1030.1	246.31	2.3514e-05	3.4275e-06	395.21	126.46	62.565	18.574	5.7732e-06	52.696	0.0014432	0.0015548	0.00042013	885.86	1.5994e-05	1.6946e-05	1152.1	284.1	1.6044e-05	1.7013e-05	450.62	145.89	84.807	27.307	1.5954e-05	61.099	65.347	157.250	266.446	60.411	138.146	122.879	59.954	64.402	171.920	141.630	64.143	69.615	68.710	75.219	83.581	75.347	-8191	255	
7612.609	1	1	0	0	0.29334	0.14573	0.029384	0.15641	0.13027	0.30102	0.011661	0.17209	0.058398	0.1511	0.10147	0.1933	0.1256	0.16128	0.27662	0.22304	-1.3729	-1.9167	-2.2188	-1.7083	-2.0708	-2.0896	-1.6521	-2.3521	-1.8188	-2.0021	-2.2125	-1.7583	-2.1667	-2.0229	-1.6542	-2.2417	147.520	119.922	308.109	347.365	83.654	164.270	184.394	103.873	140.596	101.197	390.021	111.929	401.964	326.651	136.887	56.483	0.00069982	0.00087509	0.00034417	758.63	1.0742e-05	5.5138e-06	1026	245.39	2.5024e-05	6.399e-06	392.87	125.46	62.702	18.579	9.1206e-06	52.544	0.001475	0.001523	0.00040514	879.91	1.6409e-05	1.6652e-05	1141.8	282.6	1.6473e-05	1.6478e-05	448.79	145.2	85.626	26.983	1.5754e-05	61.065	62.270	126.581	54.975	60.204	203.153	47.879	60.458	64.465	195.756	149.750	64.131	69.813	69.051	74.951	341.098	75.518	-8191	255	
7612.683	1	1	0	0	0.2354	0.018128	0.23262	0.27835	0.15471	0.3739	0.25356	0.29557	0.10183	0.18084	0.12195	0.27063	0.14719	0.12795	0.19122	0.023692	-1.5417	-1.8	-2.175	-1.7271	-2.0646	-1.975	-1.6375	-2.2167	-2.1375	-1.9771	-2.2542	-1.8292	-2.1021	-2.0333	-1.5208	-2.1562	236.209	383.589	334.170	334.448	159.832	138.451	356.993	371.883	396.713	290.435	201.315	342.561	179.463	148.302	320.498	274.907	0.0010995	0.0011759	0.0003076	761.3	1.2001e-05	5.7927e-06	1025.1	244.86	1.3574e-05	6.5748e-06	393.38	126.49	62.477	18.633	1.6955e-05	53.002	0.0015127	0.0014894	0.00039995	880.11	1.6731e-05	1.6191e-05	1141.1	283.39	1.6786e-05	1.598e-05	446.28	146.21	85.878	26.823	1.5431e-05	61.659	76.263	102.817	341.770	60.529	204.880	164.080	60.573	64.625	202.470	283.675	64.018	69.893	69.037	74.379	77.040	75.656	-8191	255	
7612.779	1	1	0	0	0.1791	0.2542	0.33761	0.090458	0.13983	0.23829	0.2813	0.048893	0.038518	0.098419	0.062456	0.17364	0.26213	0.36403	0.16117	0.26003	-1.5229	-1.5646	-2.0375	-1.8604	-1.9625	-2.1271	-1.5562	-2.2104	-1.9333	-1.7062	-2.2958	-1.7938	-2.0625	-2.2083	-1.6229	-2.3333	83.262	356.994	384.355	278.112	196.260	326.842	360.267	122.646	73.169	96.648	404.521	120.799	47.803	371.032	382.090	357.216	0.00088919	0.00065908	0.00037167	755.48	9.6999e-06	6.5452e-06	1021.6	242.22	1.0993e-05	3.3308e-06	392.8	126.39	61.829	18.66	1.499e-05	53.266	0.0015106	0.0014341	0.00039284	880.73	1.6559e-05	1.5645e-05	1132.4	282.94	1.6599e-05	1.5558e-05	444.16	147.32	85.007	26.582	1.5389e-05	62.406	84.794	71.769	120.990	60.506	137.475	70.646	60.351	64.307	214.810	49.642	64.192	69.964	68.812	74.732	321.846	75.457	-8191	255	
7612.898	1	1	0	0	0.24712	0.089525	0.17888	0.23295	0.26359	0.17973	0.12876	0.092135	0.16056	0.076374	0.25039	0.27213	0.30583	0.1303	0.052723	0.18251	-1.5854	-1.7958	-2.4625	-1.7521	-2.0083	-2.2854	-1.8521	-2.1667	-1.8771	-1.525	-2.4396	-1.9854	-2.0187	-2.1958	-1.5875	-2.0625	357.511	392.007	261.722	393.898	326.473	361.530	355.863	333.175	327.014	343.816	394.775	314.639	342.294	320.196	113.956	350.027	0.0010798	0.00069006	0.00014547	757.24	3.8187e-06	6.1595e-06	1027.1	244.22	5.6503e-06	5.191e-06	391.16	126.37	62.123	18.796	6.9244e-06	53.272	0.0014777	0.0014078	0.00039106	885.32	1.627e-05	1.5582e-05	1136.4	285.69	1.6178e-05	1.5533e-05	445.97	148.74	84.729	26.581	1.5635e-05	62.579	76.217	271.214	342.920	60.337	86.994	110.046	60.475	64.223	65.104	274.011	64.292	69.809	68.919	75.399	244.823	75.518	-8191	255	
7612.994	1	1	0	0	0.37836	0.24126	0.16219	0.36159	0.21004	0.24404	0.13841	0.35883	0.13533	0.090344	0.15258	0.36048	0.19832	0.17635	0.20372	0.25523	-1.8937	-1.6083	-2.1021	-1.9833	-1.6833	-2.2667	-1.8417	-1.8937	-2.0333	-1.6792	-2.1583	-1.9937	-1.6625	-2.2896	-1.8292	-2.1667	377.336	137.684	245.572	361.890	52.162	171.863	364.234	387.480	109.292	206.443	341.129	345.622	371.689	49.473	296.066	73.297	0.00064891	0.00084385	0.00018595	760.53	3.8668e-06	6.5452e-06	1023.8	244.71	7.52e-06	9.1829e-06	391.56	125.62	61.872	18.852	3.0579e-05	52.947	0.0014466	0.0013983	0.00040008	889.63	1.5699e-05	1.5217e-05	1140.3	285.99	1.5624e-05	1.5194e-05	446.96	147.78	83.647	26.417	1.606e-05	62.205	94.339	146.011	160.596	60.737	308.062	133.148	60.421	64.343	261.605	196.778	64.529	69.861	68.761	74.540	231.127	75.457	-8191	255	
7613.090	1	1	0	0	0.09043	0.18847	0.23532	0.10837	0.30716	0.1308	0.04807	0.19439	0.057045	0.083596	0.20373	0.35264	0.018223	0.072967	0.18669	0.23745	-1.6417	-1.6375	-1.9896	-2.15	-1.9271	-2.0208	-2.0667	-1.8771	-2.0187	-1.5604	-2.1583	-2.1021	-1.725	-2.1375	-1.9479	-1.8583	400.709	106.915	339.288	367.919	383.339	100.376	330.985	343.040	376.432	98.288	395.598	280.706	140.147	65.153	392.517	312.155	0.00084489	0.00041752	0.00022171	753.3	3.2708e-06	8.3327e-06	1024.8	243.7	1.0727e-06	3.9104e-06	394.07	125.76	62.576	18.766	9.0686e-06	53.328	0.0014008	0.0013746	0.00041072	884.22	1.5349e-05	1.5045e-05	1143.8	284.94	1.536e-05	1.5105e-05	451.33	147.49	83.508	26.395	1.653e-05	62.062	85.686	79.057	139.676	60.439	130.301	144.591	60.476	64.400	264.967	164.223	64.318	69.314	68.721	74.671	306.211	75.300	-8191	255	
7613.186	1	1	0	0	0.16237	0.21693	0.033703	0.095503	0.11149	0.30989	0.41852	0.15253	0.19833	0.20739	0.13755	0.12042	0.22667	0.13852	0.19359	0.024248	-1.8521	-1.7417	-1.9396	-2.0625	-1.7833	-2.0729	-1.9104	-1.9271	-2.2083	-1.6229	-2.2917	-2.1833	-1.6729	-2.2458	-1.8979	-1.9417	88.330	184.819	285.530	377.234	77.643	53.018	367.519	373.716	400.121	178.003	64.715	207.563	357.663	282.238	256.748	131.701	0.00070826	0.0011373	0.0001676	755.64	4.8188e-06	1.1959e-05	1025.8	244.41	2.5312e-06	1.1395e-05	393.76	127.19	62.814	18.991	1.2919e-05	53.207	0.0013847	0.001385	0.00042209	881.91	1.5131e-05	1.5235e-05	1150.3	283.91	1.5165e-05	1.5356e-05	453.74	147.05	83.621	26.736	1.6756e-05	61.929	98.232	159.882	299.424	60.583	143.061	168.068	60.257	64.241	327.766	185.854	64.418	69.782	69.024	75.471	261.319	75.362	-8191	255	
7613.282	1	1	0	0	0.2075	0.20701	0.18396	0.082004	0.10722	0.052986	0.27548	0.16548	0.18938	0.2233	0.28259	0.13395	0.24936	0.12343	0.15369	0.13262	-1.7062	-1.7375	-2.0104	-2.1063	-1.6562	-2.0521	-2.2313	-1.6917	-2.2104	-1.9875	-1.95	-2.2292	-1.7604	-1.9458	-2.1354	-1.8375	203.275	202.998	336.962	121.773	307.636	395.143	378.959	390.541	200.803	223.329	394.410	264.948	403.978	396.079	369.022	145.745	0.00079653	0.0012639	0.0001951	759.44	4.4267e-06	1.1928e-05	1027.3	244.4	7.5056e-06	9.9499e-06	394.47	127.54	62.721	19.12	1.0824e-05	53.393	0.0013799	0.0014412	0.00042324	880.67	1.5085e-05	1.5922e-05	1151.1	282.89	1.507e-05	1.6113e-05	453.48	147.1	83.49	27.251	1.6569e-05	62.102	106.994	128.053	128.204	60.444	207.301	188.800	60.571	64.225	220.565	216.168	64.460	69.552	68.884	75.143	331.278	75.392	-8191	255	
7613.378	1	1	0	0	0.10994	0.1514	0.062961	0.37704	0.096218	0.16639	0.26064	0.16271	0.20061	0.20074	0.19421	0.22826	0.19386	0.21275	0.14357	0.078874	-1.8354	-1.825	-1.8229	-2.2333	-1.7125	-2.1229	-2.3083	-1.6792	-2.1333	-1.9062	-2	-2.5646	-1.6667	-1.9417	-2.2896	-1.8792	269.579	325.969	167.155	265.777	380.257	276.135	345.315	113.018	58.168	395.876	77.562	361.958	47.979	236.683	244.315	352.493	0.0015996	0.0010545	0.00037896	749.01	1.0107e-05	4.1285e-06	1012	242.57	4.2543e-06	1.1008e-05	391.22	125.86	62.364	18.985	5.7253e-06	53.804	0.0013776	0.0014914	0.00041884	872.68	1.5219e-05	1.6526e-05	1139.1	281.02	1.5504e-05	1.6864e-05	448.79	146.38	83.98	27.602	1.6446e-05	62.11	99.204	190.651	269.200	60.329	94.036	141.120	60.304	64.132	386.744	240.988	63.951	69.830	68.789	74.722	341.951	75.158	-8191	255	
7613.499	1	1	0	0	0.20223	0.070655	0.10002	0.12499	0.29229	0.19864	0.30708	0.19848	0.18741	0.28169	0.43136	0.29792	0.21252	0.14253	0.17328	0.12337	-1.8188	-2.0167	-1.6167	-2.3542	-1.6583	-1.8917	-2.3688	-1.7521	-2.2479	-1.8167	-1.7563	-2.3917	-1.6521	-1.9646	-1.9396	-1.6833	390.050	74.014	284.339	365.098	104.742	404.751	384.859	269.233	283.406	154.668	377.409	362.392	98.260	106.251	81.891	116.722	0.0014632	0.00057632	5.7993e-05	752.59	4.7163e-06	5.8631e-06	1011.6	243.65	1.1047e-05	6.1225e-06	390.75	126.34	62.406	18.974	6.9837e-06	53.699	0.0014264	0.0015544	0.00041366	873.94	1.597e-05	1.7024e-05	1134.9	281.63	1.6081e-05	1.7052e-05	448.92	146.54	85.356	27.659	1.6134e-05	62.173	84.046	61.465	399.990	60.445	379.173	322.963	60.364	64.342	182.564	378.505	64.140	69.989	69.387	74.992	267.027	75.446	-8191	255	
7613.595	1	1	0	0	0.17783	0.12612	0.10589	0.052691	0.073646	0.38597	0.22317	0.18092	0.076795	0.17843	0.12053	0.16313	0.10755	0.066592	0.099768	0.28337	-1.6542	-1.9104	-1.7917	-2.1937	-1.7896	-1.7313	-2.2208	-1.8146	-2.1458	-2.0271	-1.9625	-2.3583	-1.8333	-1.9021	-2.0563	-1.7375	372.018	247.894	359.047	146.393	301.134	108.796	288.690	190.674	383.052	90.618	357.521	95.075	68.321	357.538	74.575	269.787	0.0012525	0.0012188	0.00019942	751.33	1.3138e-05	5.1802e-06	1016.5	244.26	1.5992e-05	4.7648e-06	390.66	126.8	62.517	19.171	1.3043e-05	54.128	0.0014957	0.0015512	0.00041052	874.32	1.6697e-05	1.6881e-05	1137.8	282.5	1.6827e-05	1.6821e-05	447.45	147.37	86.432	27.654	1.6078e-05	62.676	111.581	152.287	258.344	60.563	153.929	160.521	60.600	64.488	174.376	187.338	63.954	69.659	68.781	74.953	158.129	75.431	-8191	255	
7613.690	1	1	0	0	0.2317	0.22976	0.21183	0.13792	0.063101	0.12502	0.15357	0.048092	0.044539	0.1137	0.18503	0.28223	0.23295	0.25437	0.2102	0.14687	-1.5208	-1.9479	-1.4625	-2.2583	-1.8292	-1.7271	-2.45	-1.6646	-2.2	-2.0792	-1.725	-2.2896	-1.8875	-1.7188	-2.4625	-2.0583	240.470	65.486	270.448	163.140	120.593	242.252	341.607	330.927	57.890	242.604	362.617	353.907	85.606	319.462	97.010	64.031	0.0010902	0.00033707	0.00010804	750.73	1.0228e-05	1.1572e-05	1018.8	245.07	2.2925e-06	6.7187e-06	392.57	126.56	62.891	18.94	1.0046e-05	53.882	0.0015415	0.0015127	0.00040601	875.64	1.6988e-05	1.6348e-05	1135.7	283.72	1.705e-05	1.6331e-05	446.55	147.33	86.58	27.099	1.5735e-05	62.667	100.277	209.596	133.477	60.303	127.064	391.345	60.411	64.751	262.244	326.172	63.978	69.729	68.867	75.248	285.501	75.480	-8191	255	
7613.786	1	1	0	0	0.095713	0.09021	0.26322	0.37047	0.14968	0.062122	0.070058	0.18924	0.15768	0.17605	0.15747	0.20717	0.07737	0.077766	0.19903	0.075162	-1.6667	-2.1479	-1.65	-2.3187	-2.0333	-1.7625	-2.4333	-1.9396	-1.8042	-2.1875	-1.7062	-2.2188	-2.0625	-1.6458	-2.0792	-1.8479	223.338	136.522	254.879	379.266	94.692	162.398	333.356	194.043	364.606	235.174	396.733	58.046	338.771	351.542	246.091	104.573	0.00052914	0.00079077	0.00026923	746.47	8.4135e-06	5.2139e-06	1010.6	242.92	4.7844e-06	2.2269e-06	391.52	126.24	61.561	18.93	1.9799e-05	53.36	0.0015385	0.00146	0.00039754	876.84	1.6804e-05	1.5806e-05	1125	282.82	1.663e-05	1.5768e-05	443.21	147.33	85.349	26.834	1.5616e-05	62.667	405.366	123.750	188.981	60.467	104.223	176.050	60.255	64.385	322.417	370.585	64.188	69.568	68.429	75.152	229.369	75.351	-8191	255	
7613.906	1	1	0	0	0.24785	0.20813	0.19465	0.10914	0.30595	0.17021	0.040154	0.21184	0.28406	0.28621	0.15974	0.28398	0.22314	0.15737	0.098034	0.29125	-1.4917	-2.2042	-1.6146	-2.1521	-2.1063	-1.6479	-2.275	-1.8563	-1.8604	-2.1583	-1.9792	-2.2542	-2.2771	-1.5146	-2.1188	-1.9458	115.890	71.532	107.653	71.232	369.270	86.815	272.293	319.209	203.211	273.409	46.543	336.946	275.930	277.796	385.922	131.395	0.00082487	0.0011107	0.00033154	744.55	5.5128e-06	4.5648e-06	1007.2	241.94	1.109e-05	3.9782e-06	387.25	126.26	61.378	18.987	1.3622e-05	53.721	0.0014951	0.0014307	0.0003966	880.68	1.6401e-05	1.5636e-05	1125.1	284.31	1.6276e-05	1.5637e-05	442.98	148.47	84.647	26.722	1.584e-05	63.334	81.243	63.354	260.806	60.474	81.754	92.171	60.164	64.344	265.494	134.019	64.369	69.539	68.729	75.273	239.991	75.084	-8191	255	
7613.978	1	1	0	0	0.12094	0.11253	0.15815	0.0702	0.10232	0.40127	0.15671	0.19211	0.075003	0.053441	0.24512	0.038651	0.2517	0.20886	0.17025	0.14983	-1.3833	-2.1083	-1.5521	-2.1646	-2.0521	-1.7458	-2.3417	-2.0646	-1.7917	-2.3521	-1.725	-2.0729	-2.325	-1.5917	-2.1646	-1.9312	389.474	400.198	110.846	392.456	63.746	75.773	145.351	77.240	214.661	60.245	315.958	309.490	234.538	136.006	392.747	379.342	0.0010199	0.00066429	0.00024593	745.65	6.2109e-06	2.5732e-06	1007.6	241.66	1.2708e-05	6.6414e-06	390.94	126.27	62.267	19.015	1.9969e-05	54.006	0.0014603	0.0014199	0.00040778	879.37	1.599e-05	1.5461e-05	1129.2	283.94	1.5896e-05	1.5457e-05	447.31	148.81	84.148	26.686	1.6436e-05	63.502	104.339	97.104	154.744	60.389	364.682	180.414	60.424	64.634	229.333	81.830	64.584	69.822	69.146	74.948	280.618	75.553	-8191	255	
7614.074	1	1	0	0	0.17903	0.10947	0.19813	0.15379	0.31818	0.060058	0.10741	0.32934	0.08948	0.086966	0.21695	0.34383	0.16341	0.12231	0.068873	0.2979	-1.2333	-2.2771	-1.7604	-1.9917	-2.2333	-1.7208	-2.2271	-2.0521	-1.7021	-2.2417	-1.8229	-1.9292	-2.0563	-1.5458	-2.2979	-1.9937	141.653	125.178	139.708	351.816	141.710	198.046	77.749	394.719	386.489	262.866	365.180	328.007	61.994	319.488	100.347	359.929	0.0014907	0.00080182	6.7803e-05	742.88	4.2881e-06	8.6702e-06	1009.2	240.82	5.1608e-06	1.0712e-05	390.37	127.24	62.248	18.951	5.2408e-06	54.011	0.0014328	0.0014057	0.0004221	878.44	1.5754e-05	1.5455e-05	1136.3	283.27	1.5757e-05	1.5619e-05	451.03	148.65	84.224	26.922	1.7168e-05	63.474	87.982	51.263	195.729	60.365	127.729	263.960	60.446	64.198	296.100	316.287	64.152	69.893	69.198	75.044	306.147	75.281	-8191	255	
7614.170	1	1	0	0	0.075609	0.092634	0.16208	0.32537	0.16564	0.33725	0.14529	0.17627	0.22441	0.36698	0.096039	0.044819	0.32804	0.23523	0.24087	0.12825	-1.1521	-2.3729	-1.8083	-1.8667	-2.0729	-1.5958	-2.1437	-2.2188	-1.7042	-2.225	-1.8333	-1.7687	-2.1604	-1.7396	-1.6979	-2.1937	181.879	152.616	222.680	50.381	245.105	228.857	157.988	198.924	185.073	332.396	223.762	54.901	351.271	352.139	115.705	248.823	0.0012071	0.00080837	0.00010256	750.04	9.8294e-06	1.1952e-05	1014	242.36	3.1838e-05	6.7997e-06	391.32	125.29	61.289	18.903	4.5003e-06	53.562	0.0014426	0.0014519	0.00044262	880.41	1.5966e-05	1.61e-05	1148	283.4	1.5874e-05	1.6219e-05	454.17	147.47	84.07	27.239	1.7519e-05	62.68	80.257	370.792	162.343	60.286	323.308	231.355	60.538	64.554	162.954	214.276	64.183	69.636	69.034	75.349	223.375	75.232	-8191	255	
7614.266	1	1	0	0	0.18193	0.15271	0.3064	0.24449	0.34261	0.111	0.38289	0.20246	0.31946	0.090043	0.090853	0.087676	0.096661	0.10991	0.30669	0.23781	-1.2354	-1.975	-2.0833	-1.7542	-2.1104	-1.9292	-1.9708	-2.1375	-1.6271	-2.0583	-1.95	-1.7646	-2.2979	-1.925	-1.85	-2.0604	216.091	184.392	365.306	48.204	92.221	347.166	374.320	396.666	162.114	65.527	383.559	97.376	226.162	58.014	222.393	248.848	0.00081767	0.0010818	0.00026731	745.17	3.9131e-06	1.0615e-05	1012.7	241.65	1.1263e-05	4.852e-06	389.97	126.17	61.404	19.062	8.1446e-06	53.752	0.001449	0.0015251	0.00045113	877.37	1.6054e-05	1.6902e-05	1146.5	283.44	1.6246e-05	1.7288e-05	455.51	148.17	84.637	27.996	1.7829e-05	63.373	61.548	185.507	183.241	60.164	98.026	210.328	60.422	64.576	158.055	182.891	64.235	69.855	69.150	75.125	86.669	75.325	-8191	255	
7614.387	1	1	0	0	0.080751	0.21458	0.33119	0.10777	0.16692	0.14487	0.014899	0.06122	0.24064	0.13802	0.1797	0.11502	0.19205	0.11417	0.11773	0.37198	-1.2958	-2.0604	-1.8854	-1.8479	-2.2417	-1.8146	-1.7792	-2.1208	-1.6854	-2.0167	-2.2375	-1.6771	-2.2062	-1.7792	-1.8479	-2.3438	404.601	141.873	370.078	69.555	130.186	242.139	154.156	143.573	115.423	356.954	136.063	293.191	109.584	366.191	220.450	398.948	0.00060544	0.00083634	0.00019146	742.93	4.2327e-06	5.7737e-06	1002	240.24	2.1609e-05	5.2701e-06	385.48	126.04	62.188	18.901	1.256e-05	54.247	0.0014987	0.001626	0.00045762	877.53	1.6794e-05	1.8155e-05	1143.6	282.74	1.6935e-05	1.8283e-05	454.49	148.79	86.013	28.493	1.7814e-05	63.96	84.258	183.293	154.790	60.597	109.848	144.871	60.365	64.283	160.003	165.945	64.197	70.096	69.188	74.757	114.119	75.795	-8191	255	
7614.483	1	1	0	0	0.013674	0.2182	0.34081	0.12828	0.18756	0.23854	0.24869	0.087549	0.18829	0.18677	0.28562	0.44367	0.20722	0.18287	0.19917	0.062787	-1.2354	-1.9083	-2.1729	-1.3792	-2.2167	-1.9708	-1.8813	-2.1979	-1.7604	-1.9188	-2.1312	-1.5833	-2.0625	-1.8208	-1.6958	-2.4562	395.921	393.374	184.917	281.567	145.316	145.033	323.713	224.901	293.306	48.849	344.627	300.242	389.552	92.762	91.259	310.782	0.0017414	0.00053044	7.6258e-05	737.34	7.0473e-06	7.4565e-06	1003.9	238.81	1.6194e-05	5.6866e-06	387.92	126.5	62.062	19.176	1.9266e-06	54.758	0.001562	0.0016641	0.00044854	871.98	1.713e-05	1.8165e-05	1134.2	281.2	1.7139e-05	1.7981e-05	450.23	148.49	86.407	28.444	1.705e-05	63.873	67.806	127.816	202.795	60.352	131.023	234.451	60.430	64.311	137.565	55.649	64.401	70.040	69.630	74.417	173.867	75.316	-8191	255	
7614.579	1	1	0	0	0.24154	0.12357	0.15331	0.21406	0.20531	0.069395	0.07635	0.22433	0.11557	0.16496	0.083302	0.28503	0.075419	0.32371	0.046316	0.22932	-1.1604	-1.875	-2.0521	-1.8208	-1.9979	-2.0812	-1.7583	-2.3875	-1.7271	-1.8417	-2.2854	-1.8188	-1.9979	-2.1271	-1.7458	-2.0896	225.248	224.910	291.707	65.414	383.210	229.069	161.750	357.296	372.047	322.706	372.032	93.467	142.909	359.539	357.509	321.794	0.0008626	0.0011691	0.00028923	737.58	7.8313e-06	9.9454e-06	999.77	239.62	2.6709e-05	8.0217e-06	386.47	126.81	62.011	18.96	6.3459e-06	54.793	0.0015814	0.0016285	0.00043541	869.53	1.7419e-05	1.767e-05	1129.1	280.5	1.759e-05	1.7502e-05	447.62	148.13	86.916	28.005	1.6684e-05	63.661	61.777	335.819	70.290	60.372	274.112	364.942	60.337	64.622	142.971	132.649	64.435	69.980	69.097	74.765	105.163	75.250	-8191	255	
7614.676	1	1	0	0	0.16991	0.15318	0.059682	0.48517	0.034733	0.11631	0.22608	0.094338	0.074938	0.12772	0.091938	0.2361	0.11439	0.23735	0.17655	0.22488	-1.2646	-1.6792	-2.2292	-1.5771	-2.0708	-2.0396	-1.8229	-2.0938	-1.8646	-1.6771	-2.1146	-1.8521	-1.9167	-2.0333	-1.6167	-2.1792	385.853	152.774	335.443	307.076	100.435	63.626	365.520	383.365	56.492	107.838	212.488	353.404	134.750	406.353	241.618	396.021	0.00084146	0.0005086	0.00010626	738.79	1.5427e-06	9.4567e-06	997.42	239.05	2.757e-05	2.3454e-06	384.69	126.41	60.99	18.942	1.0041e-05	54.5	0.0015848	0.0015641	0.00042335	866.81	1.7521e-05	1.696e-05	1120.1	280.04	1.7627e-05	1.6817e-05	443.84	147.96	86.288	27.556	1.6283e-05	63.767	103.999	192.045	270.676	60.727	359.818	312.161	60.385	64.520	152.696	150.389	64.394	69.625	68.761	75.345	213.055	75.645	-8191	255	
7614.770	1	1	0	0	0.28152	0.18427	0.061681	0.15739	0.094143	0.073843	0.20081	0.088849	0.26214	0.2617	0.23476	0.045145	0.15561	0.14816	0.1205	0.30643	-1.45	-1.4813	-2.1333	-1.6437	-2.0417	-2.2062	-1.6771	-2.1917	-2.1146	-1.6354	-2.3979	-1.7729	-2.0521	-2.2125	-1.6146	-2.2417	258.632	72.557	377.195	293.830	375.201	217.163	369.370	101.882	225.937	108.718	325.191	222.875	79.023	86.973	53.723	360.001	0.00093999	0.00071556	0.00019077	732.3	1.578e-06	3.6857e-06	991.8	237.3	2.8114e-05	6.4696e-06	384.19	126.05	61.333	18.975	1.2152e-05	54.404	0.001582	0.0015148	0.00041236	865.87	1.7311e-05	1.6435e-05	1114	280.3	1.7189e-05	1.6402e-05	441.25	148.83	85.695	27.237	1.6166e-05	64.006	70.648	391.751	325.503	60.636	110.245	221.212	60.588	64.441	348.385	222.874	64.171	70.377	68.973	74.778	228.331	75.522	-8191	255	
#DATA ENDS
