BOXY.EXE: ISS Imagent and Oximeter Data Acquisition Program Version 0.80
Ascii Record File

#ACQ INFORMATION
2  Detector Channels 
16  External MUX Channels 
1  Auxiliary Channels 
5000  Waveform (CCF) Frequency (Hz)
1  Waveforms Skipped 
30  Waveforms Averaged 
1  Cycles Averaged 
16  Acquisitions per Waveform 
10.0806  Updata Rate (Hz) 

#FILE INFORMATION
TRUE -- External MUX Channel results are PARSED.
FALSE -- AC DC and Phase are NOT grouped.
TRUE -- Companion Program Settings File CREATED.
FALSE -- AC data not excluded
FALSE -- DC data not excluded
FALSE -- Phase data not excluded
FALSE -- Auxillary Chn. data not excluded
Tab delimiters

#CALIBRATION STATE
TRUE -- Waveform Calibration Values APPLIED.


#AUX CALIBRATION VALUES
Val Type	aux-1	

Term	1.0000e+00	
Factor	0.0000e+00	


#WF CALIBRATION VALUES
A = Detector Channel
Val Type	A-AC1	A-AC2	A-AC3	A-AC4	A-AC5	A-AC6	A-AC7	A-AC8	A-AC9	A-AC10	A-AC11	A-AC12	A-AC13	A-AC14	A-AC15	A-AC16	A-DC1	A-DC2	A-DC3	A-DC4	A-DC5	A-DC6	A-DC7	A-DC8	A-DC9	A-DC10	A-DC11	A-DC12	A-DC13	A-DC14	A-DC15	A-DC16	A-Ph1	A-Ph2	A-Ph3	A-Ph4	A-Ph5	A-Ph6	A-Ph7	A-Ph8	A-Ph9	A-Ph10	A-Ph11	A-Ph12	A-Ph13	A-Ph14	A-Ph15	A-Ph16	

Term	0.00000e+00	0.00000e+00	0.00000e+00	0.00000e+00	0.00000e+00	0.00000e+00	0.00000e+00	0.00000e+00	0.00000e+00	0.00000e+00	0.00000e+00	0.00000e+00	0.00000e+00	0.00000e+00	0.00000e+00	0.00000e+00	0.00000e+00	0.00000e+00	0.00000e+00	0.00000e+00	0.00000e+00	0.00000e+00	0.00000e+00	0.00000e+00	0.00000e+00	0.00000e+00	0.00000e+00	0.00000e+00	0.00000e+00	0.00000e+00	0.00000e+00	0.00000e+00	0.00000e+00	0.00000e+00	0.00000e+00	0.00000e+00	0.00000e+00	0.00000e+00	0.00000e+00	0.00000e+00	0.00000e+00	0.00000e+00	0.00000e+00	0.00000e+00	0.00000e+00	0.00000e+00	0.00000e+00	0.00000e+00	
Factor	1.00000e+00	1.00000e+00	1.00000e+00	1.00000e+00	1.00000e+00	1.00000e+00	1.00000e+00	1.00000e+00	1.00000e+00	1.00000e+00	1.00000e+00	1.00000e+00	1.00000e+00	1.00000e+00	1.00000e+00	1.00000e+00	1.00000e+00	1.00000e+00	1.00000e+00	1.00000e+00	1.00000e+00	1.00000e+00	1.00000e+00	1.00000e+00	1.00000e+00	1.00000e+00	1.00000e+00	1.00000e+00	1.00000e+00	1.00000e+00	1.00000e+00	1.00000e+00	X	X	X	X	X	X	X	X	X	X	X	X	X	X	X	X	

B = Detector Channel
Val Type	B-AC1	B-AC2	B-AC3	B-AC4	B-AC5	B-AC6	B-AC7	B-AC8	B-AC9	B-AC10	B-AC11	B-AC12	B-AC13	B-AC14	B-AC15	B-AC16	B-DC1	B-DC2	B-DC3	B-DC4	B-DC5	B-DC6	B-DC7	B-DC8	B-DC9	B-DC10	B-DC11	B-DC12	B-DC13	B-DC14	B-DC15	B-DC16	B-Ph1	B-Ph2	B-Ph3	B-Ph4	B-Ph5	B-Ph6	B-Ph7	B-Ph8	B-Ph9	B-Ph10	B-Ph11	B-Ph12	B-Ph13	B-Ph14	B-Ph15	B-Ph16	

Term	0.00000e+00	0.00000e+00	0.00000e+00	0.00000e+00	0.00000e+00	0.00000e+00	0.00000e+00	0.00000e+00	0.00000e+00	0.00000e+00	0.00000e+00	0.00000e+00	0.00000e+00	0.00000e+00	0.00000e+00	0.00000e+00	0.00000e+00	0.00000e+00	0.00000e+00	0.00000e+00	0.00000e+00	0.00000e+00	0.00000e+00	0.00000e+00	0.00000e+00	0.00000e+00	0.00000e+00	0.00000e+00	0.00000e+00	0.00000e+00	0.00000e+00	0.00000e+00	-2.02558e+02	-1.16413e+02	-1.30120e+02	-1.82161e+02	-9.57707e+01	-1.01369e+02	-1.59306e+02	-1.62015e+02	-1.14350e+02	-5.77035e+01	-1.70639e+02	-1.72301e+02	-1.77500e+02	-1.76674e+02	-5.36760e+01	-1.49496e+02	
Factor	4.10936e-05	9.52974e-05	2.49006e-05	1.49428e-01	8.83243e-07	8.91524e-07	1.68800e-01	4.93801e-02	1.17695e-06	7.15398e-07	8.34437e-02	2.98807e-02	2.54106e-02	8.75613e-03	1.20421e-06	1.26828e-02	6.26555e-07	6.35961e-07	1.78841e-07	7.42432e-02	6.95763e-09	6.96690e-09	7.86376e-02	2.43642e-02	6.96256e-09	6.98071e-09	3.91092e-02	1.39300e-02	1.23175e-02	4.23067e-03	7.03845e-09	5.88851e-03	X	X	X	X	X	X	X	X	X	X	X	X	X	X	X	X	



#DISTANCE SETTINGS
A = Detector Channel
A-1	A-2	A-3	A-4	A-5	A-6	A-7	A-8	A-9	A-10	A-11	A-12	A-13	A-14	A-15	A-16	

2.5000e+00	3.0000e+00	2.5000e+00	3.0000e+00	2.0000e+00	3.0000e+00	1.5000e+00	3.0000e+00	3.0000e+00	3.0000e+00	3.0000e+00	3.0000e+00	3.0000e+00	3.0000e+00	1.5000e+00	3.0000e+00	

B = Detector Channel
B-1	B-2	B-3	B-4	B-5	B-6	B-7	B-8	B-9	B-10	B-11	B-12	B-13	B-14	B-15	B-16	

1.0000e+01	1.0000e+01	1.0000e+01	1.4400e+00	1.0000e+01	1.0000e+01	1.5100e+00	1.9400e+00	1.0000e+01	1.0000e+01	1.9900e+00	2.4900e+00	2.4100e+00	2.9000e+00	1.0000e+01	2.9800e+00	




#DATA BEGINS
time	group	step	mark	flag	A-AC1	A-AC2	A-AC3	A-AC4	A-AC5	A-AC6	A-AC7	A-AC8	A-AC9	A-AC10	A-AC11	A-AC12	A-AC13	A-AC14	A-AC15	A-AC16	A-DC1	A-DC2	A-DC3	A-DC4	A-DC5	A-DC6	A-DC7	A-DC8	A-DC9	A-DC10	A-DC11	A-DC12	A-DC13	A-DC14	A-DC15	A-DC16	A-Ph1	A-Ph2	A-Ph3	A-Ph4	A-Ph5	A-Ph6	A-Ph7	A-Ph8	A-Ph9	A-Ph10	A-Ph11	A-Ph12	A-Ph13	A-Ph14	A-Ph15	A-Ph16	B-AC1	B-AC2	B-AC3	B-AC4	B-AC5	B-AC6	B-AC7	B-AC8	B-AC9	B-AC10	B-AC11	B-AC12	B-AC13	B-AC14	B-AC15	B-AC16	B-DC1	B-DC2	B-DC3	B-DC4	B-DC5	B-DC6	B-DC7	B-DC8	B-DC9	B-DC10	B-DC11	B-DC12	B-DC13	B-DC14	B-DC15	B-DC16	B-Ph1	B-Ph2	B-Ph3	B-Ph4	B-Ph5	B-Ph6	B-Ph7	B-Ph8	B-Ph9	B-Ph10	B-Ph11	B-Ph12	B-Ph13	B-Ph14	B-Ph15	B-Ph16	aux-1	digaux	

7590.858	1	1	0	256	0.3506	0.1642	0.27787	0.16388	0.1922	0.2439	0.18293	0.14992	0.18595	0.2148	0.14744	0.19891	0.10068	0.11764	0.24941	0.15882	-1.3646	-2.1188	-1.9458	-1.8479	-2.0708	-1.9708	-1.9833	-2.0792	-1.7146	-1.7896	-2.0292	-1.4083	-2.0812	-2.0229	-1.6812	-2.2375	396.975	257.364	387.430	376.926	168.057	102.755	399.707	361.697	362.289	130.576	381.835	329.018	147.302	101.870	313.335	376.947	0.0014323	0.00023851	0.00018539	826.65	1.4215e-05	1.6947e-05	1154.4	230.2	1.1449e-05	3.1654e-06	388.73	122.17	56.518	18.292	8.6868e-06	53.906	0.0015339	0.0016927	0.00044291	949.74	1.6754e-05	1.8268e-05	1274	270.86	1.6841e-05	1.8009e-05	449.24	143.71	81.361	27.671	1.6586e-05	62.579	85.225	174.972	248.256	60.547	188.297	121.108	60.638	64.906	150.935	183.448	64.874	70.708	70.400	75.496	242.998	75.849	-8191	255	
7590.979	1	1	0	0	0.17539	0.33577	0.04298	0.17502	0.094554	0.18013	0.081213	0.17831	0.22106	0.20588	0.15689	0.13798	0.25618	0.18961	0.17543	0.21925	-1.1792	-1.9125	-2.1292	-1.6458	-2.1	-1.8792	-1.6667	-2.4292	-1.75	-1.8917	-2.325	-1.6042	-1.9917	-2.1125	-1.5854	-2.2	168.309	116.793	134.500	364.267	218.968	47.955	322.142	384.828	343.322	376.173	118.064	381.190	381.904	78.953	353.432	361.597	0.0014606	0.00056882	0.00029119	830.31	1.378e-05	3.7658e-06	1165.4	231.84	1.5361e-05	4.2897e-06	393.04	124.59	57.46	18.267	2.3084e-06	54.202	0.0015612	0.0016148	0.00042317	949.19	1.7319e-05	1.7489e-05	1278.8	272.09	1.7305e-05	1.7187e-05	449.41	144.59	82.322	27.032	1.584e-05	62.716	88.129	79.030	307.923	60.728	157.648	296.704	60.551	64.683	183.050	355.367	64.745	70.535	70.104	75.915	163.116	76.112	-8191	255	
7591.051	1	1	0	0	0.26343	0.070239	0.26899	0.17216	0.089584	0.086224	0.21147	0.2135	0.48288	0.24881	0.27236	0.20944	0.20824	0.13444	0.21622	0.04322	-1.3729	-1.6208	-2.05	-1.7479	-1.7313	-1.9417	-1.675	-2.2333	-1.7792	-1.6729	-2.4188	-1.6437	-1.9208	-2.0979	-1.4896	-2.1729	218.948	223.427	100.027	217.081	85.494	375.999	396.302	371.216	202.834	195.879	376.656	72.195	70.971	314.420	130.463	161.884	0.0010597	0.001254	0.0001329	838	6.7436e-06	5.8366e-06	1167.5	234.95	1.9762e-05	5.8202e-06	397.9	125.69	57.279	18.54	4.0395e-06	54.964	0.0015587	0.0014997	0.00040047	952.67	1.6987e-05	1.6136e-05	1270.2	273.09	1.7071e-05	1.5924e-05	448.78	146.03	81.976	26.523	1.5126e-05	63.623	80.280	383.012	65.049	60.926	170.894	74.907	60.526	64.715	155.947	100.917	64.852	70.672	69.465	75.737	275.912	75.904	-8191	255	
7591.147	1	1	0	0	0.24725	0.31317	0.099096	0.32494	0.067521	0.19489	0.34647	0.18508	0.22809	0.26553	0.078371	0.090539	0.037082	0.16335	0.13083	0.15297	-1.2854	-1.425	-2.1458	-1.5479	-1.7	-2.0396	-1.4583	-2.0938	-1.875	-1.6646	-2.0875	-1.9646	-1.8104	-2.0875	-1.6313	-2.0667	307.674	125.001	283.781	77.240	229.656	139.697	317.628	247.491	397.584	52.256	56.886	160.294	143.991	274.124	174.595	48.167	0.0010293	0.00058872	6.8653e-05	828.41	8.7186e-06	8.8922e-06	1164.5	233.05	1.0448e-05	4.0765e-07	393.75	126.09	56.849	18.731	1.7556e-05	55.708	0.001527	0.0014036	0.00038254	945.83	1.6445e-05	1.5451e-05	1257.5	273.39	1.6504e-05	1.5273e-05	443.91	146.76	80.467	26.261	1.4867e-05	64.554	63.322	47.242	125.258	60.856	345.380	274.018	60.742	64.527	213.672	202.344	64.989	70.373	69.995	75.685	273.118	76.143	-8191	255	
7591.266	1	1	0	0	0.091235	0.037368	0.05968	0.10792	0.26901	0.21048	0.064986	0.13926	0.20097	0.23893	0.16543	0.50878	0.38677	0.097082	0.29151	0.076533	-1.6896	-1.5458	-2.0438	-1.7167	-1.7396	-2.1708	-1.7125	-2.0646	-1.9375	-1.5104	-2.3792	-1.8958	-1.8083	-2.1125	-1.6917	-2.0625	54.678	78.798	404.254	404.931	152.258	401.302	221.980	151.897	149.457	189.316	149.904	372.539	351.114	219.972	185.123	369.652	0.0010391	0.0012219	0.00030083	818.51	8.9347e-06	4.8937e-06	1149.9	227.66	8.3767e-06	5.8198e-06	391.07	126.97	56.607	18.69	1.8684e-05	56.79	0.0014633	0.0013741	0.00037805	942.98	1.5758e-05	1.4829e-05	1243.9	269.49	1.559e-05	1.4621e-05	440.49	148.31	78.676	26.09	1.4922e-05	65.596	71.375	59.812	156.083	60.590	381.680	160.864	60.568	64.842	337.320	247.393	64.843	70.780	69.716	75.809	231.276	76.127	-8191	255	
7591.362	1	1	0	0	0.21959	0.31754	0.15607	0.09161	0.09177	0.14654	0.18451	0.072109	0.023319	0.16755	0.052962	0.34549	0.088397	0.12351	0.10352	0.16477	-1.5792	-1.3438	-2.2521	-1.9562	-1.625	-2.0417	-1.8667	-1.95	-2.0604	-1.5854	-2.2958	-2.1	-1.5729	-2.1333	-1.6542	-1.9479	73.809	193.397	202.076	72.540	361.335	204.768	188.166	248.203	223.148	151.539	62.824	184.319	286.509	104.418	220.371	355.301	0.00083899	0.00070402	0.00026684	817.36	8.7422e-06	1.0952e-05	1159.4	231.26	1.4455e-05	7.8507e-06	395.75	128.44	57.97	19.061	2.4344e-05	56.76	0.0013966	0.0013223	0.00038564	947.16	1.5149e-05	1.4623e-05	1258.9	272.31	1.5179e-05	1.4583e-05	449.66	150.22	79.186	26.431	1.5974e-05	65.926	98.440	159.559	169.592	60.625	378.424	91.855	60.833	64.735	302.659	136.279	65.190	70.430	69.518	76.030	243.122	75.900	-8191	255	
7591.458	1	1	0	0	0.22352	0.059843	0.16848	0.22554	0.043427	0.24819	0.18277	0.2029	0.08216	0.30849	0.17038	0.26501	0.14311	0.063575	0.14891	0.21069	-1.7646	-1.5208	-1.9375	-1.95	-1.5833	-2.1146	-1.7563	-1.9479	-1.9667	-1.5917	-2.0271	-2.0062	-1.5667	-2.2125	-1.8146	-1.9188	52.334	283.849	304.667	99.485	381.942	163.504	193.055	387.684	192.382	254.464	242.347	93.644	276.581	49.788	242.125	338.045	0.0011587	0.0010417	0.0001505	825.48	2.2281e-06	3.4605e-06	1172.5	236.55	1.2628e-05	2.4292e-06	403.64	128.44	59.189	19.12	2.3162e-05	56.416	0.0013893	0.0013475	0.00041417	956.83	1.5145e-05	1.4898e-05	1284.7	277.58	1.5362e-05	1.4968e-05	461.93	150.27	80.482	26.617	1.7072e-05	65.331	100.870	217.917	203.527	60.690	314.554	135.768	60.511	64.566	148.815	295.150	64.758	70.262	69.737	75.361	197.451	75.698	-8191	255	
7591.554	1	1	0	0	0.14097	0.26775	0.083892	0.070744	0.037269	0.15148	0.23107	0.19154	0.202	0.21939	0.28413	0.14105	0.36499	0.113	0.14268	0.08096	-1.6437	-1.6	-1.8937	-2.1021	-1.7167	-2.2375	-1.9417	-1.6792	-2.0938	-1.6604	-2.0875	-2.2042	-1.6667	-2.1667	-1.8125	-2.0187	366.525	397.601	366.587	324.176	363.343	398.399	353.136	332.001	313.804	235.834	399.203	388.907	103.634	310.802	144.096	120.836	0.0013619	0.00042174	0.00010439	857.79	7.0618e-06	1.1523e-05	1190.7	243.6	9.7168e-06	9.9184e-06	408.38	128.99	59.975	18.99	1.3264e-05	55.428	0.0013997	0.0013984	0.00043563	980.07	1.5165e-05	1.5524e-05	1315.5	283.74	1.533e-05	1.5654e-05	469.01	149.82	81.167	26.945	1.6987e-05	63.789	71.748	394.945	125.516	60.572	104.748	216.660	60.463	64.805	148.783	212.768	64.859	70.432	69.358	75.790	201.666	75.879	-8191	255	
7591.675	1	1	0	0	0.19943	0.12947	0.2171	0.16267	0.063188	0.2433	0.37196	0.21783	0.21745	0.32914	0.096524	0.093633	0.13355	0.1513	0.19514	0.20146	-1.8875	-1.775	-1.7958	-2.2854	-1.5958	-1.975	-2.1542	-1.8479	-2.0375	-1.7542	-2.0625	-2.1312	-1.5417	-1.9417	-2.0042	-1.7979	193.200	97.920	81.799	202.896	159.879	379.576	296.763	199.483	247.428	298.885	383.045	205.654	74.355	118.658	283.764	346.477	0.00083329	0.00058745	6.3699e-05	864.9	3.7296e-06	6.9363e-06	1201.6	248.51	1.6352e-05	8.2498e-06	408.74	129.57	60.914	19.076	5.9007e-06	55.094	0.0013568	0.0014358	0.00042496	980.99	1.4703e-05	1.5845e-05	1316.6	284.69	1.4745e-05	1.5991e-05	467.41	148.78	81.231	27.241	1.6388e-05	63.126	69.240	87.315	343.000	60.429	381.120	136.812	60.497	64.724	166.343	275.051	64.434	70.190	69.370	75.768	155.336	75.641	-8191	255	
7591.746	1	1	0	0	0.23798	0.052996	0.19302	0.020171	0.14276	0.21909	0.46867	0.2745	0.061716	0.15234	0.26671	0.17599	0.12442	0.17275	0.056788	0.37817	-1.825	-1.7479	-1.7125	-2.1896	-1.625	-1.9333	-2.1125	-1.6875	-2.0083	-1.8979	-2.0938	-2.2208	-1.6667	-1.9688	-1.8354	-1.7708	212.231	240.107	200.959	304.623	174.892	232.241	366.443	360.272	199.694	111.233	364.787	392.668	51.391	239.623	376.896	345.915	0.0012257	0.0013935	0.00021825	874.64	9.1897e-06	1.0008e-05	1204.4	250.08	2.1893e-05	1.2563e-05	412.37	129.97	61.236	19.097	1.0162e-05	55.48	0.001343	0.001485	0.00041019	985.06	1.4749e-05	1.6352e-05	1311.2	285.58	1.4843e-05	1.6404e-05	464.5	148.07	81.693	27.449	1.5604e-05	62.89	93.927	137.049	116.514	60.272	185.716	185.271	60.578	64.750	145.983	252.911	64.791	70.251	69.726	75.344	137.808	75.727	-8191	255	
7591.842	1	1	0	0	0.080597	0.15643	0.18319	0.14311	0.14506	0.15337	0.26044	0.14825	0.066123	0.24164	0.22756	0.31966	0.2947	0.35498	0.22061	0.25399	-1.6187	-1.7062	-1.6688	-2.3563	-1.5938	-1.8167	-2.2313	-1.6521	-2.0583	-2.1896	-1.7938	-2.2896	-1.7354	-1.8312	-1.9	-1.6458	264.866	54.701	369.008	325.104	115.378	186.715	327.079	264.403	229.849	118.314	388.274	391.472	56.284	344.479	192.102	231.967	0.0011434	0.00078988	0.00018069	865.58	8.9863e-06	3.6598e-06	1199.5	247.93	2.6011e-05	5.4686e-06	411.68	129.11	61.544	19.135	3.5579e-06	56.06	0.0013542	0.0014956	0.00039143	973.15	1.5024e-05	1.6283e-05	1297.2	282.6	1.529e-05	1.6375e-05	461.35	147.63	82.926	27.392	1.5244e-05	63.289	81.855	94.842	267.617	60.397	179.692	314.351	60.299	64.153	207.021	111.960	64.758	70.204	69.710	75.462	118.780	75.824	-8191	255	
7591.939	1	1	0	0	0.05034	0.18232	0.10896	0.29269	0.097296	0.040305	0.1874	0.067528	0.076324	0.35965	0.3157	0.34118	0.19844	0.22849	0.021244	0.35952	-1.6771	-1.7396	-1.7458	-2.2771	-1.6479	-2.05	-2.4521	-1.8521	-2.0625	-2.0167	-1.7771	-2.3375	-1.8521	-1.7958	-2.2417	-1.5979	305.200	110.121	383.961	363.491	296.076	132.863	335.190	223.653	264.083	220.340	53.783	347.097	368.360	395.241	52.745	318.765	0.0016541	0.00074135	0.00017311	866.34	1.4671e-05	1.0394e-05	1196.7	249.27	1.5161e-05	6.0003e-06	410.88	130.16	61.323	19.185	1.049e-05	56.374	0.0014172	0.0014695	0.00038237	970.99	1.582e-05	1.5904e-05	1295.3	282.85	1.5939e-05	1.59e-05	459.84	148.27	84.208	27.251	1.4995e-05	63.745	87.578	81.701	403.850	60.575	176.139	386.524	60.374	64.435	188.868	71.823	64.758	70.106	69.709	75.759	133.276	75.988	-8191	255	
7592.057	1	1	0	0	0.074696	0.15923	0.099064	0.43774	0.20593	0.2116	0.17431	0.12816	0.33895	0.20844	0.21041	0.10708	0.17564	0.21949	0.24309	0.25541	-1.5917	-2.0458	-1.7646	-2.3167	-1.8312	-1.7437	-2.4313	-1.7188	-2.125	-1.8042	-2.0229	-2.3292	-1.9604	-1.7042	-2.2812	-1.95	140.283	119.186	301.840	382.365	230.805	229.638	225.824	113.600	372.928	97.961	310.343	47.165	264.919	165.411	180.396	360.741	0.0014439	0.0014142	3.96e-05	866.98	1.5952e-06	1.3655e-05	1192.7	248.88	1.4957e-05	4.6014e-06	409.33	129.69	61.142	19.283	1.5469e-05	56.237	0.0014766	0.0014282	0.0003751	974.31	1.6195e-05	1.5301e-05	1287.5	282.92	1.6071e-05	1.5108e-05	454.66	148.04	83.706	26.643	1.4536e-05	63.77	76.663	281.604	251.207	60.330	305.231	305.858	60.224	64.307	179.991	144.549	64.552	70.218	69.257	75.492	177.607	75.678	-8191	255	
7592.154	1	1	0	0	0.36851	0.24462	0.15106	0.19961	0.16913	0.025247	0.17215	0.23689	0.11646	0.12277	0.061113	0.27082	0.11261	0.13195	0.12284	0.22711	-1.4729	-2.3375	-1.5229	-2.3229	-1.8813	-1.8667	-2.3854	-1.7729	-1.9042	-2.1042	-1.6479	-2.1542	-1.9917	-1.6333	-2.4583	-1.9062	209.365	270.674	365.818	75.506	238.550	294.627	368.282	319.622	94.629	95.137	269.464	80.246	297.382	312.581	152.175	367.836	0.00099312	0.0014435	0.0001233	859.47	1.7615e-05	8.6873e-06	1188.7	246	1.2932e-05	2.9274e-06	409.43	129.8	60.782	19.32	2.4822e-06	56.74	0.0014491	0.0013615	0.00036704	971.81	1.5981e-05	1.4785e-05	1277.1	283.67	1.5889e-05	1.4919e-05	453.37	150.22	82.962	26.582	1.4449e-05	65.228	68.260	268.772	341.482	60.442	67.551	237.643	60.611	64.781	405.210	152.303	64.756	70.570	69.738	75.409	76.768	75.905	-8191	255	
7592.250	1	1	0	0	0.38571	0.07608	0.1835	0.10588	0.10009	0.10535	0.076162	0.12374	0.14066	0.041657	0.1617	0.19896	0.14588	0.09702	0.129	0.16243	-1.4625	-2.2333	-1.5938	-2.0417	-2.0042	-1.625	-2.4188	-1.9396	-1.8396	-2.2667	-1.7792	-1.9104	-1.9042	-1.6854	-2.3479	-2.0229	366.866	302.725	273.406	234.487	312.774	245.062	320.930	387.937	157.181	104.012	72.180	105.162	316.147	335.802	144.578	48.907	0.0011382	0.00025188	0.00031531	847.69	1.146e-05	1.7471e-05	1179.9	242.6	2.0666e-05	6.5623e-06	406.16	131.2	60.776	19.442	2.1774e-05	57.758	0.0014109	0.0013409	0.00036328	966.82	1.5446e-05	1.4451e-05	1267.9	281.77	1.5157e-05	1.4458e-05	452.29	151.27	81.705	26.444	1.4617e-05	66.136	78.777	105.476	185.336	60.758	313.299	168.255	60.449	64.673	49.401	388.365	64.842	70.429	69.176	75.483	283.276	75.647	-8191	255	
7592.346	1	1	0	0	0.32992	0.099127	0.23648	0.29267	0.11183	0.092249	0.41574	0.093851	0.19696	0.034025	0.25904	0.15799	0.24996	0.11002	0.16235	0.12196	-1.2938	-2.2708	-1.8021	-1.8833	-1.9625	-1.5063	-2.1562	-1.9917	-1.4021	-2.3625	-1.9667	-2.1021	-2.0229	-1.7604	-2.2458	-2.1021	369.794	245.795	195.997	59.176	95.526	317.706	376.099	48.923	184.591	209.245	350.251	287.687	61.825	375.834	338.874	248.833	0.0012217	0.00060524	0.00022829	842.65	9.5208e-06	1.6005e-06	1174.7	242.02	5.9237e-06	4.4609e-06	407.72	132.84	61.198	19.61	2.1282e-05	58.169	0.0013516	0.0012973	0.0003731	963.7	1.4775e-05	1.3995e-05	1268.9	281.04	1.4399e-05	1.3974e-05	455.78	151.9	80.508	26.331	1.5114e-05	66.252	87.346	211.359	122.962	60.378	315.448	86.244	60.427	64.639	162.101	134.051	65.075	70.390	69.295	75.564	226.454	75.661	-8191	255	
7592.442	1	1	0	0	0.28434	0.14407	0.2199	0.2399	0.10175	0.092776	0.18802	0.082546	0.13374	0.076154	0.1286	0.11752	0.36307	0.17965	0.20507	0.0053948	-1.2479	-2.1521	-1.85	-1.8708	-1.8729	-1.5896	-2.1333	-1.95	-1.7208	-2.1354	-2.0729	-1.9542	-2.1813	-1.6479	-2.0771	-1.8833	64.243	361.429	60.790	268.898	121.536	329.315	361.310	70.876	351.812	212.648	53.306	344.830	47.739	385.176	283.399	63.093	0.00081203	0.00078588	6.6624e-05	849.82	2.7056e-06	7.0903e-06	1179.1	244.65	1.4299e-05	3.1183e-06	413.16	133.46	61.788	19.705	1.8508e-05	58.838	0.0012909	0.0012664	0.00038678	961.76	1.4297e-05	1.3763e-05	1281.4	281.61	1.4109e-05	1.3912e-05	462.43	151.46	80.55	26.462	1.5486e-05	66.062	87.358	215.909	211.670	60.497	150.875	132.061	60.467	64.393	47.553	366.378	64.390	70.456	69.389	75.624	206.580	75.889	-8191	255	
7592.538	1	1	0	0	0.11857	0.088104	0.2308	0.31542	0.073701	0.11409	0.26263	0.1089	0.2207	0.12175	0.11734	0.24326	0.15522	0.32534	0.14675	0.10924	-0.98542	-2.1396	-1.7167	-1.7333	-2.2729	-1.6958	-2.0292	-1.9	-1.5833	-2.3021	-2.0333	-1.7625	-2.2146	-1.7458	-1.9396	-2.1375	300.534	362.692	149.096	367.299	152.296	319.584	405.918	257.704	167.449	151.775	177.647	93.235	156.048	79.220	83.191	363.110	0.0011495	0.00050581	0.00053865	847.89	1.4589e-06	1.4698e-05	1172.1	242.68	1.0652e-05	8.1393e-06	408.12	133.07	61.379	19.826	1.4364e-05	58.244	0.0012625	0.0012773	0.00039588	953.29	1.3891e-05	1.4037e-05	1280.5	278.29	1.3727e-05	1.4302e-05	461.91	149.89	80.158	26.821	1.5732e-05	65.512	90.935	160.728	132.535	60.333	373.847	169.591	60.547	64.602	132.875	90.198	64.871	70.511	69.648	75.531	134.824	75.554	-8191	255	
7592.659	1	1	0	0	0.16325	0.25436	0.068416	0.20362	0.34016	0.16426	0.22907	0.42851	0.13103	0.071784	0.097181	0.37081	0.37115	0.11857	0.32189	0.26552	-1.2125	-2.0354	-1.925	-1.7958	-2.1083	-1.6292	-2.0521	-2.3625	-1.5396	-2.0354	-2.1063	-1.6688	-2.1542	-1.875	-1.825	-2.2729	126.512	57.072	103.006	89.219	332.039	179.629	330.770	374.531	276.483	278.934	371.212	337.511	377.034	140.816	282.061	358.408	0.00092612	0.0014329	3.0337e-05	854.29	3.4982e-06	1.2745e-05	1182.4	244.89	1.154e-05	8.4404e-06	413.85	133.39	61.843	19.786	5.696e-06	59.074	0.0012605	0.0013478	0.000402	956.04	1.3964e-05	1.4976e-05	1288.2	280.32	1.3976e-05	1.5245e-05	464.49	150.43	80.704	27.476	1.5512e-05	65.926	84.286	233.281	328.507	60.649	167.287	171.137	60.322	64.763	376.531	185.820	64.864	70.327	69.555	75.652	103.694	75.689	-8191	255	
7592.755	1	1	0	0	0.15179	0.18371	0.21423	0.20213	0.30265	0.20814	0.15027	0.17875	0.21184	0.15557	0.20206	0.16722	0.11819	0.043888	0.10719	0.27694	-1.0458	-1.9813	-2.0125	-1.6979	-2.1771	-1.8625	-1.8083	-2.1542	-1.5604	-1.7958	-2.1083	-1.5312	-2.0875	-1.9604	-1.7625	-2.2062	64.703	103.400	329.785	375.227	231.418	155.411	385.582	365.360	159.885	133.036	381.729	210.882	148.089	272.476	279.157	367.800	0.0013889	0.0013666	0.00034563	847.01	6.4976e-06	1.4137e-05	1178.6	243.43	1.1481e-05	8.0977e-06	410.91	133.7	61.075	19.867	5.091e-07	59.459	0.0012604	0.001412	0.00039111	948.92	1.3974e-05	1.5401e-05	1273	276.5	1.3937e-05	1.5365e-05	459.01	149.56	79.834	27.565	1.4544e-05	65.968	94.323	155.850	179.216	60.593	216.838	144.910	60.536	64.621	177.458	284.486	64.599	70.462	68.892	75.773	74.026	75.593	-8191	255	
7592.851	1	1	0	0	0.24688	0.063512	0.25921	0.087198	0.088178	0.031445	0.23068	0.2553	0.25203	0.17568	0.16619	0.16288	0.18513	0.32212	0.12635	0.39542	-1.2167	-1.8771	-1.9729	-1.6208	-2.25	-1.8146	-1.8354	-2.3146	-1.6479	-1.9333	-2.2375	-1.7146	-1.9708	-1.9042	-1.7062	-2.1958	362.307	341.314	243.954	358.413	361.406	225.304	348.569	379.778	234.460	81.591	306.026	335.443	358.374	381.137	374.952	375.403	0.0013183	0.00079805	0.00026194	833.18	4.0101e-06	5.2523e-06	1165.2	238.93	1.4195e-05	5.2356e-06	407.12	133.78	60.663	19.955	7.2337e-06	60.494	0.0012705	0.0013889	0.00036769	926.83	1.4057e-05	1.5133e-05	1251.1	270.41	1.4088e-05	1.4911e-05	450.56	148.59	79.704	27.349	1.381e-05	66.323	88.414	71.519	397.773	60.644	184.851	104.967	60.475	64.566	203.770	126.923	64.842	70.386	69.582	75.478	164.816	75.760	-8191	255	
7592.947	1	1	0	0	0.12563	0.10141	0.17748	0.098403	0.24021	0.064434	0.37045	0.078413	0.29855	0.2784	0.22512	0.35846	0.1108	0.28175	0.10598	0.025725	-1.3354	-1.6979	-1.9958	-1.6771	-2.1542	-2.1479	-1.8979	-2.2854	-1.8083	-1.7917	-2.3146	-1.7396	-2.0312	-2.0167	-1.6292	-2.3292	145.296	127.187	388.964	305.811	312.107	108.983	323.643	72.796	127.314	140.789	395.966	391.050	100.697	197.637	153.995	354.158	0.0013538	0.00062181	0.00014413	823.06	1.0416e-05	6.4882e-06	1160.9	238.33	8.9896e-06	5.5361e-06	407.17	133.49	60.75	19.992	6.5424e-06	60.23	0.0012973	0.001328	0.00035142	912.38	1.4411e-05	1.4527e-05	1240.7	267.98	1.4429e-05	1.4301e-05	448	148.49	80.552	26.948	1.3362e-05	65.987	91.470	405.210	357.553	60.743	134.258	106.069	60.808	64.433	120.273	71.682	64.910	70.448	69.596	75.547	343.339	75.719	-8191	255	
7593.043	1	1	0	0	0.28123	0.21164	0.20214	0.17682	0.09952	0.1482	0.12315	0.22904	0.061237	0.14615	0.43265	0.21003	0.18502	0.17681	0.068067	0.38849	-1.5583	-1.7896	-2.2979	-1.7229	-1.925	-2.0958	-1.6938	-2.175	-1.7563	-1.7604	-2.3667	-1.7083	-1.8021	-1.9813	-1.5958	-2.0938	174.633	138.218	119.303	363.176	162.118	87.780	398.842	327.590	111.368	174.260	65.053	279.681	347.545	349.364	369.625	361.257	0.0010923	0.00073948	7.2757e-05	830.99	1.0559e-05	5.7115e-06	1161.8	239.1	4.6154e-06	4.2072e-06	407.3	133.72	60.834	19.751	7.2099e-06	59.301	0.0013114	0.0012644	0.00033898	918.51	1.4436e-05	1.378e-05	1239.6	269.9	1.4646e-05	1.3707e-05	446.01	148.52	80.995	26.436	1.3148e-05	65.58	71.903	197.349	298.010	60.691	218.737	95.557	60.936	64.393	162.505	133.836	64.769	70.631	69.310	75.516	217.236	75.647	-8191	255	
7593.138	1	1	0	0	0.12983	0.16818	0.1759	0.28742	0.1857	0.05784	0.36546	0.11671	0.083687	0.079424	0.064017	0.21796	0.11732	0.24458	0.15814	0.25886	-1.5583	-1.5958	-2.1354	-1.9271	-2.0104	-2.3875	-1.7646	-2.1896	-2.2	-1.8479	-2.3521	-1.7313	-1.6938	-2.15	-1.5333	-2.1646	235.090	64.037	96.720	366.856	164.910	184.583	327.365	343.608	130.688	205.797	332.575	373.588	84.435	57.826	81.989	320.891	0.00082619	0.0014676	0.0002584	839.89	6.5323e-06	9.7683e-07	1173.1	244.24	7.1105e-06	2.6445e-06	407.38	132.97	61.036	19.704	7.8611e-06	58.608	0.0013238	0.0012389	0.000336	940.78	1.4516e-05	1.3609e-05	1250.1	276.46	1.439e-05	1.3329e-05	447.62	149.74	80.458	26.13	1.2983e-05	65.342	77.535	343.911	50.449	60.434	115.257	183.234	60.523	64.708	329.326	187.291	64.687	70.338	69.383	75.498	260.610	75.760	-8191	255	
7593.234	1	1	0	0	0.20098	0.14772	0.13558	0.11298	0.095498	0.28412	0.3358	0.23769	0.20616	0.12071	0.067909	0.16454	0.058983	0.11825	0.27117	0.13402	-1.4833	-1.65	-2.1583	-2.0021	-1.8542	-2.1688	-1.8271	-2.2146	-2.0667	-1.6354	-2.1229	-1.9062	-1.7667	-2.2208	-1.6688	-2.0292	179.411	189.689	281.666	319.333	222.410	50.397	377.378	337.833	335.814	368.337	346.254	330.994	353.985	178.400	398.999	308.998	0.0010656	0.00068797	0.00025594	844.21	8.8231e-06	2.9881e-06	1172.3	244.54	1.5301e-05	4.7708e-06	411.19	133.22	60.632	19.601	6.355e-06	58.642	0.0012739	0.0011944	0.00033174	944.42	1.3781e-05	1.3087e-05	1247.7	277.46	1.3748e-05	1.3015e-05	447.69	149.8	79.278	25.878	1.319e-05	65.381	58.634	246.700	98.496	60.472	286.870	395.517	60.556	64.851	305.075	180.304	64.919	70.447	69.221	75.283	246.356	75.611	-8191	255	
7593.330	1	1	0	0	0.09142	0.14353	0.15579	0.30741	0.18432	0.13701	0.26426	0.23104	0.32657	0.095698	0.094073	0.11041	0.056291	0.14492	0.084621	0.21418	-1.6437	-1.475	-2.1417	-1.9458	-1.7542	-2.0833	-1.9417	-2.1729	-1.9833	-1.6146	-2.0917	-1.8708	-1.7208	-2.2562	-1.5438	-1.8271	257.952	228.515	98.833	346.439	165.560	176.392	406.619	333.447	96.824	195.078	387.847	124.212	168.889	292.357	75.532	383.241	0.0009888	0.00017611	0.00025964	837.33	1.8822e-06	3.8314e-06	1161.4	242.41	4.8168e-06	3.1117e-06	407.86	132.55	60.757	19.762	1.0638e-05	58.962	0.0012216	0.001164	0.00033861	940.79	1.3138e-05	1.2659e-05	1243.9	275.09	1.3139e-05	1.259e-05	447.29	149.13	77.921	25.684	1.3638e-05	65.619	73.684	221.530	175.975	60.557	94.023	90.318	60.500	64.641	370.928	101.055	65.123	70.443	69.865	75.906	243.315	75.830	-8191	255	
7593.451	1	1	0	0	0.055386	0.077861	0.20977	0.19579	0.11017	0.15007	0.29801	0.21267	0.18059	0.067455	0.095081	0.20837	0.20728	0.10222	0.059699	0.16158	-1.7021	-1.5292	-2.1125	-1.9771	-1.5	-2.1937	-1.9021	-1.7521	-2.2729	-1.5875	-2.0146	-1.9021	-1.4583	-2.0187	-1.7458	-1.75	183.435	330.939	200.695	132.040	252.588	238.857	355.897	324.666	377.637	88.453	389.468	390.641	364.651	138.098	269.586	100.285	0.0013981	0.00076164	0.00039097	836.78	1.8673e-06	7.0683e-06	1161.8	239.71	1.3541e-05	8.6389e-06	408.13	132.73	60.092	19.702	1.0718e-05	58.422	0.0011792	0.001144	0.00035226	934.29	1.2889e-05	1.2592e-05	1249	272.24	1.29e-05	1.2621e-05	449.89	148.36	76.978	25.763	1.4142e-05	64.922	88.657	127.543	149.496	60.451	338.015	181.724	60.354	64.816	78.760	305.872	64.734	70.274	69.756	75.238	261.321	75.962	-8191	255	
7593.547	1	1	0	0	0.10507	0.33953	0.057689	0.30528	0.18794	0.26898	0.078008	0.50173	0.20301	0.24772	0.27286	0.30396	0.21383	0.14689	0.4131	0.02722	-1.8312	-1.5479	-1.9	-2.0792	-1.4917	-2.1979	-2.0083	-1.6521	-2.175	-1.7375	-2.1063	-2.0438	-1.5917	-1.9583	-1.6604	-1.825	284.610	63.090	161.259	384.411	404.873	120.943	85.108	379.201	398.714	112.489	333.089	360.140	297.913	238.160	138.062	390.206	0.0014206	0.00057981	0.00030832	827.56	3.0261e-06	5.9968e-06	1163.4	240.29	9.759e-06	9.9712e-06	403.09	132.29	60.914	19.527	2.9746e-06	58.072	0.001166	0.0011621	0.00036137	923.1	1.263e-05	1.2924e-05	1251.1	270.76	1.2725e-05	1.312e-05	450.38	147.24	77.394	26.02	1.4442e-05	64.277	75.242	245.671	167.032	60.534	262.887	108.429	60.674	64.452	248.364	244.023	64.699	70.339	69.444	75.593	381.872	75.608	-8191	255	
7593.619	1	1	0	0	0.078861	0.16054	0.046179	0.046777	0.17384	0.15753	0.29218	0.30626	0.09536	0.1256	0.26827	0.066495	0.22657	0.11914	0.072914	0.17781	-1.7021	-1.5979	-1.9604	-2.2792	-1.55	-2.2146	-2.0687	-1.8833	-2.1	-1.5396	-1.8792	-2.2313	-1.5021	-2.0458	-1.7083	-1.5312	124.726	63.622	46.483	380.198	113.003	169.868	370.777	361.793	114.783	85.256	358.991	352.657	299.472	373.181	261.702	47.992	0.00088993	0.0015342	0.00025053	835.27	2.0507e-05	6.1824e-06	1168.1	241.75	1.6937e-05	5.7607e-06	406.52	132.11	61.167	19.685	1.1386e-05	57.973	0.0011635	0.0012379	0.00036472	927.26	1.2672e-05	1.3774e-05	1256.7	272.38	1.2895e-05	1.4069e-05	451.83	147.31	78.046	26.589	1.4345e-05	64.103	66.511	126.956	92.387	60.218	220.224	143.664	60.342	64.453	406.304	205.222	64.486	70.180	69.121	75.274	115.600	75.666	-8191	255	
7593.739	1	1	0	0	0.15104	0.31463	0.15769	0.033507	0.18106	0.27759	0.34316	0.27545	0.20921	0.16841	0.13643	0.24329	0.074336	0.15879	0.21569	0.28549	-1.6646	-1.6854	-1.65	-2.15	-1.6437	-2.0396	-2.2667	-1.5917	-2.2292	-1.7521	-1.6938	-2.1979	-1.8188	-1.9583	-2.0146	-1.7104	317.671	343.904	219.000	313.131	338.555	238.989	277.906	252.335	330.143	165.435	349.590	324.826	360.186	262.747	56.751	373.321	0.0013467	0.0012489	8.4593e-05	839.03	8.3481e-06	8.4612e-06	1167.4	243.14	1.768e-05	3.8233e-06	408.94	132.12	61.796	19.586	9.2266e-06	57.651	0.0011881	0.0013125	0.00036284	934.26	1.3096e-05	1.4534e-05	1256	273.3	1.3308e-05	1.4755e-05	451.93	146.89	79.201	26.842	1.4084e-05	63.742	80.668	106.486	361.170	60.434	172.940	192.612	60.259	64.487	168.262	271.789	64.729	70.170	69.412	75.841	82.713	75.470	-8191	255	
7593.835	1	1	0	0	0.12075	0.17558	0.14627	0.11617	0.26658	0.20442	0.3107	0.17805	0.10448	0.06861	0.23902	0.24335	0.059382	0.15271	0.15214	0.073856	-1.6875	-1.7354	-1.5583	-2.3438	-1.8896	-1.7563	-2.3458	-1.4688	-2.0458	-1.8729	-1.7708	-2.3083	-1.7521	-1.8188	-2.0417	-1.5792	96.903	360.117	289.744	371.348	179.854	197.454	341.709	353.383	56.630	356.528	46.857	55.717	286.711	284.034	293.478	324.088	0.0014345	0.00062598	0.00020058	850.04	1.3263e-05	4.5431e-06	1178	248.13	1.1191e-05	2.8599e-06	409.58	131.17	62	19.31	2.3198e-06	56.515	0.0012345	0.0013487	0.00035079	942.58	1.3652e-05	1.4579e-05	1261.6	276.69	1.3715e-05	1.4517e-05	451.29	145.77	80.55	26.408	1.365e-05	62.347	69.790	199.736	353.974	60.537	211.981	293.912	60.297	64.510	185.185	287.483	64.410	70.475	69.378	75.211	66.434	75.880	-8191	255	
7593.932	1	1	0	0	0.1037	0.28758	0.055982	0.10006	0.15358	0.10173	0.23968	0.077614	0.1342	0.050952	0.2759	0.022872	0.2733	0.15131	0.15189	0.25925	-1.5875	-1.8	-1.6063	-2.1875	-1.6458	-1.7125	-2.2625	-1.6625	-2.1708	-2.0938	-1.8646	-2.1875	-1.9958	-1.6458	-2.1562	-1.6583	369.981	397.701	116.911	377.579	109.278	347.446	328.685	162.963	151.515	262.602	237.662	91.364	48.542	292.736	83.652	337.815	0.0011196	0.00012945	0.00024336	854.61	5.7732e-06	3.1049e-06	1165.7	246.53	1.3462e-05	4.1794e-06	406.6	130.11	61.261	19.161	6.6191e-06	55.971	0.0012752	0.0013145	0.00034335	942.93	1.4166e-05	1.4152e-05	1253.2	275.93	1.4354e-05	1.4153e-05	446.42	145	81.099	26.052	1.3497e-05	62.134	68.948	347.909	292.492	60.397	180.738	365.070	60.403	64.528	152.083	394.495	64.525	69.981	69.182	74.822	351.327	75.453	-8191	255	
7594.028	1	1	0	0	0.2473	0.090214	0.087845	0.24621	0.079394	0.076778	0.20363	0.12855	0.37346	0.078112	0.16619	0.35088	0.12795	0.1712	0.066145	0.11998	-1.55	-1.9937	-1.5708	-2.3187	-1.9104	-1.6458	-2.4042	-1.5917	-2.0625	-1.8979	-1.6562	-2.1521	-1.8604	-1.8937	-2.0375	-1.8062	402.095	66.441	114.505	399.716	368.763	251.322	351.009	364.871	106.114	132.104	51.369	403.520	97.358	260.461	200.229	403.472	0.0010752	0.00024576	0.00033893	849.85	1.5542e-05	7.2114e-06	1159.6	243.83	1.1317e-05	4.567e-06	404.26	129.83	60.506	19.082	1.726e-05	56.433	0.00132	0.0012786	0.00033977	942.27	1.461e-05	1.3822e-05	1242	274.36	1.4615e-05	1.3805e-05	443.18	145.74	80.48	25.81	1.3294e-05	63.098	89.558	153.266	76.702	60.505	171.707	95.944	60.521	64.615	86.445	367.604	64.526	70.146	69.008	75.008	296.971	75.564	-8191	255	
7594.148	1	1	0	0	0.2084	0.079679	0.29012	0.074087	0.062472	0.14998	0.039117	0.14128	0.12885	0.073998	0.18407	0.12017	0.11956	0.092056	0.12232	0.091922	-1.5938	-2.0354	-1.4229	-2.2042	-1.8333	-1.8167	-2.3063	-1.8333	-1.8708	-2.0354	-1.7208	-2.1854	-1.8312	-1.6646	-2.1646	-1.7021	252.731	246.831	256.292	390.427	248.720	140.758	359.018	380.343	370.782	167.675	350.277	373.928	251.097	130.011	56.466	65.509	0.0012889	0.00050322	0.00022598	838.58	5.3702e-06	6.0137e-06	1161.3	244.04	1.726e-05	3.3129e-06	402.72	129.24	59.776	18.877	1.2314e-05	56.342	0.0013229	0.0012367	0.00033642	940.41	1.4504e-05	1.3485e-05	1239.3	275.74	1.4253e-05	1.349e-05	441.05	146.07	79.525	25.375	1.3215e-05	63.349	82.676	290.895	102.382	60.252	279.845	369.854	60.300	64.442	390.202	353.834	64.446	70.196	69.628	75.236	348.082	75.915	-8191	255	
7594.220	1	1	0	0	0.3502	0.26698	0.10538	0.12755	0.073139	0.20214	0.18437	0.3685	0.29552	0.31391	0.37018	0.11062	0.22384	0.057733	0.079593	0.30189	-1.4792	-2.1583	-1.425	-2.2375	-1.9021	-1.7917	-2.3375	-2.1167	-1.9479	-2.3104	-1.8146	-2.0625	-2.0583	-1.6333	-2.1979	-1.8771	83.529	374.982	292.933	284.944	380.829	262.501	273.060	134.529	146.624	89.739	311.810	113.547	58.179	365.803	148.037	383.775	0.001117	0.00062895	0.0001197	835.24	3.9004e-06	1.2956e-05	1153.4	237.13	9.9196e-06	6.0888e-06	400.06	130.23	59.284	19.312	8.6035e-06	57.633	0.0012764	0.0012229	0.00033641	937.58	1.4032e-05	1.3177e-05	1230.4	273.23	1.3906e-05	1.3289e-05	440.55	147.55	78.504	25.701	1.3727e-05	65.055	68.880	288.957	165.604	60.340	267.690	151.942	60.317	64.843	330.294	89.819	64.674	70.228	69.225	75.565	286.110	75.640	-8191	255	
7594.339	1	1	0	0	0.068825	0.0068421	0.13952	0.138	0.21808	0.21023	0.27573	0.44039	0.17373	0.09248	0.26781	0.12313	0.012333	0.046428	0.23776	0.22825	-1.1437	-2.125	-1.6042	-1.9146	-2.2062	-1.5625	-2.2375	-2.0375	-1.8083	-2.2562	-1.8521	-1.9729	-2.2625	-1.5146	-2.1979	-2.0646	288.457	383.200	216.478	318.668	53.490	69.243	371.699	369.159	188.832	231.172	321.344	389.700	147.140	338.711	175.255	391.638	0.001037	0.00015863	0.00012712	826.61	1.0507e-06	7.9749e-06	1149.2	238.78	9.7479e-06	3.3989e-06	400.28	129.17	59.007	18.978	2.4383e-05	56.447	0.0012593	0.0012159	0.00035204	934.76	1.3798e-05	1.3091e-05	1237.2	273.74	1.3564e-05	1.3115e-05	443.95	146.46	77.537	25.286	1.4044e-05	63.652	103.103	95.141	220.675	60.441	349.740	302.501	60.567	64.072	184.043	298.830	64.829	70.512	69.251	75.108	214.182	75.628	-8191	255	
7594.435	1	1	0	0	0.1581	0.18434	0.19919	0.040614	0.2461	0.44456	0.2127	0.30494	0.29778	0.38074	0.1403	0.20412	0.15294	0.30007	0.17579	0.089738	-1.0292	-2.1521	-1.6833	-1.9521	-2.1188	-1.5479	-2.1729	-2.0333	-1.6187	-2.2812	-1.9083	-1.7646	-2.275	-1.7104	-2.0042	-2.1146	95.968	311.930	344.233	116.781	57.608	341.481	70.089	205.942	271.578	58.065	327.859	301.141	374.998	387.769	80.650	180.791	0.00071708	0.00073595	0.00011414	820.84	6.0973e-06	1.3399e-05	1132.6	230.77	1.2131e-05	8.9063e-06	393.65	129.8	58.008	19.966	6.26e-06	59.688	0.0012058	0.0011824	0.00036096	923.65	1.3276e-05	1.2917e-05	1224	264.78	1.3241e-05	1.3156e-05	440.71	147.27	76.621	26.16	1.4927e-05	66.387	67.206	71.052	111.030	60.290	199.081	72.669	60.566	64.671	269.333	200.630	64.911	70.337	69.648	75.817	230.746	75.781	-8191	255	
7594.531	1	1	0	0	0.17288	0.29251	0.1146	0.28925	0.19747	0.16017	0.18129	0.21163	0.2034	0.086035	0.13713	0.26892	0.19777	0.088632	0.15703	0.20508	-1.2062	-2.0833	-1.7333	-1.8646	-2.2396	-1.6375	-2.1479	-2.1333	-1.5396	-2.2292	-2.0479	-1.7563	-2.4125	-1.7167	-1.875	-2.3354	119.402	158.025	105.385	384.655	284.456	376.819	340.796	390.119	219.780	111.240	391.174	47.299	279.477	128.137	110.166	390.818	0.0010494	0.0013809	0.00021854	808.49	8.5825e-06	1.8607e-05	1134.6	234.59	1.9037e-05	8.171e-06	396.95	130.65	58.506	19.675	2.6773e-06	58.995	0.0012389	0.0012538	0.00038599	912.85	1.3693e-05	1.3824e-05	1236.1	267.5	1.3594e-05	1.4141e-05	447.77	147.35	77.141	26.633	1.5161e-05	65.726	81.662	158.110	88.964	60.375	206.866	152.208	60.681	64.739	339.655	181.025	64.891	70.480	69.304	75.618	93.481	75.830	-8191	255	
7594.627	1	1	0	0	0.20654	0.32263	0.064174	0.11694	0.065086	0.3341	0.3705	0.25054	0.15907	0.20464	0.10702	0.34244	0.18184	0.22155	0.19499	0.23653	-1.0979	-2.1562	-1.975	-1.8021	-2.3958	-1.7875	-2.0479	-2.2583	-1.6792	-1.9229	-2.0521	-1.8479	-2.3271	-1.6104	-1.8729	-2.2125	296.447	264.219	196.382	285.892	150.557	175.522	311.979	364.776	239.485	257.207	362.270	354.739	386.198	84.400	105.265	396.894	0.0013907	0.0019956	0.00011694	800.8	4.061e-06	1.3819e-05	1129.4	232.54	6.6086e-06	1.2179e-05	394.69	130.88	58.897	19.763	1.0336e-05	58.788	0.0012198	0.0013123	0.00038582	906.34	1.3474e-05	1.4544e-05	1231.9	265.69	1.3568e-05	1.4801e-05	447.16	147.2	77.662	27.123	1.5155e-05	65.64	63.571	162.194	275.521	60.831	76.167	180.844	60.367	64.635	160.068	190.070	64.850	70.665	70.162	75.826	80.389	76.103	-8191	255	
7594.748	1	1	0	0	0.24061	0.16479	0.20598	0.16215	0.10154	0.25813	0.46116	0.22113	0.09321	0.20344	0.22537	0.10263	0.14895	0.13085	0.13747	0.20648	-1.1958	-1.9833	-1.85	-1.9396	-2.0729	-1.6896	-2.0146	-2.2687	-1.6979	-2.0687	-2.2208	-1.5167	-2.0958	-1.9229	-1.8021	-2.1562	152.024	242.382	249.814	402.641	314.582	186.978	317.965	264.289	380.484	160.329	292.168	319.853	313.656	101.675	245.685	362.293	0.0013038	0.0015668	0.00036997	816.43	1.1824e-05	2.2641e-05	1148.1	236.01	4.1431e-06	6.0274e-06	398.6	131.89	60.54	19.733	9.3347e-06	59.603	0.0012662	0.0013946	0.00038791	921.15	1.4129e-05	1.5526e-05	1245.8	270.48	1.4304e-05	1.5703e-05	449.96	148.69	79.852	27.645	1.4902e-05	66.195	96.911	212.299	389.243	60.344	169.576	150.357	60.508	64.830	173.335	197.036	64.644	70.555	69.597	75.767	139.554	75.877	-8191	255	
7594.844	1	1	0	0	0.051387	0.15216	0.13928	0.067559	0.24101	0.28552	0.28053	0.15058	0.12329	0.25675	0.16704	0.1943	0.25212	0.27594	0.066199	0.077253	-1.3333	-1.9979	-1.8396	-1.775	-2.0687	-1.9813	-2.0167	-2.3396	-1.5187	-2.0312	-2.1042	-1.7333	-2.0646	-1.9021	-1.7667	-2.2833	234.253	202.840	322.353	366.454	83.562	55.718	330.699	51.525	62.173	208.782	78.559	114.382	89.148	267.332	106.529	351.000	0.0014791	0.00078734	0.00024293	813.13	1.3782e-06	1.0402e-06	1136.5	233.45	1.4012e-05	4.4775e-06	398.56	131.51	59.121	19.858	6.448e-06	59.32	0.001321	0.0014308	0.00037909	916.36	1.4682e-05	1.5575e-05	1233.5	268.15	1.4688e-05	1.547e-05	447.17	147.63	80.021	27.536	1.4473e-05	65.885	90.775	150.961	106.118	60.462	350.595	313.569	60.336	64.530	189.140	87.934	64.667	70.717	69.522	75.610	145.669	75.841	-8191	255	
7594.916	1	1	0	0	0.318	0.044178	0.14436	0.20221	0.062094	0.21577	0.26562	0.05985	0.12399	0.22666	0.1185	0.23635	0.32797	0.11943	0.043302	0.20214	-1.2938	-1.7437	-2.1437	-1.7375	-1.9771	-1.8958	-1.7667	-2.2292	-1.6354	-1.8937	-2.2542	-1.8083	-1.8604	-2.0979	-1.3667	-2.3125	185.716	107.845	181.979	371.751	236.480	324.363	345.314	350.701	311.002	138.059	285.600	336.875	362.500	177.756	153.995	299.725	0.0017086	0.00027766	0.00021487	807.36	3.5836e-06	8.1105e-06	1125.6	231.47	2.1868e-05	6.5623e-06	395.23	133.51	59.854	20.227	2.361e-05	60.688	0.0013543	0.0013801	0.00036646	906.98	1.5023e-05	1.5011e-05	1220	264.93	1.5203e-05	1.4992e-05	443.29	148.97	81.036	27.57	1.4164e-05	67.3	89.770	178.945	213.271	60.552	110.330	368.717	60.755	64.980	170.566	253.296	64.881	70.769	69.633	75.658	254.988	75.927	-8191	255	
7595.012	1	1	0	0	0.28659	0.035497	0.070506	0.090384	0.21447	0.13097	0.28078	0.22024	0.11505	0.14394	0.10538	0.16711	0.25094	0.09376	0.22911	0.18771	-1.4375	-1.5812	-2.2354	-1.7062	-1.9188	-2.0375	-1.5792	-2.3333	-1.8813	-1.6479	-2.1063	-1.7	-1.7708	-1.9875	-1.6208	-2.3083	51.791	193.255	296.153	364.879	360.571	392.746	330.703	347.998	243.662	136.979	289.630	362.648	322.037	281.290	350.891	290.621	0.0010592	0.00038345	0.00012516	809.27	6.5285e-06	4.6862e-06	1132.9	235.7	3.3394e-06	8.0623e-06	400.06	133.87	59.941	20.243	6.0686e-06	60.772	0.0013999	0.001344	0.00036236	912.71	1.5574e-05	1.4739e-05	1225.6	269.43	1.5526e-05	1.4719e-05	445.8	150.85	81.776	27.261	1.4009e-05	67.397	63.244	275.306	272.906	60.637	65.280	199.918	60.720	64.909	340.247	111.502	64.861	70.648	69.532	76.001	187.396	75.968	-8191	255	
7595.131	1	1	0	0	0.11852	0.12507	0.27414	0.44124	0.27949	0.16275	0.17706	0.1967	0.23747	0.18069	0.19115	0.027226	0.19894	0.23223	0.15987	0.17488	-1.5125	-1.5312	-2.2604	-1.6896	-1.9667	-2.2083	-1.6562	-2.4562	-1.775	-1.7583	-2.2917	-1.8479	-1.9062	-2.1833	-1.6792	-2.1104	66.315	205.302	384.120	338.950	258.186	256.605	294.494	329.276	165.383	157.294	380.641	368.598	152.567	86.440	251.741	302.112	0.00098496	0.000736	0.00013696	808.09	3.6874e-06	6.4005e-06	1128.5	232.61	1.2085e-06	2.554e-06	399.34	134.56	60.334	20.394	1.1821e-05	61.079	0.0013957	0.00131	0.00035719	918.94	1.5177e-05	1.429e-05	1218.7	270.64	1.5213e-05	1.4272e-05	443.97	152.59	81.145	27.377	1.3937e-05	68.768	72.680	370.068	238.418	60.812	221.395	374.780	60.550	64.885	347.084	378.467	64.907	70.660	70.291	75.622	194.554	75.946	-8191	255	
7595.227	1	1	0	0	0.11665	0.2589	0.22837	0.073746	0.12796	0.23364	0.17062	0.23162	0.19486	0.18395	0.22673	0.24992	0.38111	0.29453	0.12017	0.19338	-1.6333	-1.6104	-2.1312	-1.9188	-1.7271	-2.3229	-1.9208	-2.1896	-2.1375	-1.4937	-2.0917	-1.9688	-1.6	-2.2417	-1.6083	-1.9771	336.616	254.573	163.802	87.976	171.906	183.562	384.090	320.128	391.207	118.771	52.569	368.915	340.300	317.998	167.886	269.666	0.00092774	0.0010054	0.00017487	811.38	1.5834e-05	3.0169e-06	1139.3	235.75	1.5874e-05	4.341e-06	402.15	133.79	60.298	20.115	9.6318e-06	60.801	0.0013532	0.0012806	0.00035872	927.77	1.4681e-05	1.4009e-05	1228.1	273.79	1.4565e-05	1.3803e-05	446.52	152.66	80.05	26.923	1.415e-05	68.476	87.896	147.574	166.116	60.409	63.998	104.142	60.733	64.775	264.135	347.653	64.926	70.500	69.509	75.523	246.815	75.764	-8191	255	
7595.323	1	1	0	0	0.48694	0.25363	0.13835	0.020942	0.23823	0.036704	0.068252	0.066987	0.23663	0.068015	0.36829	0.15667	0.01959	0.31471	0.31519	0.41627	-1.725	-1.4417	-2.1771	-2.1312	-1.5354	-2.1937	-1.7458	-2.0458	-2.3438	-1.7583	-2.3167	-2.0167	-1.8667	-2.1521	-1.6771	-1.8083	218.862	244.387	192.174	338.369	170.108	265.159	329.059	95.693	233.377	209.859	355.877	376.618	166.080	377.358	186.170	324.424	0.0010735	0.0010411	0.00059129	806.87	2.7265e-06	6.9206e-06	1122.3	231.39	4.0018e-06	4.2218e-06	399.7	134.1	59.831	20.631	1.5197e-05	62.118	0.001297	0.0012441	0.0003659	921.45	1.4247e-05	1.3707e-05	1222.6	269.75	1.4099e-05	1.3518e-05	446.39	153.01	79.123	27.211	1.4953e-05	69.525	57.153	353.524	156.326	60.555	383.458	142.620	60.493	64.492	255.278	362.443	64.910	70.574	69.678	75.632	254.457	75.762	-8191	255	
7595.419	1	1	0	0	0.15658	0.12142	0.10998	0.018766	0.12202	0.21074	0.25306	0.18311	0.23882	0.12453	0.16678	0.19569	0.37024	0.204	0.22444	0.16503	-1.6625	-1.5479	-1.9854	-1.9833	-1.625	-2.1417	-1.975	-1.9479	-2.0958	-1.6146	-2.0938	-2.1354	-1.6187	-2.1833	-1.7208	-1.8438	384.121	310.834	175.566	285.274	368.356	219.461	369.779	299.884	289.711	154.923	386.519	377.789	161.186	255.874	266.700	119.501	0.00093973	0.00046386	0.00042917	797.14	9.865e-06	1.3973e-05	1126.7	233.21	9.5608e-06	3.9247e-06	400.4	133.77	60.245	20.327	1.5358e-05	60.51	0.0012797	0.001246	0.00038273	911.47	1.3987e-05	1.3789e-05	1227.7	269.36	1.3983e-05	1.3785e-05	451.34	152.37	79.036	27.139	1.5339e-05	67.572	80.480	115.798	132.046	60.502	385.217	176.418	60.647	64.920	296.105	237.016	64.879	70.284	70.021	76.559	205.362	75.820	-8191	255	
7595.515	1	1	0	0	0.33406	0.08998	0.268	0.13617	0.25401	0.10268	0.15655	0.32406	0.19497	0.14261	0.22648	0.12918	0.11101	0.27459	0.17005	0.10907	-1.7542	-1.8521	-1.9562	-2.2458	-1.5104	-2.2375	-2.1021	-1.8458	-2.5792	-1.6729	-2.0521	-2.2438	-1.7042	-2.0458	-1.9521	-1.7729	158.383	126.430	116.447	333.201	244.759	332.628	386.876	302.705	234.558	139.878	339.298	229.682	388.980	366.230	241.750	375.543	0.0013518	0.00084821	0.00029105	806.58	6.6649e-06	5.3432e-06	1131.5	237.12	2.7473e-06	7.0887e-06	403.71	132.73	60.617	19.646	7.1172e-06	58.696	0.0012509	0.0012536	0.00038682	914.3	1.351e-05	1.3845e-05	1238.7	270.3	1.3498e-05	1.3994e-05	453.15	148.92	78.337	26.682	1.5088e-05	65.382	95.183	106.884	299.148	60.703	165.830	174.237	60.598	64.577	261.586	243.503	64.681	70.479	70.216	75.740	140.113	76.098	-8191	255	
7595.612	1	1	0	0	0.27648	0.15532	0.19839	0.44315	0.058575	0.19168	0.3661	0.065694	0.17005	0.10139	0.13099	0.14036	0.34374	0.093979	0.15437	0.54084	-1.8458	-1.6979	-1.8333	-2.2208	-1.6708	-2.1104	-2.1292	-1.7188	-2.4188	-1.9667	-1.9312	-2.3167	-1.4375	-2.1542	-1.9813	-1.7896	72.202	214.698	384.384	344.187	145.416	221.095	280.144	212.788	131.562	139.527	330.636	379.774	334.681	240.832	371.593	335.464	0.0011534	0.0008469	3.3675e-05	820.46	8.7695e-06	3.4513e-07	1129.9	238.08	7.0012e-06	5.0121e-06	402.02	132.94	60.234	20.024	1.1236e-05	60.124	0.0012152	0.0012961	0.00037863	917.69	1.3242e-05	1.4341e-05	1233.1	269.07	1.3259e-05	1.4473e-05	449.1	148.71	78.106	27.262	1.4659e-05	66.317	82.151	153.110	187.018	60.167	155.942	69.001	60.569	64.559	87.090	190.104	65.029	70.260	69.916	75.489	176.792	75.953	-8191	255	
7595.708	1	1	0	0	0.29446	0.23363	0.30763	0.076937	0.154	0.30017	0.27821	0.082895	0.26732	0.2621	0.1637	0.20562	0.16304	0.15187	0.045063	0.11083	-1.8229	-1.7042	-1.7271	-2.2292	-1.7292	-2.0042	-2.3125	-1.7417	-2.1208	-2.0312	-1.7313	-2.4188	-1.7104	-1.9688	-2.0812	-1.7125	336.636	248.899	255.855	328.343	92.431	211.109	339.347	151.971	77.258	268.859	320.613	381.863	238.863	92.003	389.840	309.251	0.0013294	0.00073888	0.00034266	808.76	5.6524e-06	9.106e-06	1130.2	234.88	7.7769e-06	7.2608e-06	401.68	132.62	60.09	20.24	1.1083e-05	60.716	0.0012234	0.0013546	0.00036912	908.51	1.3437e-05	1.4844e-05	1224.7	266.76	1.3628e-05	1.4928e-05	445.89	148.17	78.577	27.561	1.4103e-05	66.354	85.437	160.769	346.493	60.586	135.640	113.902	60.539	64.481	182.175	282.953	64.906	70.543	69.267	75.642	89.755	75.772	-8191	255	
7595.828	1	1	0	0	0.033218	0.089635	0.18117	0.14982	0.21899	0.10762	0.32804	0.14658	0.15963	0.24755	0.33138	0.20663	0.19517	0.24984	0.045663	0.15929	-1.7583	-1.8667	-1.6771	-2.375	-1.6729	-2.0417	-2.1104	-1.6396	-1.9854	-2.0271	-1.7125	-2.2313	-1.9625	-1.6708	-1.9958	-1.8292	312.477	271.058	219.607	366.492	341.182	330.086	332.187	329.582	277.466	248.239	318.260	276.180	353.256	307.594	390.712	72.740	0.0013935	0.0012468	7.1997e-05	808.74	5.4139e-06	7.6129e-06	1133.2	234.79	1.2868e-05	5.308e-06	400.52	133.28	60.355	20.085	1.2961e-05	59.543	0.0012584	0.0013725	0.00035596	904.46	1.398e-05	1.4802e-05	1220.1	265.92	1.4103e-05	1.4837e-05	443.4	147.59	79.885	27.297	1.385e-05	65.444	88.055	99.448	97.420	60.275	117.825	189.959	60.314	64.461	174.362	104.230	64.816	70.418	69.780	75.710	124.674	75.798	-8191	255	
7595.924	1	1	0	0	0.11946	0.38848	0.12078	0.25339	0.12183	0.12765	0.12835	0.19435	0.31364	0.063539	0.052409	0.024983	0.23903	0.18069	0.022764	0.33788	-1.4083	-1.8875	-1.8875	-2.2896	-1.8729	-1.8229	-2.1937	-1.6604	-2.0375	-2.1708	-1.8354	-2.3583	-1.9813	-1.9646	-2.1583	-1.6229	100.229	269.497	131.931	353.242	321.000	379.177	302.990	394.413	398.589	278.304	241.294	268.478	400.716	199.099	202.646	366.578	0.0016018	0.00014673	0.00024842	811.84	1.4777e-05	1.2107e-05	1133.6	235.3	1.611e-05	4.0821e-06	398.8	132.03	59.647	19.555	1.4148e-05	59.143	0.0013039	0.0013151	0.00034614	903.52	1.4461e-05	1.427e-05	1216	265.44	1.4431e-05	1.4124e-05	440.19	146.63	79.87	26.543	1.3252e-05	65.158	82.875	354.626	176.299	60.545	169.112	248.114	60.635	64.815	171.032	373.223	65.011	70.686	69.330	75.448	107.332	75.812	-8191	255	
7596.021	1	1	0	0	0.12093	0.16202	0.1411	0.20396	0.40891	0.18122	0.12606	0.11286	0.20171	0.1767	0.26578	0.10506	0.13427	0.31725	0.18287	0.048555	-1.6812	-1.9479	-1.6458	-2.2667	-2.05	-1.7583	-2.3167	-1.6292	-1.9646	-2.1646	-1.8792	-2.1063	-2.0125	-1.7396	-2.0583	-1.8229	204.987	238.498	149.881	369.100	158.551	221.717	301.670	292.772	139.612	138.525	62.511	274.998	307.157	376.399	97.170	254.911	0.0016502	0.00090797	0.00012309	815.77	3.6896e-06	1.3944e-06	1129.6	235.46	5.0902e-06	4.2195e-06	399.3	130.86	60.011	19.481	1.7609e-05	58.89	0.0013224	0.0012594	0.00033615	907.2	1.4461e-05	1.3596e-05	1210	267.17	1.4429e-05	1.3476e-05	437.75	146.57	79.453	25.995	1.2935e-05	65.049	70.515	259.967	354.710	60.598	96.414	179.675	60.464	64.658	201.312	254.389	64.635	70.678	69.608	75.747	171.834	75.867	-8191	255	
7596.140	1	1	0	0	0.013172	0.25627	0.29068	0.31654	0.18648	0.065566	0.28412	0.13144	0.15905	0.25197	0.01174	0.33556	0.28357	0.36694	0.093208	0.46957	-1.5562	-2.0646	-1.4521	-1.9	-1.9729	-1.5292	-2.3042	-1.7042	-1.8104	-2.0542	-1.6	-2.1292	-1.9521	-1.7188	-2.1854	-1.8667	193.059	50.700	147.956	386.934	204.105	385.892	373.573	65.620	141.996	87.015	113.606	62.897	390.021	56.429	393.879	46.910	0.00099027	0.0011937	0.0001009	813.67	3.5066e-06	2.6239e-06	1132.3	236.09	1.2121e-05	7.8836e-06	399.71	131.61	60.063	19.343	1.4085e-05	58.218	0.0012942	0.0012149	0.00032832	913.56	1.4115e-05	1.3167e-05	1208.8	269.41	1.402e-05	1.3199e-05	436.89	147.71	78.729	25.742	1.2921e-05	64.94	84.053	316.030	118.784	60.409	325.312	105.018	60.562	64.780	57.641	115.953	64.951	70.403	69.367	75.942	252.727	75.877	-8191	255	
7596.211	1	1	0	0	0.091209	0.078345	0.1237	0.18135	0.18978	0.14935	0.21917	0.17428	0.11894	0.10599	0.32379	0.17635	0.093609	0.063974	0.2078	0.19864	-1.3271	-2.1417	-1.6958	-1.8292	-1.9375	-1.6896	-2.4875	-1.8875	-1.8979	-2.1292	-1.675	-1.9937	-2.1708	-1.6583	-2.0625	-1.8188	225.977	176.928	141.573	54.385	246.569	170.021	316.610	384.395	159.615	116.200	100.119	404.860	300.859	129.309	142.938	82.368	0.0010365	0.00077579	2.2813e-05	813.6	9.3793e-06	1.1108e-05	1130.8	236.43	9.5356e-06	3.9819e-06	394.48	129.76	59.556	19.416	1.5808e-05	58.721	0.001245	0.0011816	0.00032922	917.6	1.3562e-05	1.2745e-05	1208.2	269.63	1.3291e-05	1.2789e-05	436.01	146.8	77.309	25.474	1.3213e-05	65.257	61.204	325.556	184.444	60.543	381.262	92.454	60.581	64.617	239.676	199.514	64.924	70.448	69.581	75.610	205.350	75.618	-8191	255	
7596.307	1	1	0	0	0.11469	0.12004	0.14022	0.1529	0.27753	0.27033	0.13028	0.27254	0.1564	0.082164	0.28412	0.24947	0.3614	0.031616	0.20577	0.16716	-1.3646	-2.0854	-1.6313	-2.1188	-2.1729	-1.6458	-2.3625	-2.0125	-1.65	-2.4542	-1.7	-2.0917	-2	-1.5938	-2.2854	-2.0083	47.081	377.781	170.024	99.730	306.901	83.124	217.260	351.283	71.541	327.530	389.510	385.482	313.049	120.041	324.556	372.180	0.00064471	0.00047682	0.00011946	803.13	4.3292e-06	4.3637e-06	1124	232.65	7.3199e-06	4.1135e-06	397.37	131.48	59.94	19.948	1.5653e-05	60.205	0.0011969	0.0011609	0.00034065	908.02	1.3217e-05	1.2646e-05	1207.6	266.97	1.3192e-05	1.2843e-05	440.75	149.03	77.832	26.117	1.4247e-05	67.19	96.817	176.231	97.555	60.656	287.615	172.997	60.517	64.779	55.977	133.094	64.766	70.035	69.565	75.561	241.115	76.127	-8191	255	
7596.428	1	1	0	0	0.13522	0.12499	0.054279	0.33721	0.18797	0.057231	0.19011	0.069068	0.26961	0.30447	0.26925	0.25398	0.040878	0.11354	0.1061	0.19508	-1.2188	-2.1917	-1.6792	-2.0021	-2.1417	-1.4583	-2.3792	-2.125	-1.6938	-2.0917	-1.9479	-1.8667	-2.0417	-1.7812	-1.9667	-2.2521	298.448	349.415	349.796	377.462	235.487	192.557	370.226	131.832	345.190	237.094	371.657	356.676	337.145	47.500	195.134	360.337	0.00098746	0.00086803	0.00028661	787	1.8163e-06	1.5502e-05	1108.8	229.02	8.9582e-06	3.1088e-06	397.07	135.33	59.894	21.197	1.4652e-05	64.354	0.001216	0.0011978	0.00036941	898.01	1.3407e-05	1.3135e-05	1207.1	263.92	1.3454e-05	1.3361e-05	447.48	152.49	78.011	27.533	1.4922e-05	70.363	67.269	213.497	171.592	60.397	129.285	219.178	60.935	64.801	241.553	400.108	65.449	70.711	70.233	75.966	271.143	75.655	-8191	255	
7596.524	1	1	0	0	0.2278	0.032756	0.069828	0.25686	0.081701	0.16182	0.081008	0.21943	0.31038	0.13652	0.43259	0.16228	0.02763	0.063101	0.25744	0.22298	-1.1083	-2.1437	-1.7708	-1.9542	-2.3042	-1.7313	-2.0375	-2.0792	-1.4625	-2.2792	-1.9458	-1.7521	-2.3042	-1.8479	-1.9042	-2.2583	81.680	190.076	73.827	344.933	308.811	139.990	377.328	56.261	117.940	395.301	291.203	359.938	147.866	322.150	350.179	400.226	0.0012138	0.00099122	0.00033625	779.56	2.4996e-06	1.2785e-05	1106.9	228.93	7.2775e-06	2.2129e-06	397.73	136.02	60.517	21.136	1.1427e-05	63.807	0.0012045	0.0012245	0.00037737	882.96	1.3203e-05	1.3551e-05	1208.4	261.56	1.3098e-05	1.3782e-05	446.85	151.7	77.668	27.739	1.4659e-05	69.507	55.189	221.590	143.160	60.553	109.923	167.315	60.734	64.970	223.407	253.229	64.981	70.736	69.914	76.425	258.955	75.741	-8191	255	
7596.620	1	1	0	0	0.054334	0.08058	0.049634	0.22284	0.11047	0.1321	0.16997	0.25419	0.22684	0.21804	0.27647	0.32705	0.1727	0.27215	0.23803	0.23617	-1.1292	-2.1792	-1.6875	-1.6333	-2.3146	-1.7375	-2.1688	-2.2146	-1.6208	-2.0812	-2.1625	-1.6	-2.4208	-1.9438	-1.9771	-2.1167	145.941	351.486	283.598	278.617	212.691	350.446	79.014	70.739	59.709	252.750	345.799	68.803	398.353	326.512	294.048	357.475	0.0012202	0.001704	8.3576e-05	792.05	9.5708e-06	2.1301e-06	1120.2	233.84	2.509e-06	1.1111e-05	397.38	133.18	60.09	20.194	1.5056e-05	60.006	0.0011728	0.0012691	0.00036664	889.6	1.2781e-05	1.3929e-05	1212.4	263.66	1.2682e-05	1.3951e-05	442.64	147.37	76.917	26.954	1.3801e-05	65.896	89.758	171.814	344.464	60.722	73.139	139.502	60.696	64.885	236.286	269.563	64.855	70.548	69.826	75.314	138.394	75.775	-8191	255	
7596.716	1	1	0	0	0.20348	0.28801	0.029658	0.096612	0.16871	0.12723	0.31905	0.37827	0.52867	0.26453	0.062178	0.44774	0.041041	0.26219	0.23642	0.11702	-0.90625	-1.8417	-1.8896	-1.6187	-2.1208	-1.8521	-1.9562	-2.0521	-1.4625	-1.7125	-2.0125	-1.5729	-2.2208	-1.8521	-1.7208	-2.25	92.936	352.127	399.072	332.071	180.951	171.299	322.660	379.027	118.786	274.355	85.308	391.016	308.780	284.051	92.125	64.661	0.00081385	0.00032706	8.5113e-05	796.18	6.9441e-06	1.2716e-05	1116.6	229.72	1.0812e-05	1.2642e-05	398.14	133.5	60.074	20.285	8.5012e-06	60.458	0.0011568	0.001282	0.00035045	887.71	1.2834e-05	1.4195e-05	1200.4	260.28	1.2916e-05	1.4247e-05	439.37	147.16	77.433	27.323	1.3344e-05	66.292	84.888	211.470	74.985	60.515	202.431	185.698	60.466	64.763	183.535	265.828	64.986	70.522	70.414	75.814	69.217	75.487	-8191	255	
7596.813	1	1	0	0	0.26783	0.041013	0.18032	0.37992	0.17399	0.20963	0.13198	0.11341	0.049803	0.078712	0.347	0.23953	0.23201	0.14356	0.16728	0.37303	-1.3458	-1.8042	-2.0125	-1.6229	-2.0729	-2.1562	-1.8625	-2.3187	-1.6458	-1.7458	-2.3146	-1.5333	-2.0312	-1.7188	-1.6167	-2.4188	144.144	179.949	244.482	88.377	259.793	328.733	382.528	174.091	143.906	239.657	325.475	50.782	61.334	339.128	182.780	322.121	0.0012922	0.0013059	0.00025922	793.9	9.3515e-06	6.48e-06	1115.3	230.85	1.2217e-05	5.5862e-06	396.39	132.52	60.306	20.372	1.1009e-05	61.638	0.0011965	0.0012972	0.00034005	883.8	1.3406e-05	1.411e-05	1194.8	260.14	1.347e-05	1.4033e-05	437.2	146.7	78.433	27.125	1.3097e-05	66.707	75.249	293.572	141.819	60.657	182.270	87.218	60.436	64.791	91.930	189.504	65.071	70.649	69.898	75.580	179.428	75.985	-8191	255	
7596.909	1	1	0	0	0.21517	0.11383	0.10359	0.051684	0.10574	0.10401	0.34232	0.091908	0.21683	0.17206	0.46857	0.13834	0.13512	0.043533	0.31107	0.077502	-1.3771	-1.7771	-1.8208	-1.7292	-1.7646	-2.0708	-1.8292	-2.2125	-1.9146	-1.8563	-2.3396	-1.5938	-2.1396	-1.9937	-1.6958	-2.3312	75.970	215.163	336.640	374.281	130.861	244.528	317.303	330.333	263.584	112.654	387.306	338.307	289.140	313.419	352.083	215.856	0.0013264	0.00058446	0.00022595	787.76	5.9541e-06	6.5762e-06	1112.1	230.2	1.0287e-05	2.0378e-06	396.91	134.68	59.975	20.349	9.1168e-06	61.193	0.0012584	0.0012619	0.00033346	876.17	1.3832e-05	1.3731e-05	1190.1	259.09	1.4007e-05	1.3595e-05	435.93	147.78	79.179	26.926	1.2826e-05	66.894	82.104	204.050	361.297	60.485	142.796	170.587	60.805	64.772	179.392	150.893	65.039	70.724	69.761	75.762	109.457	75.743	-8191	255	
7597.005	1	1	0	0	0.22074	0.091638	0.20242	0.17182	0.082859	0.13194	0.091428	0.10557	0.21773	0.19472	0.1827	0.079223	0.15272	0.061852	0.17248	0.1238	-1.3083	-1.5896	-2.1146	-1.6146	-1.85	-2.3292	-1.7625	-2.25	-1.8312	-1.7604	-2.1437	-1.9458	-1.9208	-1.9833	-1.475	-2.1417	398.021	169.945	160.442	270.805	349.602	324.582	297.927	107.531	53.397	386.281	365.791	52.378	53.063	384.649	378.170	285.226	0.0012156	0.00024363	5.5842e-05	793.62	5.8911e-06	4.2942e-06	1109.6	231.88	4.3835e-06	1.3692e-06	398.45	133.5	59.783	20.328	1.3077e-05	61.302	0.0012905	0.0012252	0.00032746	885.37	1.4108e-05	1.3333e-05	1191.7	262	1.4184e-05	1.3178e-05	436.03	148.44	78.944	26.581	1.2796e-05	67.326	94.168	231.078	327.763	60.626	163.009	352.291	60.444	64.975	205.145	340.320	64.979	70.811	69.909	75.834	276.058	76.141	-8191	255	
7597.101	1	1	0	0	0.11328	0.20436	0.076836	0.22451	0.25277	0.16631	0.30846	0.11913	0.21973	0.19181	0.27646	0.23916	0.14017	0.33395	0.19416	0.11045	-1.3563	-1.7917	-2.0208	-1.7354	-1.8021	-2.2083	-1.7896	-2.0708	-1.9438	-1.7167	-2.2188	-1.6646	-1.9875	-2.0271	-1.6021	-2.1854	337.775	228.277	159.207	89.398	327.033	239.846	57.487	404.589	220.779	194.081	51.057	397.253	359.997	387.479	145.655	266.118	0.0012674	0.0001076	0.00022016	790.44	6.9531e-06	5.9071e-06	1107.9	230.27	1.6637e-05	6.1104e-06	394.13	132.65	59.67	20.033	5.3098e-06	60.972	0.0012802	0.0011924	0.00032505	888.91	1.3873e-05	1.2988e-05	1185.4	262.28	1.3699e-05	1.2865e-05	431.35	149	77.713	26.292	1.2669e-05	67.505	95.088	181.152	168.146	60.556	114.588	65.194	60.866	64.898	300.168	75.955	65.041	70.801	69.778	75.734	230.243	75.749	-8191	255	
7597.220	1	1	0	0	0.085511	0.010529	0.087806	0.17587	0.39259	0.15461	0.16745	0.16167	0.19538	0.14146	0.24748	0.035524	0.092437	0.14845	0.028762	0.32222	-1.6458	-1.6479	-2.0042	-1.9354	-1.8687	-2.1875	-1.8563	-2.0646	-1.85	-1.7542	-2.1104	-2.1229	-1.6083	-2.1667	-1.5396	-1.9396	139.502	111.277	150.632	271.040	111.783	290.981	220.577	76.360	178.910	210.642	362.175	105.366	146.298	196.141	120.193	381.491	0.00091106	0.00081188	0.00022253	789.64	3.5392e-06	1.3091e-06	1110.9	228.69	1.1888e-05	2.0819e-06	394.47	133.02	59.422	19.938	1.2121e-05	61.096	0.0012302	0.0011643	0.00032702	891.17	1.3294e-05	1.2727e-05	1189.2	263.63	1.3245e-05	1.2653e-05	433.51	149.33	76.757	25.941	1.3093e-05	67.414	74.133	278.820	204.930	60.694	198.599	134.126	60.520	65.022	344.981	47.867	64.810	70.170	70.082	75.423	255.402	75.753	-8191	255	
7597.316	1	1	0	0	0.19915	0.15118	0.20858	0.14633	0.13083	0.27553	0.574	0.094976	0.1412	0.22543	0.12496	0.11162	0.2556	0.30469	0.10542	0.33022	-1.6437	-1.6229	-2.0042	-1.9562	-1.6354	-2.1458	-1.8	-1.9021	-2.1688	-1.6479	-2.2625	-1.9354	-1.75	-2.2229	-1.7083	-1.9042	126.745	224.687	55.766	355.373	295.456	372.395	352.233	307.823	293.631	238.196	369.707	276.907	255.031	297.455	223.865	326.619	0.0012125	0.00043946	5.3782e-05	779.08	9.4497e-06	9.6156e-06	1097.9	226.17	4.1191e-06	5.6543e-06	391.94	132.25	58.934	19.861	1.7544e-05	61.607	0.0011784	0.001131	0.00033464	881.11	1.2738e-05	1.2251e-05	1182.9	258.49	1.2646e-05	1.2231e-05	432.37	148.09	75.151	25.758	1.349e-05	67.628	61.558	128.323	189.411	60.602	152.553	243.058	60.748	65.159	192.407	56.894	65.271	70.400	70.086	75.673	268.455	75.640	-8191	255	
7597.389	1	1	0	0	0.12494	0.206	0.28933	0.15422	0.22496	0.1796	0.32422	0.19879	0.19816	0.11438	0.099822	0.14721	0.26604	0.066799	0.2388	0.21537	-1.6854	-1.5042	-1.8646	-2.0583	-1.5312	-2.1896	-1.7479	-1.7604	-2.1813	-1.625	-2.0375	-2.1312	-1.6437	-2.3063	-1.7417	-1.7875	360.520	205.056	279.410	384.730	209.197	96.096	352.772	233.598	364.324	253.418	282.081	161.936	50.750	394.778	271.669	343.231	0.0014346	0.00064755	0.0003761	769.81	5.6365e-06	5.0479e-06	1102.1	223.46	4.0593e-06	1.2427e-05	391.25	133.12	58.698	20.248	2.3067e-06	61.755	0.0011405	0.001118	0.0003449	868.07	1.2541e-05	1.2401e-05	1185.9	254.66	1.2563e-05	1.2539e-05	436.03	148.12	75.148	26.227	1.4158e-05	67.59	96.188	381.251	202.793	60.828	82.901	293.543	60.588	64.839	286.623	221.584	65.234	70.736	69.933	76.108	183.037	75.942	-8191	255	
7597.508	1	1	0	0	0.11515	0.26566	0.037539	0.13176	0.095377	0.20394	0.026969	0.3181	0.24738	0.10175	0.1882	0.2096	0.33476	0.15395	0.19771	0.26559	-1.8917	-1.4646	-1.925	-2.2167	-1.7042	-2.2104	-2.0229	-1.9458	-2.2667	-1.5063	-2.0917	-2.1562	-1.6042	-2.1958	-2	-1.8417	323.983	266.362	79.191	336.384	285.386	278.480	63.388	368.691	115.234	360.359	361.439	383.162	354.924	331.448	174.756	284.550	0.00071069	0.00058343	0.00031859	778.13	5.3636e-06	1.4597e-05	1108.1	227.4	3.5017e-06	8.8369e-06	392.52	133.49	59.363	20.498	1.0153e-05	61.345	0.0011535	0.0011784	0.00036315	876.82	1.276e-05	1.3306e-05	1204.4	259.28	1.2873e-05	1.3592e-05	442.31	149.11	76.787	27.059	1.4645e-05	67.681	65.669	196.346	55.271	60.527	153.382	185.254	60.580	65.300	356.469	222.245	64.830	70.629	70.165	76.497	402.451	75.851	-8191	255	
7597.604	1	1	0	0	0.28086	0.10871	0.2051	0.21192	0.059165	0.24642	0.16308	0.10824	0.1649	0.18057	0.060502	0.12504	0.33417	0.081386	0.13249	0.10277	-1.9312	-1.8208	-1.7	-2.2771	-1.5438	-1.9937	-1.9937	-1.6083	-2.1937	-1.8125	-2.0271	-2.1167	-1.6104	-1.9854	-2.1	-1.7771	149.362	51.976	112.866	378.929	131.992	71.424	349.290	250.669	142.240	237.881	350.126	290.884	391.607	308.512	140.983	187.176	0.00078452	0.00092437	0.00023971	790.55	9.2588e-06	8.6749e-06	1117.7	229.78	1.0445e-05	4.4732e-06	392.07	133	59.703	20.295	9.0327e-06	61.78	0.0011804	0.0012834	0.00037151	889.16	1.2893e-05	1.4153e-05	1213.4	260.99	1.3095e-05	1.444e-05	443.28	149.02	77.235	27.58	1.4488e-05	67.639	89.562	156.203	265.827	60.470	124.517	299.757	60.671	64.964	125.566	179.566	65.200	70.690	69.807	76.012	81.534	75.746	-8191	255	
7597.701	1	1	0	0	0.21103	0.27633	0.12384	0.093469	0.28338	0.13477	0.014937	0.24972	0.12421	0.10568	0.23724	0.19383	0.25106	0.068635	0.18903	0.20511	-1.6625	-1.8396	-1.8333	-2.1583	-1.6542	-1.9167	-2.2771	-1.6812	-2.1833	-1.7229	-2.0375	-2.1958	-1.7167	-1.9542	-1.9292	-1.7875	400.999	103.901	98.125	351.225	368.602	228.159	62.147	61.839	156.387	383.500	311.719	97.893	106.171	358.619	336.495	327.092	0.0012713	0.00087003	6.7276e-05	792.48	9.6471e-06	7.6479e-06	1114.8	229.55	3.2826e-06	2.8252e-06	392.45	132.36	59.372	19.924	1.0936e-05	59.677	0.0012166	0.0013468	0.00036544	891.33	1.3346e-05	1.4702e-05	1205.6	260.32	1.3385e-05	1.469e-05	437.78	146.8	77.412	27.033	1.3708e-05	65.658	70.384	193.880	59.156	60.446	199.232	226.208	60.539	64.814	140.292	224.004	64.817	70.651	69.175	75.681	111.261	76.072	-8191	255	
7597.821	1	1	0	0	0.12638	0.077234	0.14442	0.26203	0.023345	0.096069	0.29502	0.1464	0.25941	0.062256	0.17532	0.46734	0.1236	0.082213	0.1149	0.25409	-1.7687	-1.9917	-1.9083	-2.25	-1.825	-2.075	-2.2729	-1.5875	-2.1854	-1.9062	-1.8833	-2.2917	-1.6604	-1.9208	-1.9833	-1.7833	368.546	156.809	402.375	390.737	257.502	223.701	354.715	368.996	337.593	94.540	343.399	330.020	126.432	324.272	259.848	403.931	0.0015231	0.0002545	0.00020165	797.7	1.9019e-05	5.412e-06	1122.7	233.68	7.7112e-06	4.2791e-06	397.94	132.74	60.066	19.853	8.2939e-06	59.896	0.0012469	0.0013394	0.00034934	894.26	1.3865e-05	1.4601e-05	1212.1	263.09	1.4095e-05	1.4617e-05	440.93	147.24	79.574	26.991	1.369e-05	65.811	90.957	195.470	288.389	60.542	171.373	345.353	60.426	64.616	170.962	72.617	65.039	70.640	69.942	75.790	121.197	75.971	-8191	255	
7597.917	1	1	0	0	0.18762	0.17422	0.25668	0.14675	0.05252	0.10751	0.17329	0.090865	0.096608	0.19881	0.098305	0.25867	0.041016	0.23715	0.16945	0.33161	-1.7417	-1.9208	-1.6792	-2.2667	-1.5312	-1.8979	-2.2792	-1.675	-2.2208	-2.1083	-1.475	-2.2167	-1.7188	-1.6187	-2.1646	-1.95	215.631	175.804	269.094	369.949	135.923	144.919	370.469	164.713	271.812	181.954	369.377	303.083	59.489	84.670	145.894	328.927	0.0016212	0.001285	0.00022939	805.64	9.121e-06	1.5712e-05	1127.4	233.14	1.4112e-05	6.6219e-06	402.57	133.78	60.264	20.088	9.7352e-06	61.298	0.0013238	0.0013273	0.00035097	898.36	1.4829e-05	1.4488e-05	1216	265.8	1.5042e-05	1.4626e-05	444.94	149.64	81.656	27.364	1.3962e-05	67.717	85.347	257.625	225.461	60.607	134.006	349.408	60.515	64.693	215.342	132.195	64.806	70.907	69.713	76.298	131.768	75.854	-8191	255	
7598.014	1	1	0	0	0.18996	0.025554	0.17342	0.25007	0.072364	0.17508	0.32167	0.21994	0.07397	0.17464	0.13084	0.090939	0.16188	0.29039	0.26586	0.1969	-1.6125	-1.9583	-1.8438	-2.2375	-1.9583	-1.6667	-2.3125	-1.7771	-1.8833	-2.1708	-1.7812	-2.3146	-1.9646	-1.8188	-2.2042	-1.8937	128.272	309.794	94.178	282.503	380.323	165.986	305.188	84.000	244.448	143.316	396.395	109.073	317.941	337.201	297.201	373.286	0.0010222	0.0010656	0.00018988	797.37	8.3627e-06	7.1352e-06	1123.5	233.2	1.8847e-06	5.7018e-06	400.38	132.99	60.547	19.704	4.9943e-06	59.988	0.0013914	0.0013112	0.00035075	900.09	1.5249e-05	1.4282e-05	1213.2	268.14	1.5191e-05	1.4215e-05	443.06	150.16	81.277	26.751	1.3687e-05	66.923	79.059	118.200	385.377	61.069	59.995	125.703	60.335	64.808	248.616	79.960	65.209	70.447	69.527	75.605	135.713	76.100	-8191	255	
7598.110	1	1	0	0	0.24899	0.087445	0.18767	0.04463	0.069809	0.29401	0.28947	0.24672	0.1189	0.18729	0.14278	0.152	0.22708	0.3446	0.21807	0.13734	-1.5333	-2.0375	-1.6042	-2.1771	-1.9667	-1.5083	-2.3333	-1.7771	-1.7083	-2.1792	-1.7938	-2.0271	-2.0625	-1.7146	-2.2687	-1.9167	317.300	290.270	254.778	291.260	400.001	194.313	342.490	348.595	165.611	286.601	61.882	99.895	182.828	393.272	355.653	147.130	0.0014504	0.00080207	0.00035429	808.84	5.6104e-06	7.6894e-06	1129.8	233.6	9.9949e-06	7.9183e-06	402.8	133.11	60.358	19.733	1.338e-05	59.812	0.0013709	0.0012838	0.00034773	917.15	1.4997e-05	1.3974e-05	1214.7	271.24	1.4735e-05	1.391e-05	443.09	150.69	80.161	26.559	1.3694e-05	67.505	89.339	295.407	174.057	60.412	296.091	104.093	60.614	64.707	268.261	114.200	64.775	70.634	69.293	76.018	188.699	76.080	-8191	255	
7598.204	1	1	0	0	0.13357	0.18676	0.035853	0.22376	0.20567	0.15079	0.12296	0.24035	0.1383	0.086908	0.09465	0.12358	0.1845	0.14864	0.14862	0.31706	-1.1479	-2.2	-1.6562	-2.1937	-1.975	-1.6458	-2.4021	-1.8083	-1.7708	-2.1771	-1.8917	-2.0167	-2.2687	-1.8583	-2.45	-1.9979	119.536	270.239	369.485	340.046	356.122	314.850	379.020	367.959	69.982	179.286	58.470	348.943	186.606	316.047	159.891	346.850	0.00064214	0.00060677	0.00031797	804.27	5.7986e-06	9.7587e-06	1120.1	233.59	5.0177e-06	8.5069e-06	401.04	134.55	60.018	20.443	1.8593e-05	62.719	0.0013082	0.0012512	0.00034964	914.22	1.4368e-05	1.363e-05	1210.5	270.39	1.4244e-05	1.3679e-05	445.13	153.57	79.509	27.046	1.4335e-05	70.18	91.044	355.964	174.517	60.725	296.372	385.518	60.976	64.892	261.785	385.673	64.970	70.602	69.743	75.875	213.431	76.087	-8191	255	
7598.300	1	1	0	0	0.056871	0.47504	0.15217	0.39408	0.17917	0.14859	0.05769	0.26194	0.34534	0.12145	0.32846	0.26844	0.21835	0.23589	0.1083	0.060495	-1.3125	-2.1312	-1.6646	-2.0812	-2.0146	-1.6104	-2.2083	-2.0646	-1.4271	-2.2104	-1.8646	-2.125	-2.3104	-1.5375	-2.1813	-2.1167	131.959	246.062	149.938	367.644	79.709	234.732	372.812	374.447	141.715	308.260	70.374	61.317	290.315	324.624	254.481	243.316	0.00087014	0.0004613	0.00036145	781.86	7.1788e-06	4.2295e-06	1120.3	231.82	1.6864e-05	4.3424e-06	401.66	135.94	60.018	20.395	1.3352e-05	61.593	0.0012874	0.0012387	0.00036913	905.63	1.4112e-05	1.3579e-05	1216.7	269.56	1.3891e-05	1.3582e-05	450.61	153.26	79.274	26.818	1.4841e-05	68.856	117.928	303.779	184.788	60.789	233.117	73.427	60.972	65.026	74.120	221.843	65.161	70.537	69.910	75.905	268.952	75.970	-8191	255	
7598.396	1	1	0	0	0.11196	0.19901	0.17116	0.14334	0.029832	0.15334	0.11181	0.081424	0.36528	0.15779	0.27646	0.041172	0.17809	0.19674	0.14657	0.32511	-1.1542	-2.2646	-1.6458	-1.6187	-2.3812	-1.6875	-2.2354	-1.9813	-1.6313	-2.2375	-1.8583	-1.8042	-2.2333	-1.5604	-1.8188	-2.1708	299.028	135.786	300.076	269.532	397.615	328.516	316.400	74.089	363.071	108.423	378.441	150.557	358.220	132.090	403.011	361.090	0.00093009	0.00049835	0.00025582	796.04	6.9231e-06	1.0974e-05	1114.7	229.86	9.8916e-06	6.9273e-06	396.3	134.08	59.757	20.309	7.7794e-06	61.653	0.0012555	0.0012348	0.00038235	904.89	1.3636e-05	1.355e-05	1219	266.12	1.3558e-05	1.3591e-05	448.32	151.08	77.945	26.909	1.5017e-05	68.298	84.156	229.010	127.509	60.939	145.421	198.368	60.667	65.111	101.301	228.201	65.107	70.831	70.336	76.382	128.740	76.020	-8191	255	
7598.517	1	1	0	0	0.075389	0.039547	0.19302	0.071482	0.32892	0.11281	0.11008	0.070739	0.10467	0.18679	0.20698	0.13691	0.070618	0.04779	0.017994	0.12826	-1.1354	-2.0021	-1.7625	-1.9062	-2.0646	-1.6375	-2.0979	-2.0625	-1.6083	-2.2042	-1.9396	-1.7208	-2.2208	-1.7479	-1.9146	-2.1333	341.904	253.158	107.752	406.644	255.767	403.407	390.351	147.055	237.024	117.120	63.866	312.923	87.521	111.893	100.874	376.891	0.0010883	0.0011966	0.000308	788.12	3.6845e-06	1.4003e-05	1108.8	228.82	5.6735e-06	1.3241e-05	397.13	132.82	59.377	19.842	1.6469e-05	60.372	0.0012154	0.0012503	0.00038284	888.95	1.3181e-05	1.3657e-05	1209.4	261.83	1.3021e-05	1.3816e-05	445.04	147.91	76.404	26.606	1.4568e-05	66.341	66.856	225.121	395.971	60.682	369.486	161.230	60.679	64.962	67.675	170.048	64.997	70.613	69.831	76.044	209.706	75.904	-8191	255	
7598.613	1	1	0	0	0.15798	0.13528	0.24596	0.15331	0.10623	0.12326	0.23358	0.19272	0.21396	0.20415	0.17149	0.079416	0.25718	0.30044	0.17053	0.28473	-1.1521	-2.0271	-2.0062	-1.8083	-2.3271	-1.7938	-1.9333	-2.2417	-1.575	-1.925	-2.1729	-1.7062	-2.2208	-1.9042	-1.825	-2.3438	58.946	93.763	131.899	321.943	338.075	183.748	354.072	297.447	270.975	304.649	98.005	79.589	330.754	300.870	216.382	339.831	0.0015721	0.0011694	0.0001743	790.38	5.8515e-06	7.3769e-06	1114.2	229.88	4.8904e-06	6.6154e-06	397.12	131.41	58.826	19.619	1.0689e-05	59.064	0.0011745	0.0012821	0.00036906	883.74	1.289e-05	1.4214e-05	1209	261.51	1.3057e-05	1.4492e-05	442.92	146.78	76.895	26.729	1.4255e-05	65.319	81.982	111.419	393.549	60.684	203.210	135.517	60.643	64.922	188.230	217.062	65.109	70.580	69.877	76.160	276.773	76.000	-8191	255	
7598.685	1	1	0	0	0.12257	0.27373	0.38388	0.047796	0.091361	0.26326	0.27664	0.0734	0.12977	0.14782	0.11675	0.099597	0.20839	0.26308	0.092743	0.042815	-1.0312	-1.9479	-2.025	-1.55	-2.1958	-1.8813	-1.6958	-2.2188	-1.6562	-1.7646	-2.1958	-1.4479	-2.325	-1.9104	-1.7062	-2.2938	75.907	122.472	147.598	163.240	188.813	329.268	331.122	263.725	70.103	339.993	330.255	314.474	382.880	307.572	59.778	296.517	0.001142	0.00050927	3.334e-05	797.4	1.4133e-05	6.5861e-06	1121.5	231.07	1.2525e-05	8.7259e-06	397.82	130.65	58.967	19.334	4.4007e-06	58.766	0.0012017	0.0013319	0.00035953	890.57	1.3356e-05	1.4709e-05	1209.7	262.19	1.3485e-05	1.4746e-05	440.81	145.91	77.632	26.645	1.3876e-05	64.829	76.203	155.429	75.359	60.682	185.614	356.654	60.693	64.963	208.686	304.355	64.960	70.719	70.011	75.903	146.632	75.860	-8191	255	
7598.781	1	1	0	0	0.39572	0.22649	0.15446	0.093131	0.20883	0.089653	0.12974	0.20786	0.0019412	0.16041	0.37998	0.23615	0.24242	0.26327	0.20818	0.12339	-1.1688	-1.8042	-2.0375	-1.7708	-1.9937	-1.7917	-1.5729	-2.5312	-1.7375	-1.9312	-2.2313	-1.6167	-2.0458	-1.9458	-1.6021	-2.1604	53.594	211.738	117.881	110.104	177.144	137.535	297.437	325.911	180.000	140.110	306.326	86.745	51.286	372.397	220.965	402.659	0.0013753	0.0010067	0.00025973	797.42	1.0838e-05	6.8372e-06	1112.9	230.12	1.3567e-05	9.5657e-06	392.97	130.78	58.741	19.333	1.4237e-05	59.252	0.0012636	0.0013441	0.00035376	889	1.4072e-05	1.4684e-05	1202	260.15	1.4204e-05	1.4573e-05	436.57	145.73	78.373	26.588	1.3688e-05	65.156	81.334	358.179	82.252	60.531	187.227	338.031	60.769	64.927	194.208	394.321	64.845	70.846	69.674	75.928	392.086	75.977	-8191	255	
7598.902	1	1	0	0	0.3108	0.094998	0.18966	0.32076	0.11638	0.191	0.14481	0.36678	0.036014	0.24342	0.24876	0.010457	0.1956	0.16572	0.263	0.27946	-1.1229	-1.8771	-1.9354	-1.7833	-2.0354	-1.9813	-1.6208	-2.1854	-1.9646	-1.7021	-2.2812	-1.7958	-1.8979	-1.9625	-1.5771	-2.5646	347.307	174.433	193.069	368.643	91.922	240.666	143.776	367.286	186.085	260.389	337.216	380.152	325.166	389.739	206.874	385.972	0.0012146	0.0012244	0.00017067	782.37	1.3602e-06	5.2445e-06	1110.6	228.92	7.4845e-06	4.8837e-06	393.17	130.62	58.245	19.358	1.1948e-05	59.305	0.0013163	0.001308	0.00035014	881.27	1.4741e-05	1.4358e-05	1194.5	260.41	1.4868e-05	1.4298e-05	436.66	146.55	79.128	26.405	1.363e-05	65.599	67.121	362.567	286.233	60.717	359.584	406.029	60.808	65.254	234.027	66.961	65.306	70.815	69.943	76.209	86.790	76.310	-8191	255	
7598.998	1	1	0	0	0.092195	0.2228	0.16606	0.19871	0.10293	0.052541	0.10162	0.014782	0.16701	0.16647	0.37897	0.22518	0.13273	0.084508	0.14906	0.15262	-1.4	-1.7542	-2.1646	-1.8458	-2.0458	-2.1583	-1.8583	-2.3833	-1.6562	-1.6542	-2.4354	-1.5479	-2.0271	-2.1063	-1.3625	-2.175	387.554	149.614	109.590	388.910	212.229	389.414	403.047	196.426	58.297	282.193	359.258	341.924	236.409	196.921	374.685	48.110	0.0014565	0.00094227	7.2883e-05	794.03	1.0393e-05	6.2093e-06	1111.3	228.97	4.4379e-06	3.4482e-06	393.05	131.15	58.561	19.394	1.2799e-05	59.415	0.0013716	0.0012866	0.00034705	892.25	1.5004e-05	1.4093e-05	1196.1	262.83	1.488e-05	1.3952e-05	435.43	147.85	79.375	26.236	1.3541e-05	66.471	73.760	69.260	143.238	60.476	216.065	197.130	60.619	65.400	136.517	318.851	64.962	70.385	70.277	76.203	246.629	76.247	-8191	255	
7599.094	1	1	0	0	0.17164	0.27143	0.17526	0.15656	0.011542	0.13899	0.29362	0.26533	0.098495	0.26017	0.2437	0.1068	0.1639	0.080117	0.12451	0.074483	-1.5063	-1.6021	-2.3167	-1.7375	-2.0479	-2.125	-1.7458	-2.1729	-2.0062	-1.7583	-2.3146	-2.0833	-1.725	-2.0812	-1.5792	-1.9167	97.712	218.232	364.324	115.968	297.622	153.773	358.480	392.228	251.727	332.821	295.199	205.656	75.244	148.324	345.779	394.320	0.00072992	0.00054099	6.3617e-05	787.82	5.5987e-06	3.6313e-06	1111.8	229.71	6.349e-06	4.1545e-06	393.04	130.02	58.298	19.337	1.2975e-05	58.308	0.0013584	0.0012717	0.00034817	899.56	1.4799e-05	1.391e-05	1197.3	266.02	1.4733e-05	1.3783e-05	437.34	149.03	78.695	26.055	1.3728e-05	65.91	90.555	395.245	231.684	60.619	78.456	171.806	60.794	65.214	387.509	177.199	65.026	70.899	69.676	76.156	85.703	76.143	-8191	255	
7599.190	1	1	0	0	0.038874	0.032567	0.23255	0.15332	0.49861	0.17139	0.23535	0.2238	0.11182	0.12915	0.18865	0.11576	0.1923	0.22936	0.10143	0.13644	-1.5917	-1.8729	-2.05	-2.1312	-1.7188	-2.0729	-1.7708	-2.0458	-1.9271	-1.5938	-2.1813	-1.9208	-1.6729	-2.2521	-1.5583	-2.025	259.409	95.490	370.364	361.797	74.082	110.035	316.669	391.020	366.301	51.027	238.641	393.358	85.093	118.062	78.540	152.491	0.0012488	0.00026299	0.00022984	802.16	6.2483e-06	6.2012e-06	1116.5	233.35	6.2915e-06	4.6677e-06	396.82	131.1	58.785	19.391	1.655e-05	59.341	0.001307	0.0012368	0.00035145	915.2	1.4229e-05	1.3551e-05	1207.6	270.22	1.4146e-05	1.3608e-05	441.96	149.62	78.064	25.957	1.4394e-05	66.88	85.541	387.638	99.895	60.642	287.167	65.306	60.652	64.775	299.528	185.945	65.033	70.748	69.599	75.740	190.803	75.645	-8191	255	
7599.309	1	1	0	0	0.1312	0.19469	0.20733	0.070314	0.33239	0.04878	0.12833	0.18069	0.078573	0.039704	0.087721	0.08336	0.21351	0.14611	0.20073	0.099114	-1.5229	-1.4417	-2.2458	-1.9771	-1.7687	-2.2958	-1.8667	-1.925	-2.1063	-1.575	-2.1417	-2.0479	-1.7583	-2.3479	-1.8104	-1.7729	59.518	187.727	128.715	324.783	51.498	112.111	78.473	339.959	208.326	194.851	110.853	230.145	317.923	402.474	201.768	223.759	0.0011752	0.00023781	0.00020708	789.01	5.3216e-06	7.2071e-06	1108.8	229.77	2.4714e-05	2.2324e-06	392.13	129.21	58.362	19.07	4.4235e-06	57.797	0.0012717	0.0012285	0.00036718	902.3	1.3859e-05	1.3356e-05	1205.7	265.83	1.3701e-05	1.3268e-05	440.61	147.58	76.75	25.512	1.4645e-05	65.111	102.432	273.887	141.643	60.558	249.304	147.127	60.922	64.603	113.376	212.959	64.712	70.598	70.077	75.216	102.887	75.856	-8191	255	
7599.382	1	1	0	0	0.23643	0.2426	0.15898	0.046609	0.055677	0.17718	0.29849	0.25577	0.12399	0.12015	0.089917	0.046114	0.23303	0.13559	0.3124	0.20212	-1.6458	-1.4646	-2.1771	-2.1396	-1.8	-2.1833	-1.9208	-1.8375	-2.1104	-1.7208	-1.975	-2.0646	-1.4729	-2.3104	-2.0542	-1.8687	116.649	154.329	351.950	373.635	115.755	224.298	60.364	384.210	262.199	122.281	62.746	59.403	138.538	346.647	276.289	157.544	0.00074702	0.00050551	7.1563e-05	787.34	1.685e-06	9.8813e-06	1111.1	231.28	1.004e-05	5.3976e-06	392.93	128.79	58.41	18.85	7.7008e-06	57.403	0.001232	0.0012124	0.00037484	897.59	1.3381e-05	1.3313e-05	1212.9	264.53	1.3386e-05	1.3441e-05	443.08	146.2	76.177	25.609	1.5037e-05	64.496	68.061	228.470	151.119	60.762	282.374	149.062	60.761	64.815	350.742	223.661	64.820	70.621	70.067	75.974	327.939	76.078	-8191	255	
7599.501	1	1	0	0	0.14775	0.069467	0.081261	0.36989	0.08087	0.1917	0.32215	0.2299	0.21164	0.167	0.32795	0.063017	0.23545	0.32302	0.041359	0.18812	-1.7208	-1.6417	-2.1479	-2.1375	-1.5	-2.2292	-2.2292	-1.8958	-2.3604	-1.8625	-2.0812	-2.2792	-1.7667	-2.1396	-1.8479	-1.8438	398.470	363.433	72.472	49.182	371.981	318.309	376.218	360.462	245.247	69.844	345.642	189.939	178.975	83.138	197.828	364.176	0.00079182	0.00065821	0.00040779	791.88	1.051e-05	1.0703e-05	1109.1	228.94	1.1218e-05	1.2093e-05	391.64	129.47	57.89	18.95	6.3909e-06	57.902	0.0012132	0.0012494	0.00038042	894.56	1.318e-05	1.3817e-05	1213.2	263.21	1.3237e-05	1.4016e-05	442.7	145.49	75.761	25.989	1.4787e-05	64.389	78.553	203.164	170.806	60.800	142.613	161.843	60.811	64.885	382.385	237.413	64.780	70.713	70.102	75.661	265.705	75.844	-8191	255	
7599.597	1	1	0	0	0.16513	0.058903	0.081713	0.055769	0.11456	0.078884	0.14952	0.24203	0.042402	0.14248	0.065928	0.18905	0.036992	0.16601	0.08026	0.1262	-1.7708	-1.7021	-1.8354	-2.2125	-1.5979	-2.2604	-2.0896	-1.7771	-2.2687	-1.8396	-1.9083	-2.1104	-1.6375	-2.0396	-2.2833	-1.6917	150.226	103.923	189.277	210.651	60.788	256.020	312.551	273.099	91.147	292.018	389.307	296.229	339.215	181.039	269.685	360.477	0.0011764	0.0013284	0.00018501	787.33	1.5288e-05	8.3943e-06	1102	229.15	6.0953e-06	7.7222e-06	390.17	130.27	58.098	19.453	1.6695e-05	59.797	0.0012014	0.0013138	0.00037394	887.79	1.324e-05	1.465e-05	1206.5	260.96	1.3305e-05	1.4774e-05	440.29	146.49	76.422	26.848	1.4579e-05	66.247	100.465	212.801	321.455	60.831	148.555	157.869	60.443	65.042	198.195	173.856	64.711	70.857	70.055	75.787	381.626	75.891	-8191	255	
7599.694	1	1	0	0	0.085585	0.25692	0.074338	0.071189	0.11852	0.18179	0.07094	0.34658	0.086886	0.19815	0.27768	0.36284	0.088168	0.11933	0.13258	0.21545	-1.8646	-1.8333	-1.8188	-2.2833	-1.7437	-2.1125	-2.2542	-1.8229	-1.9688	-1.9396	-1.9854	-2.3187	-1.7	-1.8854	-2.2125	-1.7417	265.610	393.301	364.828	333.318	247.609	390.597	131.915	325.426	196.763	91.562	325.958	335.984	241.523	177.011	326.635	61.296	0.0012733	0.00091888	0.00053	771.28	1.457e-05	1.6863e-06	1084.9	221.21	9.3569e-06	2.1727e-06	388.89	130.72	57.47	19.766	6.0738e-06	61.287	0.0012381	0.0013777	0.0003679	870.04	1.3729e-05	1.5056e-05	1183.3	254.34	1.3909e-05	1.5104e-05	434.26	146.55	76.68	27.226	1.4054e-05	66.685	90.672	172.787	334.874	60.775	205.869	356.430	60.800	65.229	149.444	201.461	65.281	70.790	70.144	76.185	202.909	76.171	-8191	255	
7599.790	1	1	0	0	0.1074	0.10527	0.018721	0.24723	0.20095	0.11647	0.17638	0.50246	0.47747	0.11445	0.078329	0.01712	0.14012	0.096053	0.15233	0.21524	-1.7542	-1.9146	-1.6875	-2.3021	-1.5479	-1.8583	-2.2708	-1.5021	-1.975	-1.8937	-1.5542	-2.2125	-1.8792	-1.7917	-2.1813	-1.7333	335.965	101.525	319.449	312.185	82.448	213.766	49.997	374.183	278.211	302.830	340.520	259.060	402.277	401.293	148.535	389.341	0.0018207	0.00055202	0.00014472	770.07	1.6469e-05	6.3089e-06	1088.9	224.68	2.0338e-05	3.3232e-06	387.79	129.27	57.591	19.118	9.1953e-06	58.699	0.0012722	0.0013484	0.00035192	864.87	1.4082e-05	1.4612e-05	1178.5	255.33	1.4129e-05	1.4449e-05	430.72	144.2	77.251	26.221	1.3501e-05	64.609	88.904	257.446	149.002	60.887	153.191	205.365	60.696	65.008	151.367	232.800	65.396	71.115	69.904	75.755	218.756	76.066	-8191	255	
7599.910	1	1	0	0	0.016331	0.074207	0.12609	0.090227	0.33403	0.16672	0.26549	0.096798	0.36588	0.11768	0.056469	0.25515	0.24949	0.29883	0.082146	0.28461	-1.4958	-2.0958	-1.6187	-2.2583	-1.7646	-1.8354	-2.1896	-1.7333	-1.9625	-2.1063	-1.7896	-2.0729	-1.9771	-1.8042	-2.0062	-1.8125	313.896	193.493	313.996	181.747	370.172	255.106	329.846	252.153	316.478	51.673	232.432	324.606	401.713	301.812	330.888	189.977	0.0015479	0.00058447	3.6402e-05	778.97	9.1152e-06	6.1303e-06	1091.1	224.83	7.9383e-06	1.9692e-06	385.2	128.54	57.348	18.848	9.1793e-06	58.767	0.0013171	0.0012969	0.00034142	871.88	1.4514e-05	1.3961e-05	1177.6	255.4	1.4495e-05	1.385e-05	426.63	143.73	77.12	25.705	1.3107e-05	64.901	85.519	151.193	325.836	60.579	94.040	366.595	60.607	64.949	120.704	201.430	64.761	70.878	69.459	75.524	158.585	75.840	-8191	255	
7599.982	1	1	0	0	0.33945	0.064964	0.08469	0.07178	0.18387	0.049045	0.23662	0.19123	0.081831	0.20879	0.0957	0.37577	0.024663	0.069265	0.2438	0.23236	-1.4896	-1.9708	-1.4021	-2.4333	-1.9312	-1.7479	-2.1	-1.7271	-1.8792	-2	-1.6396	-2.2208	-2.0625	-1.6667	-2.1188	-1.8229	368.171	369.113	329.143	406.697	314.491	342.816	345.170	256.999	239.456	255.682	304.705	326.128	158.722	324.634	357.637	338.763	0.0010373	0.00098938	7.5786e-05	768.32	3.1196e-06	1.7428e-05	1083.3	222.1	5.6255e-06	3.5638e-06	383.02	129.93	57.858	19.311	1.8827e-05	59.711	0.0013125	0.0012368	0.00033222	868.7	1.4493e-05	1.3472e-05	1169.4	255.78	1.4518e-05	1.3533e-05	426.4	146.45	77.711	25.951	1.3113e-05	66.525	88.835	154.245	157.730	60.778	328.436	346.104	60.588	65.098	213.526	280.596	65.066	70.834	69.639	76.369	182.605	76.144	-8191	255	
7600.078	1	1	0	0	0.32546	0.11922	0.1771	0.11749	0.066747	0.27932	0.26581	0.16469	0.21113	0.2326	0.12113	0.078067	0.13495	0.26095	0.13272	0.16275	-1.3833	-2.0604	-1.6583	-1.9771	-2.0854	-1.6021	-2.2792	-1.8854	-1.7062	-2.1937	-1.5667	-2.2375	-1.9229	-1.5229	-2.2271	-1.8521	143.539	354.427	371.816	363.449	264.545	394.972	330.173	334.827	315.738	303.280	377.796	360.636	187.805	378.152	171.698	333.821	0.0011866	0.00081674	0.00025114	772.12	5.9299e-06	6.0255e-06	1086.3	223.03	1.3747e-05	7.3453e-06	386.38	129.18	57.423	19.333	1.4545e-05	59.712	0.0013108	0.0012265	0.00033648	877.72	1.4366e-05	1.3426e-05	1169.6	258.51	1.4145e-05	1.3497e-05	428.38	147.69	77.039	25.831	1.3436e-05	66.731	78.406	164.080	81.728	60.797	214.779	204.194	60.746	65.139	77.659	358.539	65.098	71.083	69.954	75.924	210.641	76.006	-8191	255	
7600.174	1	1	0	0	0.081642	0.025334	0.27387	0.087378	0.16828	0.041832	0.19189	0.24401	0.33319	0.18744	0.16743	0.18554	0.26607	0.17123	0.080416	0.23795	-1.2042	-1.975	-1.9271	-1.9521	-2.0146	-1.5688	-2.2667	-2.0229	-1.7354	-2.1521	-1.775	-1.9042	-1.9625	-1.3646	-2.1146	-1.7208	142.894	79.317	66.057	52.475	122.005	167.690	332.058	394.102	180.637	282.780	209.017	246.698	386.590	119.020	141.336	62.703	0.00090578	0.00058076	0.0003258	768.49	1.1016e-05	6.4973e-06	1085	223.79	8.7504e-06	9.4609e-06	386.41	129.1	56.758	19.374	9.9417e-06	59.211	0.0012749	0.0012213	0.00034586	883.89	1.3956e-05	1.3352e-05	1176.5	260.76	1.3788e-05	1.3362e-05	432.74	148.07	76.575	25.779	1.424e-05	66.669	77.813	378.105	203.033	60.954	101.669	298.471	60.841	64.958	173.771	197.820	65.036	70.876	69.962	75.985	160.703	75.909	-8191	255	
7600.293	1	1	0	0	0.13571	0.25265	0.15232	0.19521	0.17549	0.13894	0.30258	0.099509	0.25112	0.36853	0.28629	0.21609	0.39782	0.12167	0.070999	0.19081	-1.1	-2.15	-1.6063	-2.125	-2.1375	-1.3521	-2.2208	-2.1167	-1.5958	-2.1083	-1.8646	-1.9583	-1.9	-1.6458	-1.8875	-2.3312	135.204	250.746	186.569	201.546	119.377	274.078	269.794	200.596	335.718	130.115	384.305	388.865	59.141	403.629	174.877	386.980	0.00085704	0.00073288	0.00019493	777.92	5.4265e-06	1.0983e-05	1091	225.67	1.316e-05	8.511e-06	388.99	129.14	57.977	19.256	6.8707e-06	58.829	0.0012709	0.0012309	0.00037097	891.34	1.4015e-05	1.3564e-05	1196.9	264.45	1.4005e-05	1.3654e-05	441.1	148.38	77.137	25.964	1.5126e-05	66.34	77.790	233.917	133.164	60.746	293.229	198.135	60.718	64.809	211.757	252.663	65.029	70.686	69.940	75.895	214.177	76.255	-8191	255	
7600.389	1	1	0	0	0.061819	0.19487	0.16749	0.19663	0.15397	0.32831	0.16712	0.33722	0.16318	0.31829	0.26847	0.19706	0.20247	0.12985	0.27384	0.12226	-1.1833	-1.9854	-1.8604	-1.7938	-2.2562	-1.6521	-2.0708	-2.1708	-1.5312	-2.1792	-1.9792	-1.6521	-2.3312	-1.6771	-2.0583	-1.9896	276.451	52.981	355.670	311.203	346.812	209.253	220.823	347.222	134.548	257.770	405.041	345.326	284.760	246.010	215.272	55.352	0.001076	0.00048871	0.00040339	780.72	9.6283e-06	8.534e-06	1095.3	225.8	1.0766e-05	5.5185e-06	393.01	128.86	58.038	19.457	1.1761e-05	58.898	0.0012565	0.0012488	0.00038827	890.46	1.376e-05	1.3699e-05	1203.2	262.66	1.3762e-05	1.3948e-05	443.58	147.08	76.687	26.162	1.535e-05	65.871	85.843	179.884	189.518	60.684	167.503	179.432	60.812	64.887	238.421	197.545	64.915	70.788	69.830	75.963	205.659	75.734	-8191	255	
7600.486	1	1	0	0	0.11156	0.20669	0.3026	0.24028	0.20396	0.182	0.13027	0.081681	0.2083	0.075096	0.2091	0.20057	0.37962	0.16604	0.17821	0.24176	-1.1917	-2.0312	-1.6667	-1.8979	-2.1458	-1.8167	-2.0396	-2.0667	-1.6229	-2.075	-2.1104	-1.8375	-2.3792	-1.5438	-1.8813	-2.2396	362.276	146.564	85.013	339.496	144.310	81.767	193.857	363.695	101.216	116.285	344.618	53.782	394.699	200.085	153.135	374.299	0.0011988	0.0022057	0.0001789	776.3	4.5995e-06	1.7288e-05	1089.7	224.64	3.5702e-06	8.5226e-06	388.18	130.02	58.023	19.546	6.0245e-06	59.008	0.0012309	0.0012855	0.00039003	879.95	1.3526e-05	1.427e-05	1197.7	259.96	1.3459e-05	1.4471e-05	441.11	146.69	76.148	26.62	1.4905e-05	65.687	86.543	121.818	259.680	60.731	109.359	160.559	60.883	64.900	356.923	192.310	65.344	70.676	69.894	76.338	378.955	76.019	-8191	255	
7600.582	1	1	0	0	0.37624	0.29481	0.092874	0.19865	0.071155	0.053246	0.079022	0.26315	0.16762	0.1034	0.16613	0.086243	0.31915	0.094487	0.20273	0.13963	-1.3625	-1.9521	-2.175	-1.7375	-2.3	-1.8375	-2.0521	-2.1479	-1.5896	-2.0583	-2.1896	-1.6417	-2.1917	-1.975	-1.9354	-2.1854	136.007	120.638	190.269	69.015	276.138	151.917	267.855	308.977	148.602	249.447	323.232	65.293	358.099	392.601	357.123	358.228	0.00078791	0.0015481	0.00012672	763.77	5.4314e-06	1.171e-05	1084.6	223.84	6.5381e-06	2.9478e-06	388.1	129.48	57.441	19.302	7.0211e-06	59.348	0.00121	0.0013328	0.00037492	867.25	1.3215e-05	1.457e-05	1182.4	255.9	1.3221e-05	1.4688e-05	434.04	144.9	75.469	26.68	1.4213e-05	65.573	66.012	151.199	139.616	60.786	138.315	172.277	60.679	64.698	108.645	144.856	64.892	70.779	69.908	76.235	148.505	75.767	-8191	255	
7600.678	1	1	0	0	0.27336	0.11876	0.32001	0.11842	0.217	0.20135	0.41703	0.15838	0.057069	0.19139	0.32002	0.10418	0.20736	0.10586	0.084684	0.09826	-1.3292	-2.1312	-2.0854	-1.8563	-2.1708	-1.8708	-1.9562	-2.5229	-1.6625	-1.8188	-2.2021	-1.6646	-1.9688	-1.8583	-1.6688	-2.225	392.695	353.982	330.467	384.482	330.251	83.354	329.072	297.037	181.311	326.908	47.912	399.159	210.255	153.553	107.469	367.155	0.0013636	0.0010541	0.0002706	754.1	1.6542e-05	5.5411e-06	1072.8	219.25	1.8262e-05	4.3669e-06	381.71	128.59	56.924	19.274	3.8078e-06	60.039	0.0012155	0.0013375	0.00035724	851.7	1.347e-05	1.4623e-05	1164.3	251.33	1.3581e-05	1.4606e-05	427.59	144.01	75.496	26.596	1.3579e-05	65.731	95.660	106.110	67.280	60.876	207.926	165.725	60.636	64.999	194.255	385.521	64.988	70.984	70.160	75.574	119.865	76.307	-8191	255	
#DATA ENDS
