BOXY.EXE: ISS Imagent and Oximeter Data Acquisition Program Version 0.80
Ascii Record File

#ACQ INFORMATION
2  Detector Channels 
16  External MUX Channels 
1  Auxiliary Channels 
5000  Waveform (CCF) Frequency (Hz)
1  Waveforms Skipped 
30  Waveforms Averaged 
1  Cycles Averaged 
16  Acquisitions per Waveform 
10.0806  Updata Rate (Hz) 

#FILE INFORMATION
TRUE -- External MUX Channel results are PARSED.
FALSE -- AC DC and Phase are NOT grouped.
TRUE -- Companion Program Settings File CREATED.
FALSE -- AC data not excluded
FALSE -- DC data not excluded
FALSE -- Phase data not excluded
FALSE -- Auxillary Chn. data not excluded
Tab delimiters

#CALIBRATION STATE
TRUE -- Waveform Calibration Values APPLIED.


#AUX CALIBRATION VALUES
Val Type	aux-1	

Term	1.0000e+00	
Factor	0.0000e+00	


#WF CALIBRATION VALUES
A = Detector Channel
Val Type	A-AC1	A-AC2	A-AC3	A-AC4	A-AC5	A-AC6	A-AC7	A-AC8	A-AC9	A-AC10	A-AC11	A-AC12	A-AC13	A-AC14	A-AC15	A-AC16	A-DC1	A-DC2	A-DC3	A-DC4	A-DC5	A-DC6	A-DC7	A-DC8	A-DC9	A-DC10	A-DC11	A-DC12	A-DC13	A-DC14	A-DC15	A-DC16	A-Ph1	A-Ph2	A-Ph3	A-Ph4	A-Ph5	A-Ph6	A-Ph7	A-Ph8	A-Ph9	A-Ph10	A-Ph11	A-Ph12	A-Ph13	A-Ph14	A-Ph15	A-Ph16	

Term	0.00000e+00	0.00000e+00	0.00000e+00	0.00000e+00	0.00000e+00	0.00000e+00	0.00000e+00	0.00000e+00	0.00000e+00	0.00000e+00	0.00000e+00	0.00000e+00	0.00000e+00	0.00000e+00	0.00000e+00	0.00000e+00	0.00000e+00	0.00000e+00	0.00000e+00	0.00000e+00	0.00000e+00	0.00000e+00	0.00000e+00	0.00000e+00	0.00000e+00	0.00000e+00	0.00000e+00	0.00000e+00	0.00000e+00	0.00000e+00	0.00000e+00	0.00000e+00	0.00000e+00	0.00000e+00	0.00000e+00	0.00000e+00	0.00000e+00	0.00000e+00	0.00000e+00	0.00000e+00	0.00000e+00	0.00000e+00	0.00000e+00	0.00000e+00	0.00000e+00	0.00000e+00	0.00000e+00	0.00000e+00	
Factor	1.00000e+00	1.00000e+00	1.00000e+00	1.00000e+00	1.00000e+00	1.00000e+00	1.00000e+00	1.00000e+00	1.00000e+00	1.00000e+00	1.00000e+00	1.00000e+00	1.00000e+00	1.00000e+00	1.00000e+00	1.00000e+00	1.00000e+00	1.00000e+00	1.00000e+00	1.00000e+00	1.00000e+00	1.00000e+00	1.00000e+00	1.00000e+00	1.00000e+00	1.00000e+00	1.00000e+00	1.00000e+00	1.00000e+00	1.00000e+00	1.00000e+00	1.00000e+00	X	X	X	X	X	X	X	X	X	X	X	X	X	X	X	X	

B = Detector Channel
Val Type	B-AC1	B-AC2	B-AC3	B-AC4	B-AC5	B-AC6	B-AC7	B-AC8	B-AC9	B-AC10	B-AC11	B-AC12	B-AC13	B-AC14	B-AC15	B-AC16	B-DC1	B-DC2	B-DC3	B-DC4	B-DC5	B-DC6	B-DC7	B-DC8	B-DC9	B-DC10	B-DC11	B-DC12	B-DC13	B-DC14	B-DC15	B-DC16	B-Ph1	B-Ph2	B-Ph3	B-Ph4	B-Ph5	B-Ph6	B-Ph7	B-Ph8	B-Ph9	B-Ph10	B-Ph11	B-Ph12	B-Ph13	B-Ph14	B-Ph15	B-Ph16	

Term	0.00000e+00	0.00000e+00	0.00000e+00	0.00000e+00	0.00000e+00	0.00000e+00	0.00000e+00	0.00000e+00	0.00000e+00	0.00000e+00	0.00000e+00	0.00000e+00	0.00000e+00	0.00000e+00	0.00000e+00	0.00000e+00	0.00000e+00	0.00000e+00	0.00000e+00	0.00000e+00	0.00000e+00	0.00000e+00	0.00000e+00	0.00000e+00	0.00000e+00	0.00000e+00	0.00000e+00	0.00000e+00	0.00000e+00	0.00000e+00	0.00000e+00	0.00000e+00	-2.02558e+02	-1.16413e+02	-1.30120e+02	-1.82161e+02	-9.57707e+01	-1.01369e+02	-1.59306e+02	-1.62015e+02	-1.14350e+02	-5.77035e+01	-1.70639e+02	-1.72301e+02	-1.77500e+02	-1.76674e+02	-5.36760e+01	-1.49496e+02	
Factor	4.10936e-05	9.52974e-05	2.49006e-05	1.49428e-01	8.83243e-07	8.91524e-07	1.68800e-01	4.93801e-02	1.17695e-06	7.15398e-07	8.34437e-02	2.98807e-02	2.54106e-02	8.75613e-03	1.20421e-06	1.26828e-02	6.26555e-07	6.35961e-07	1.78841e-07	7.42432e-02	6.95763e-09	6.96690e-09	7.86376e-02	2.43642e-02	6.96256e-09	6.98071e-09	3.91092e-02	1.39300e-02	1.23175e-02	4.23067e-03	7.03845e-09	5.88851e-03	X	X	X	X	X	X	X	X	X	X	X	X	X	X	X	X	



#DISTANCE SETTINGS
A = Detector Channel
A-1	A-2	A-3	A-4	A-5	A-6	A-7	A-8	A-9	A-10	A-11	A-12	A-13	A-14	A-15	A-16	

2.5000e+00	3.0000e+00	2.5000e+00	3.0000e+00	2.0000e+00	3.0000e+00	1.5000e+00	3.0000e+00	3.0000e+00	3.0000e+00	3.0000e+00	3.0000e+00	3.0000e+00	3.0000e+00	1.5000e+00	3.0000e+00	

B = Detector Channel
B-1	B-2	B-3	B-4	B-5	B-6	B-7	B-8	B-9	B-10	B-11	B-12	B-13	B-14	B-15	B-16	

1.0000e+01	1.0000e+01	1.0000e+01	1.4400e+00	1.0000e+01	1.0000e+01	1.5100e+00	1.9400e+00	1.0000e+01	1.0000e+01	1.9900e+00	2.4900e+00	2.4100e+00	2.9000e+00	1.0000e+01	2.9800e+00	




#DATA BEGINS
time	group	step	mark	flag	A-AC1	A-AC2	A-AC3	A-AC4	A-AC5	A-AC6	A-AC7	A-AC8	A-AC9	A-AC10	A-AC11	A-AC12	A-AC13	A-AC14	A-AC15	A-AC16	A-DC1	A-DC2	A-DC3	A-DC4	A-DC5	A-DC6	A-DC7	A-DC8	A-DC9	A-DC10	A-DC11	A-DC12	A-DC13	A-DC14	A-DC15	A-DC16	A-Ph1	A-Ph2	A-Ph3	A-Ph4	A-Ph5	A-Ph6	A-Ph7	A-Ph8	A-Ph9	A-Ph10	A-Ph11	A-Ph12	A-Ph13	A-Ph14	A-Ph15	A-Ph16	B-AC1	B-AC2	B-AC3	B-AC4	B-AC5	B-AC6	B-AC7	B-AC8	B-AC9	B-AC10	B-AC11	B-AC12	B-AC13	B-AC14	B-AC15	B-AC16	B-DC1	B-DC2	B-DC3	B-DC4	B-DC5	B-DC6	B-DC7	B-DC8	B-DC9	B-DC10	B-DC11	B-DC12	B-DC13	B-DC14	B-DC15	B-DC16	B-Ph1	B-Ph2	B-Ph3	B-Ph4	B-Ph5	B-Ph6	B-Ph7	B-Ph8	B-Ph9	B-Ph10	B-Ph11	B-Ph12	B-Ph13	B-Ph14	B-Ph15	B-Ph16	aux-1	digaux	

6676.109	1	1	0	256	0.041318	0.12308	0.067348	0.36794	0.28184	0.046195	0.30216	0.23052	0.053235	0.15768	0.085171	0.16021	0.063028	0.11035	0.1248	0.085657	-1.4062	-2.0917	-1.6521	-2.0167	-2.1021	-1.6542	-1.9792	-2.1229	-1.5688	-2.2167	-1.9562	-1.725	-2.2812	-1.7062	-1.9667	-2.1396	206.202	193.700	150.683	400.371	389.380	377.040	377.726	75.712	142.899	215.143	348.319	412.638	330.877	386.185	310.036	359.152	0.00063991	0.00016604	1.4396e-05	992.17	3.2931e-06	3.6763e-06	1095.7	211.65	3.9555e-06	2.2595e-06	271.09	77.301	59.569	17.394	6.8079e-06	24.66	0.00025196	0.00024098	7.7796e-05	969.4	2.7369e-06	2.6429e-06	1067.1	208.84	2.689e-06	2.6405e-06	267.36	76.667	59.132	17.776	3.1084e-06	25.161	82.176	223.301	346.771	66.978	401.361	158.273	66.957	74.492	198.133	271.344	74.340	80.950	81.538	88.820	269.180	87.859	-8191	255	
6676.228	1	1	0	0	0.12884	0.13889	0.27853	0.24526	0.087727	0.095715	0.15161	0.077948	0.12716	0.20228	0.2673	0.13576	0.082129	0.20077	0.088933	0.16356	-1.3229	-1.8646	-1.8854	-1.9021	-2.2375	-1.6375	-2.1854	-2.3333	-1.5125	-2.2042	-2.0042	-1.5187	-2.2375	-1.875	-1.9229	-2.2	282.139	130.408	383.832	110.764	192.623	97.761	370.073	316.699	110.508	334.454	402.568	401.305	413.975	165.354	193.131	91.003	0.00075597	0.00042317	0.00011106	991.85	7.8787e-07	5.3194e-06	1095.2	210.65	2.1569e-06	2.6713e-06	271.77	76.933	59.731	17.514	1.9469e-06	24.736	0.00024762	0.0002478	8.0245e-05	965.21	2.6315e-06	2.8068e-06	1067.8	208.19	2.6677e-06	2.8636e-06	267.34	76.29	58.985	17.926	3.1229e-06	25.06	78.986	231.731	78.401	67.081	70.403	93.676	67.233	74.646	335.101	220.729	74.182	81.163	81.359	88.589	161.342	88.025	-8191	255	
6676.324	1	1	0	0	0.21796	0.19958	0.30438	0.3251	0.1283	0.15067	0.12461	0.054313	0.12579	0.23758	0.065478	0.21245	0.20694	0.16315	0.11442	0.1288	-1.1562	-2.0958	-1.75	-1.8729	-2.0375	-1.8208	-1.8438	-2.2479	-1.7854	-1.9813	-2.1063	-1.6896	-2.1396	-1.9708	-1.7042	-2.3	413.552	394.064	61.449	416.322	346.027	153.382	391.480	102.545	96.915	380.689	134.665	89.956	347.104	140.784	205.561	118.700	0.00058562	0.00077115	1.8765e-05	992.69	3.2909e-06	4.1194e-06	1098.6	210.73	3.4529e-06	8.8789e-07	271.44	77.152	59.654	17.434	3.211e-06	24.782	0.00024689	0.00026916	7.9003e-05	966.5	2.6296e-06	3.0254e-06	1068.4	208.09	2.6812e-06	3.0546e-06	266.65	76.293	59.088	18.033	2.9977e-06	25.035	86.618	191.160	241.720	67.170	213.851	116.099	67.232	74.338	142.541	247.161	74.293	80.833	81.517	88.450	343.682	87.783	-8191	255	
6676.421	1	1	0	0	0.078665	0.18784	0.23491	0.12011	0.12778	0.29407	0.35714	0.11719	0.16244	0.17402	0.078827	0.1092	0.099671	0.26075	0.19635	0.10503	-1.3021	-1.9958	-2.0792	-1.6729	-2.2979	-1.7729	-1.9708	-2.1917	-1.7229	-1.8854	-2.2167	-1.8312	-2.2292	-1.9104	-1.8854	-2.1604	310.908	371.940	146.157	387.416	70.178	99.505	365.825	202.258	326.579	336.659	308.439	322.603	92.321	103.015	195.459	367.573	0.00062627	0.0010064	9.15e-05	995.26	3.6139e-06	5.5727e-06	1097	210.92	3.3215e-06	3.3256e-06	271.27	76.708	58.967	17.26	2.9718e-06	24.574	0.00024903	0.00028664	7.6273e-05	965.7	2.7651e-06	3.1313e-06	1067.3	207.9	2.7717e-06	3.1216e-06	265.82	76.075	59.168	17.975	2.8462e-06	24.905	88.157	180.138	111.358	67.087	235.597	173.161	66.807	74.499	161.483	252.511	73.936	81.189	81.420	88.809	304.071	87.464	-8191	255	
6676.492	1	1	0	0	0.14122	0.065027	0.16231	0.37938	0.11324	0.14563	0.25591	0.30791	0.23997	0.051752	0.15797	0.28171	0.38875	0.28058	0.101	0.10554	-1.3937	-1.8271	-2.0667	-1.6292	-2.0604	-2.1708	-1.625	-2.2021	-1.7479	-1.9167	-2.1833	-1.4167	-1.9	-2.0312	-1.8167	-2.1792	236.670	141.391	103.431	305.054	130.201	59.214	314.276	284.247	409.669	360.452	284.337	356.067	374.838	196.163	235.871	127.111	0.00044919	0.00014958	8.2565e-05	987.56	3.6587e-06	1.1586e-06	1096.6	210.3	4.4705e-06	3.4282e-06	272.57	77.148	59.46	17.265	1.0599e-06	24.679	0.00026066	0.00028175	7.2757e-05	962.58	2.9438e-06	3.1458e-06	1064.9	207.76	2.9842e-06	3.1256e-06	265.69	75.974	59.742	17.957	2.8167e-06	24.961	412.559	146.818	115.024	66.940	165.132	106.270	66.920	74.614	104.204	195.658	74.277	80.855	80.991	88.380	251.448	87.558	-8191	255	
6676.613	1	1	0	0	0.13611	0.10545	0.1935	0.17586	0.16088	0.3146	0.327	0.4396	0.21136	0.28699	0.068356	0.049609	0.12328	0.17164	0.084132	0.14967	-1.3438	-1.8792	-2.3917	-1.8354	-2.0208	-2.0292	-1.9062	-2.2542	-1.7229	-1.7417	-2.1646	-1.5562	-1.9417	-2.1875	-1.4854	-2.1333	397.592	368.573	357.320	360.423	260.952	67.461	72.760	348.257	386.020	380.176	223.872	100.509	97.675	279.742	353.526	184.816	0.00064282	0.00042706	7.2369e-05	986.31	2.5159e-06	1.1408e-06	1098.2	211.46	7.7256e-06	1.9801e-06	271.87	76.652	59.579	17.232	5.333e-07	24.417	0.00028179	0.00027565	7.098e-05	962.27	3.0562e-06	2.9631e-06	1064.2	207.83	3.0856e-06	2.9697e-06	265.39	76.031	59.72	17.865	2.7702e-06	24.987	91.514	270.390	415.718	67.211	131.378	299.815	66.812	74.775	169.581	249.702	74.340	81.244	81.349	88.853	366.520	87.666	-8191	255	
6676.709	1	1	0	0	0.19576	0.13667	0.13261	0.31708	0.14349	0.24501	0.3688	0.13727	0.13663	0.052615	0.19434	0.18896	0.19261	0.35319	0.075618	0.078028	-1.2458	-1.8188	-2.2062	-1.9292	-1.9	-2.1146	-1.7083	-2.2562	-2.0792	-1.7396	-2.3083	-1.9229	-1.8167	-2.3021	-1.4854	-2.1292	346.133	142.819	356.326	373.876	319.092	196.882	352.263	105.739	355.246	329.409	74.068	337.468	63.952	164.136	115.964	365.331	0.00067837	0.00031966	0.00011246	993.38	6.2224e-07	1.9447e-06	1094.9	211.19	2.6461e-06	3.4181e-06	271.94	76.843	59.691	17.258	6.0571e-06	24.587	0.00028913	0.00026347	6.9354e-05	966.47	3.1254e-06	2.8575e-06	1064.3	208.01	3.1231e-06	2.851e-06	264.79	76.334	59.735	17.817	2.711e-06	25.13	79.655	66.300	59.685	67.027	98.641	293.894	67.141	74.616	141.198	403.447	74.049	81.259	81.263	88.601	233.917	88.209	-8191	255	
6676.805	1	1	0	0	0.15977	0.037863	0.19102	0.037433	0.23455	0.1152	0.31512	0.20292	0.052714	0.10623	0.05885	0.41574	0.12002	0.0498	0.19462	0.062314	-1.4604	-1.7437	-2.0958	-1.9292	-1.7125	-2.2438	-1.8292	-2.1958	-1.8188	-1.6479	-2.35	-1.7062	-2.0375	-2.0229	-1.7167	-2.0854	143.523	132.746	160.593	69.996	380.236	221.232	354.024	399.570	172.279	315.819	227.679	57.399	406.744	232.679	316.485	351.230	0.0005614	0.00070195	0.00010335	992.01	3.6071e-06	4.9817e-06	1095.4	211.28	9.4167e-07	1.4095e-06	269.58	76.943	59.269	17.348	2.9676e-06	24.568	0.0002831	0.00025496	6.6788e-05	967.36	3.0549e-06	2.7794e-06	1062.7	209.22	3.051e-06	2.7619e-06	264.25	76.667	59.516	17.796	2.6879e-06	25.265	92.744	205.809	365.106	66.847	185.016	189.320	67.374	74.785	148.796	109.107	73.770	80.784	81.063	88.759	185.878	87.816	-8191	255	
6676.901	1	1	0	0	0.035018	0.072624	0.057494	0.19443	0.20108	0.14745	0.13844	0.061711	0.25163	0.12843	0.15433	0.10883	0.023855	0.27655	0.097866	0.14388	-1.7458	-1.7458	-2.2958	-2.1063	-1.6542	-2.3604	-1.9792	-2.1583	-2.0417	-1.5083	-2.3187	-1.8083	-1.8792	-2.3375	-1.7687	-1.8542	399.250	298.871	373.957	77.228	373.861	412.565	337.432	132.368	139.766	85.563	57.742	119.017	96.539	342.106	236.963	364.772	0.00058425	7.8606e-05	7.0653e-05	987.03	2.6539e-06	4.5698e-06	1098.3	210.69	3.7214e-06	2.0444e-06	272.64	76.883	58.977	17.319	5.5694e-06	24.567	0.00027363	0.00024923	6.8624e-05	966.41	2.9379e-06	2.6887e-06	1062.6	209.25	2.898e-06	2.6973e-06	265.06	76.79	59.121	17.707	2.7914e-06	25.248	95.199	291.260	298.405	67.052	294.597	178.110	66.937	74.499	384.743	409.525	73.852	81.110	81.790	88.562	214.216	87.950	-8191	255	
6677.020	1	1	0	0	0.10409	0.012608	0.22526	0.32958	0.11656	0.18533	0.20918	0.19666	0.12509	0.22231	0.066327	0.21005	0.38666	0.091842	0.1814	0.050096	-1.6042	-1.5917	-2.0771	-1.9542	-1.7229	-2.2146	-1.9896	-1.8604	-2.1417	-1.6083	-2.1354	-1.9021	-1.8521	-2.1667	-1.8833	-1.9479	304.172	282.136	271.178	404.743	324.429	144.818	379.985	363.297	109.690	257.518	72.704	322.710	139.360	222.224	220.701	376.359	0.00048939	0.00032145	0.00012364	986.31	4.1537e-06	9.3411e-07	1099.4	210.39	9.1273e-06	1.6519e-06	269.13	76.692	59.187	17.268	8.9262e-06	24.614	0.00025692	0.00024076	7.229e-05	967.48	2.8139e-06	2.6196e-06	1064.7	208.98	2.7987e-06	2.6273e-06	265.24	76.819	59.124	17.685	3.009e-06	25.162	82.941	100.055	157.122	67.090	214.405	241.826	67.259	74.540	132.260	394.388	74.100	80.752	81.556	88.780	203.839	87.864	-8191	255	
6677.116	1	1	0	0	0.025367	0.17328	0.19668	0.24689	0.32396	0.33954	0.28575	0.083151	0.15708	0.15478	0.2372	0.18086	0.27371	0.088482	0.12623	0.11959	-1.8104	-1.5854	-2.1354	-2.05	-1.7854	-2.0604	-2.0542	-1.7833	-2.2646	-1.6021	-2.4771	-2.4083	-1.6854	-2.3417	-1.9125	-1.8042	116.312	176.705	181.347	392.408	183.229	284.386	348.267	98.436	381.653	181.271	91.031	329.906	393.482	364.786	320.975	414.234	0.00045078	0.00045879	0.00019158	987.38	1.1548e-06	3.7006e-06	1093.4	210.36	2.9878e-06	3.3833e-06	269.86	76.79	59.01	17.332	5.8058e-06	24.672	0.00025426	0.00023957	7.5645e-05	964.56	2.7343e-06	2.6264e-06	1066.4	208.46	2.7386e-06	2.6659e-06	266.92	76.683	58.952	17.74	3.1561e-06	25.198	64.914	138.127	175.417	66.897	74.627	209.499	67.157	74.385	356.436	232.888	74.436	80.758	81.834	88.763	213.673	88.182	-8191	255	
6677.190	1	1	0	0	0.2445	0.13421	0.10025	0.11256	0.20162	0.088899	0.36581	0.15377	0.14872	0.031144	0.1355	0.14806	0.22155	0.1843	0.13639	0.10831	-1.7875	-1.6646	-1.9771	-2.2479	-1.7625	-2.3917	-2.1125	-1.875	-2.1583	-1.6083	-2.1417	-2.1458	-1.7667	-2.2125	-1.9958	-1.7292	407.022	344.738	293.207	364.365	334.013	171.459	375.055	325.983	411.712	240.486	325.846	61.067	347.087	206.582	401.790	177.119	0.00046913	0.00038407	5.9214e-05	993.37	1.408e-06	4.3204e-06	1098.7	210.2	8.879e-06	2.4456e-06	271.09	76.995	58.922	17.285	7.9627e-06	24.851	0.00025237	0.00025321	8.1315e-05	968.13	2.725e-06	2.8124e-06	1069.2	208.41	2.7478e-06	2.8785e-06	267.39	76.663	59.044	17.883	3.2018e-06	25.167	79.775	127.898	135.360	66.799	407.141	143.262	66.951	74.741	129.026	291.961	73.902	81.295	81.003	89.007	250.657	88.057	-8191	255	
6677.309	1	1	0	0	0.081897	0.1047	0.17481	0.2394	0.19896	0.061662	0.28965	0.1441	0.1316	0.12344	0.14506	0.16714	0.2822	0.1047	0.32483	0.24495	-1.7458	-1.5375	-1.8792	-2.2021	-1.5875	-1.9833	-2.1396	-1.6313	-2.2604	-1.8646	-1.8646	-2.1646	-1.6	-2.1229	-2.0438	-1.8312	99.133	267.197	98.486	381.893	236.801	391.241	394.149	90.962	219.379	97.648	64.828	84.885	368.328	359.055	249.178	341.371	0.00053246	0.00062135	6.9949e-05	989.77	3.1408e-06	2.293e-06	1093.3	210.36	4.146e-06	4.5126e-06	270.07	76.826	59.43	17.254	4.3732e-06	24.558	0.00024925	0.00026985	7.9198e-05	965.53	2.6769e-06	2.9695e-06	1068	208.02	2.6619e-06	3.0181e-06	266.13	76.199	59.063	17.963	3.0691e-06	24.987	87.104	176.133	414.979	66.923	188.178	147.645	66.986	74.353	181.970	240.551	73.903	80.799	81.113	88.544	367.729	87.753	-8191	255	
6677.405	1	1	0	0	0.12999	0.037796	0.25115	0.10481	0.082553	0.1846	0.29081	0.016258	0.16927	0.057258	0.25217	0.069644	0.23895	0.16679	0.08656	0.076204	-1.6375	-1.9458	-1.6333	-2.2208	-1.5812	-2.125	-2.0875	-1.7396	-2.0104	-1.975	-1.7271	-2.3146	-1.9792	-1.8958	-1.8937	-1.5729	177.378	363.731	221.869	354.040	180.166	310.496	381.779	408.305	150.125	401.041	373.457	121.544	86.155	319.596	208.223	136.341	0.00059259	0.00026441	4.4896e-05	992.11	3.4061e-06	4.3871e-06	1099.6	210.47	6.1521e-06	5.5322e-06	270.4	77.022	58.903	17.354	6.54e-06	24.651	0.00025028	0.00028277	7.7098e-05	964.49	2.7481e-06	3.158e-06	1067.1	207.9	2.7828e-06	3.189e-06	265.99	76.4	59.417	18.066	2.9795e-06	24.967	86.341	403.227	357.312	66.965	223.372	197.225	66.976	74.946	186.419	234.422	74.102	80.714	81.631	88.331	314.177	87.265	-8191	255	
6677.501	1	1	0	0	0.069398	0.2292	0.15171	0.069646	0.17028	0.079853	0.36959	0.087973	0.13181	0.084182	0.19789	0.28004	0.33716	0.074811	0.055009	0.19122	-1.8417	-1.9042	-1.475	-2.4125	-1.7583	-1.9896	-2.4188	-1.6313	-2.175	-2.0854	-1.6625	-2.5208	-1.7542	-2.0438	-2.1208	-1.6583	137.260	375.325	260.327	369.320	256.319	226.481	60.215	325.004	379.654	92.182	388.589	227.555	348.702	91.244	273.840	389.232	0.00055832	0.00045818	4.6191e-05	989.56	2.463e-06	3.1991e-06	1098.5	210.91	7.787e-06	3.9469e-06	271.41	76.816	59.193	17.244	3.0097e-06	24.615	0.00026336	0.00029305	7.4936e-05	965.39	2.9257e-06	3.1824e-06	1066.8	207.69	2.9484e-06	3.1575e-06	265.78	76.223	59.558	18.04	2.8938e-06	25.037	77.533	83.725	157.705	67.021	227.757	131.828	66.994	74.676	171.728	108.609	74.061	80.958	81.578	88.717	247.079	87.990	-8191	255	
6677.622	1	1	0	0	0.33326	0.15222	0.10997	0.21426	0.10274	0.27714	0.45004	0.07648	0.40943	0.068692	0.25251	0.19476	0.26033	0.14597	0.34868	0.022065	-1.6646	-2.0083	-1.6688	-2.3063	-1.7062	-1.8333	-2.5479	-1.6729	-2.1188	-2.0583	-1.7396	-2.1875	-1.9375	-1.7479	-2.3667	-1.8979	242.985	248.082	331.046	390.870	135.367	72.404	354.934	65.804	121.599	229.055	289.569	73.905	64.734	361.318	401.367	151.161	0.00057903	0.0007896	0.00013264	996.23	5.5451e-06	2.1835e-06	1098.5	211.42	4.0027e-06	3.4593e-06	270.99	76.997	59.045	17.393	4.2879e-06	24.747	0.00027877	0.00028445	7.381e-05	966.95	3.1021e-06	3.099e-06	1065.2	208.02	3.1569e-06	3.098e-06	265.36	76.163	59.996	17.962	2.8507e-06	25.148	95.324	158.190	300.521	67.002	217.325	233.097	66.837	74.663	200.663	344.522	74.270	81.055	81.204	88.545	181.190	88.516	-8191	255	
6677.718	1	1	0	0	0.24132	0.087618	0.16606	0.30732	0.034262	0.10401	0.39074	0.072895	0.1114	0.10123	0.20487	0.14151	0.057666	0.086402	0.070836	0.056508	-1.3333	-2.2625	-1.5333	-2.4604	-1.9333	-1.7771	-2.2208	-1.7542	-1.8687	-2.175	-1.6229	-2.3021	-1.9167	-1.7417	-2.2417	-1.7042	91.327	233.973	314.729	362.377	365.614	136.203	365.995	186.043	346.442	58.139	164.100	82.577	276.117	236.724	202.812	213.975	0.00073501	0.0005092	3.1326e-05	994.49	5.5875e-06	1.7815e-06	1092.3	211.76	2.0271e-06	5.5696e-06	271.94	76.862	59.483	17.399	4.5191e-06	24.688	0.00029428	0.00027673	7.1885e-05	966.66	3.2718e-06	2.9855e-06	1064.3	208.82	3.2151e-06	2.9646e-06	265.48	76.599	60.064	17.955	2.8048e-06	25.22	87.205	89.662	104.862	67.013	158.548	313.900	66.901	74.633	96.525	333.381	74.089	80.701	81.571	88.426	212.325	87.712	-8191	255	
6677.789	1	1	0	0	0.15444	0.11354	0.052623	0.27578	0.063439	0.20695	0.22804	0.14649	0.096952	0.029167	0.14322	0.13592	0.41911	0.063267	0.12537	0.27973	-1.5229	-2.2354	-1.4646	-2.2958	-1.9375	-1.6979	-2.4667	-1.7458	-1.9896	-2.0521	-1.6938	-2.0708	-1.8771	-1.7042	-2.0396	-1.8396	206.176	144.309	306.576	374.311	233.914	403.866	358.649	244.037	223.363	187.906	416.142	175.726	67.153	385.577	368.141	69.054	0.00043784	0.00024172	0.00015794	991.41	8.8817e-06	4.9256e-06	1099.9	210.3	2.3096e-06	2.2316e-06	273.19	76.697	59.447	17.278	2.5558e-06	24.589	0.00029791	0.00026644	7.102e-05	969.38	3.1987e-06	2.9266e-06	1065.2	208.93	3.1875e-06	2.9018e-06	266.17	77.01	59.952	17.86	2.7856e-06	25.368	91.053	161.967	114.640	67.181	166.163	189.527	66.981	74.555	152.742	389.428	74.328	80.985	81.111	88.384	197.664	88.104	-8191	255	
6677.910	1	1	0	0	0.47339	0.12562	0.13639	0.15355	0.19474	0.082241	0.12903	0.27444	0.1512	0.076233	0.084331	0.30901	0.34682	0.14685	0.12383	0.015865	-1.35	-2.2792	-1.4104	-1.975	-2.1646	-1.4729	-2.5	-1.9583	-1.8375	-2.3542	-2	-2.0187	-2.2354	-1.6125	-2.2479	-1.9312	312.682	89.134	85.641	367.809	125.266	371.343	337.390	290.646	194.352	294.464	392.915	318.076	347.090	368.493	190.226	86.362	0.00054143	0.0001804	0.00013413	993.34	3.165e-06	4.707e-06	1100	211.61	3.6888e-06	1.8425e-06	270.5	77.192	59.2	17.394	5.261e-06	24.66	0.00028634	0.00026116	7.0432e-05	970.38	3.1071e-06	2.8384e-06	1066.1	210.09	3.0532e-06	2.7895e-06	265.2	77.298	59.548	17.876	2.8591e-06	25.415	93.924	147.588	117.549	66.847	106.968	361.816	66.951	74.438	252.917	395.960	74.019	80.777	81.235	88.541	224.801	87.741	-8191	255	
6678.004	1	1	0	0	0.24048	0.20863	0.1299	0.22234	0.060518	0.10175	0.32535	0.2641	0.042573	0.20756	0.24304	0.23311	0.19435	0.18796	0.12858	0.24526	-1.175	-2.3729	-1.6646	-2.1229	-2.0833	-1.7271	-2.25	-2.0438	-1.4646	-2.3042	-1.8646	-1.9583	-2.2979	-1.7687	-2.275	-2.0354	136.279	283.536	324.685	97.331	312.143	269.485	358.771	336.122	351.933	352.160	86.945	357.243	172.766	248.406	118.840	59.905	0.00057972	0.00059657	5.0283e-05	994.69	2.0633e-06	4.5608e-06	1101.3	211.5	4.1238e-06	7.3381e-07	269.74	77.314	59.251	17.434	1.0639e-05	24.785	0.00027475	0.00025363	7.4794e-05	971.6	2.9134e-06	2.7952e-06	1068.6	209.96	2.9397e-06	2.7497e-06	265.95	77.218	59.509	17.832	3.0556e-06	25.392	101.503	292.702	161.900	67.021	84.458	375.340	67.381	74.459	256.775	166.696	74.046	81.164	81.520	88.463	235.164	87.777	-8191	255	
6678.101	1	1	0	0	0.18326	0.32237	0.18446	0.28823	0.10738	0.20198	0.20758	0.1306	0.12909	0.30292	0.2119	0.23043	0.22802	0.21205	0.034949	0.14972	-1.2437	-2.2313	-1.7208	-2.0167	-2.2687	-1.5771	-2.2604	-1.9042	-1.5438	-2.2958	-1.9021	-1.9521	-2.3187	-1.7521	-2.075	-2.1312	282.955	105.220	180.536	78.704	163.890	412.782	63.574	81.155	107.704	114.036	67.519	395.929	247.999	275.857	125.190	194.255	0.00037526	0.00022347	6.901e-05	991.21	7.5787e-06	1.5042e-06	1100.5	209.73	3.4129e-06	1.2867e-06	271.86	77.601	58.941	17.44	9.0905e-06	24.387	0.00026367	0.00024514	7.8865e-05	968.73	2.8419e-06	2.7363e-06	1070.3	209.03	2.8723e-06	2.7385e-06	267.69	77.032	59.182	17.903	3.2274e-06	25.235	82.200	370.518	161.643	67.168	161.801	355.622	67.110	74.476	149.426	236.862	74.432	80.710	81.143	88.947	254.238	87.382	-8191	255	
6678.197	1	1	0	0	0.18002	0.086527	0.051308	0.26245	0.10054	0.29019	0.10276	0.10861	0.24537	0.2122	0.096337	0.32266	0.088578	0.17681	0.24497	0.18231	-1.2188	-2.1125	-1.8042	-1.6688	-2.2875	-1.5667	-1.9104	-2.175	-1.5417	-2.3146	-1.8563	-1.8458	-2.2875	-1.5625	-1.9417	-2.1354	125.844	302.981	296.702	411.289	120.347	95.836	330.930	244.968	164.533	187.620	318.946	340.164	387.301	381.700	74.597	357.703	0.00046448	8.8701e-05	0.00022078	991.32	2.588e-06	2.352e-06	1099.1	211.83	2.5374e-06	4.3368e-06	271.16	76.998	59.27	17.461	6.4427e-06	24.634	0.00026204	0.00025209	8.2704e-05	967.67	2.8035e-06	2.7815e-06	1070.6	209.18	2.7824e-06	2.8081e-06	267.65	76.732	59.068	17.889	3.2644e-06	25.186	76.560	98.151	149.955	67.023	172.557	99.131	67.086	74.572	206.509	220.785	74.303	80.797	81.104	88.827	242.570	87.979	-8191	255	
6678.317	1	1	0	0	0.22573	0.12502	0.38959	0.27104	0.13981	0.23663	0.12993	0.041184	0.2652	0.22562	0.10297	0.026989	0.01915	0.096656	0.10644	0.058654	-1.1938	-2.0708	-1.7542	-1.8479	-2.2708	-1.6417	-1.9542	-2.1729	-1.6208	-1.9688	-2.0792	-1.575	-2.2771	-1.8354	-1.9792	-2.1188	116.188	355.713	107.602	416.395	219.431	104.866	269.897	369.946	387.200	149.988	335.676	167.535	62.315	108.959	59.228	394.829	0.00058269	0.0006876	0.0001081	990.62	2.4021e-06	2.9097e-06	1090.6	210.54	3.7534e-06	3.8067e-06	270.65	76.769	59.239	17.411	9.625e-07	24.658	0.00025369	0.00026915	8.2729e-05	968.06	2.7543e-06	3.0399e-06	1069.5	208.64	2.7432e-06	3.0527e-06	267.96	76.43	58.981	18.02	3.1397e-06	25.138	95.188	165.076	100.786	67.043	110.795	244.385	66.966	74.555	135.599	172.781	74.236	81.196	81.660	88.389	216.587	88.405	-8191	255	
6678.413	1	1	0	0	0.20687	0.16496	0.15654	0.051215	0.27391	0.13966	0.19491	0.15693	0.17394	0.13311	0.44529	0.11131	0.17348	0.245	0.23605	0.086837	-1.2604	-1.9625	-2.1104	-1.5938	-2.25	-1.8771	-1.9688	-2.2438	-1.6729	-2.0292	-2.1083	-1.4604	-2.2625	-1.9813	-1.7646	-2.3021	257.688	375.652	404.637	320.124	88.487	306.111	302.086	383.412	148.155	191.513	404.881	360.735	386.562	361.121	332.900	277.941	0.00059132	0.00045338	0.00013868	993.86	3.3688e-06	5.4443e-06	1096.7	210.62	3.09e-06	2.1752e-06	270.13	77.028	59.226	17.414	6.9869e-06	24.6	0.00025206	0.00028486	7.9446e-05	965.95	2.6888e-06	3.1385e-06	1069.2	207.89	2.7447e-06	3.2061e-06	266.3	76.421	59.205	18.093	3.0484e-06	25.14	97.840	194.118	183.613	67.044	220.210	197.684	67.172	74.445	231.977	323.038	74.105	81.097	81.194	88.724	399.731	87.921	-8191	255	
6678.485	1	1	0	0	0.050154	0.080475	0.22414	0.15901	0.17563	0.13163	0.36131	0.27958	0.16835	0.3148	0.19364	0.16732	0.28789	0.19821	0.1656	0.28209	-1.3667	-1.9813	-2.0875	-1.7188	-2.2062	-1.8583	-1.8792	-2.4417	-1.7958	-1.825	-2.2042	-1.6042	-2.1188	-2.0375	-1.6083	-2.1104	302.557	359.880	416.158	354.965	351.311	402.237	356.985	392.408	173.111	316.662	224.822	349.654	416.268	343.209	364.675	200.989	0.00077903	0.00064156	0.00011384	991.24	6.7012e-06	6.4075e-06	1097.7	210.92	7.0494e-06	1.6439e-06	271.55	77.134	59.537	17.345	5.0367e-06	24.626	0.00026388	0.00029618	7.772e-05	965.35	2.8939e-06	3.252e-06	1067.2	207.71	2.95e-06	3.2601e-06	266.38	76.361	59.666	18.094	2.9562e-06	24.963	89.286	112.957	103.315	67.038	168.611	190.116	66.855	74.737	151.596	81.379	74.050	81.090	81.715	88.654	263.156	87.806	-8191	255	
6678.581	1	1	0	0	0.17414	0.28256	0.31716	0.13988	0.015956	0.18237	0.15345	0.14023	0.15709	0.047646	0.049562	0.25738	0.10024	0.20632	0.15034	0.23386	-1.4	-1.7583	-2.2562	-1.8	-2.2146	-2.1333	-1.6375	-2.1042	-1.9625	-1.8292	-2.1771	-1.7625	-2.0979	-2.1083	-1.6083	-2.3083	320.167	176.719	103.628	310.868	189.580	403.679	326.891	282.749	103.062	311.247	252.974	83.928	277.196	222.268	290.277	165.667	0.00061959	0.00079351	6.6985e-05	989.56	3.9574e-06	1.5451e-06	1097	211.35	9.1048e-06	4.6533e-06	269.57	77.406	59.145	17.361	5.079e-06	24.597	0.00028022	0.00028847	7.3697e-05	966.28	3.0602e-06	3.1467e-06	1065.6	208.09	3.1489e-06	3.1176e-06	265.49	76.284	59.841	18.047	2.9044e-06	25	86.447	116.635	255.195	66.948	206.261	103.213	66.759	74.384	187.351	336.001	74.099	81.072	81.222	88.667	266.648	87.875	-8191	255	
6678.702	1	1	0	0	0.23783	0.10155	0.22937	0.29783	0.11009	0.26889	0.46953	0.10195	0.22576	0.033782	0.3794	0.12625	0.24839	0.37301	0.048605	0.10777	-1.4625	-1.8583	-2.175	-1.7854	-2.2167	-2.0563	-1.6125	-2.3646	-1.9896	-1.8542	-2.4	-1.7292	-1.9937	-2.2021	-1.5479	-2.1354	101.642	91.444	219.331	394.223	396.103	330.380	381.904	370.277	174.376	77.313	411.543	339.414	67.772	114.112	352.570	320.768	0.0006051	0.00014311	8.9293e-05	992.53	1.7895e-06	3.4633e-06	1091.1	211.73	1.3528e-06	4.6683e-06	271.77	77.133	59.302	17.201	6.0265e-06	24.714	0.00029518	0.00027918	7.2623e-05	967.67	3.2159e-06	3.0247e-06	1063.5	208.32	3.262e-06	3.0135e-06	265.73	76.509	60.035	17.908	2.8193e-06	25.145	82.443	63.372	375.707	67.250	293.264	152.169	67.110	74.808	193.277	118.754	74.208	81.159	81.117	88.401	392.011	87.481	-8191	255	
6678.798	1	1	0	0	0.17291	0.15429	0.042569	0.3851	0.16356	0.28683	0.28599	0.19875	0.29412	0.15721	0.17119	0.19073	0.20061	0.1562	0.12632	0.30483	-1.3417	-1.8521	-2.0875	-1.6146	-2.0438	-2.2625	-1.775	-2.1333	-2.1437	-1.5854	-2.3083	-1.9042	-1.9542	-2.2583	-1.6604	-2.4375	277.113	128.468	237.016	63.226	150.413	279.036	314.183	342.127	174.799	114.954	248.956	354.372	404.177	66.299	274.205	353.435	0.0006731	0.00038348	5.6871e-05	992.73	8.5558e-07	1.4181e-06	1102.2	211.1	2.7691e-06	3.2596e-07	269	76.932	59.172	17.349	7.719e-06	24.634	0.00029525	0.00026737	7.0363e-05	967.52	3.213e-06	2.9056e-06	1065.6	208.86	3.219e-06	2.8885e-06	264.34	76.817	59.911	17.894	2.8174e-06	25.327	86.926	407.039	77.120	66.931	226.461	408.170	66.761	74.347	73.318	147.602	74.141	80.984	81.437	88.454	171.073	87.983	-8191	255	
6678.894	1	1	0	0	0.31752	0.13255	0.34175	0.33773	0.2096	0.093963	0.13746	0.35303	0.25109	0.16565	0.13791	0.12597	0.14506	0.29291	0.12955	0.29377	-1.5292	-1.7146	-2.1792	-2.0563	-1.8542	-2.3063	-1.7188	-2.2687	-1.7917	-1.5917	-2.1917	-1.8729	-1.7958	-2.1063	-1.7667	-1.8813	93.866	364.283	69.288	381.292	413.360	374.606	301.339	400.274	319.276	199.889	391.087	329.856	298.590	383.016	307.242	120.905	0.000472	0.0006013	0.00012572	991.42	1.6269e-06	2.0164e-06	1096.8	211.57	1.0045e-06	4.1723e-06	271.8	77.139	59.385	17.399	6.3658e-06	24.668	0.00028883	0.00026255	7.0614e-05	969.95	3.1392e-06	2.8628e-06	1065.1	209.5	3.0994e-06	2.8888e-06	265.93	77.161	59.688	17.847	2.8766e-06	25.49	62.486	403.602	132.887	67.037	297.844	70.589	67.072	74.675	270.879	228.388	74.072	80.766	80.908	88.747	148.532	88.058	-8191	255	
6678.990	1	1	0	0	0.058935	0.18657	0.13942	0.12761	0.20949	0.10283	0.15906	0.04848	0.20856	0.09271	0.25924	0.11082	0.13167	0.084085	0.097337	0.14802	-1.7521	-1.3708	-2.0271	-2.3417	-1.5271	-2.1937	-1.7812	-2.1271	-2.0042	-1.5729	-2.2542	-2.0625	-1.8083	-2.3354	-1.8563	-1.9854	338.866	127.348	216.175	408.092	357.134	394.006	337.478	386.004	392.188	401.997	297.467	374.986	374.399	361.886	359.581	290.564	0.00054061	0.00030281	0.00010708	990.91	2.9821e-06	7.3079e-07	1098.8	210.69	4.8917e-06	4.5038e-06	270.7	76.617	59.167	17.248	8.2749e-06	24.81	0.00027942	0.00025912	7.4356e-05	969.82	3.0229e-06	2.8025e-06	1066.9	209.72	2.9871e-06	2.8282e-06	266.2	77.223	59.503	17.773	3.0495e-06	25.504	407.489	160.243	112.555	67.066	232.520	364.791	66.933	74.679	120.290	256.850	74.102	81.023	81.275	88.187	255.824	87.631	-8191	255	
6679.085	1	1	0	0	0.063428	0.090228	0.17115	0.18788	0.20885	0.10377	0.23433	0.33831	0.16734	0.10552	0.18983	0.15875	0.10731	0.36202	0.35624	0.2352	-1.9917	-1.6375	-1.9167	-2.0833	-1.6562	-2.2125	-1.9813	-2.1354	-2.1833	-1.5938	-2.4354	-2.0312	-1.8396	-2.2812	-1.7833	-1.8563	114.557	328.475	281.626	328.195	404.224	207.145	341.345	407.584	344.813	274.234	372.949	86.505	216.034	337.362	389.564	74.167	0.0005272	0.00010213	9.9689e-05	988.41	4.8363e-06	2.7096e-06	1096.9	210.61	8.0935e-06	2.5133e-06	271.09	77.165	58.898	17.475	2.3461e-06	24.394	0.00027126	0.00025333	7.8012e-05	969.39	2.9393e-06	2.7768e-06	1067.7	209.41	2.9369e-06	2.8384e-06	267.72	77.154	59.138	17.893	3.2513e-06	25.347	89.667	164.108	142.249	67.107	233.148	373.696	67.077	74.610	131.509	237.115	73.842	80.830	81.417	88.005	168.077	87.926	-8191	255	
6679.183	1	1	0	0	0.09292	0.10786	0.19294	0.091403	0.022794	0.29262	0.11144	0.16995	0.10515	0.3812	0.12957	0.33791	0.20057	0.043082	0.18633	0.11955	-1.8604	-1.5979	-1.9813	-2.3375	-1.5812	-2.225	-1.9937	-1.8958	-2.1479	-1.6187	-2.1	-2.1188	-1.5167	-2.3083	-1.8875	-1.7979	408.344	320.663	73.702	130.556	347.284	326.891	398.211	138.981	225.404	118.341	316.923	368.116	223.352	333.507	269.821	66.831	0.00058852	0.00029893	3.4157e-05	991.59	1.6144e-06	3.172e-06	1096.7	211.06	3.3502e-06	3.5483e-06	271	76.995	59.389	17.336	1.0976e-05	24.542	0.00026995	0.0002581	8.3555e-05	970.15	2.9181e-06	2.8891e-06	1071.5	209.4	2.9111e-06	2.9155e-06	268.48	77.109	59.528	17.965	3.4247e-06	25.352	93.940	249.855	413.227	67.110	274.063	207.292	66.990	74.519	337.525	261.307	74.133	80.780	81.622	89.022	237.220	88.013	-8191	255	
6679.302	1	1	0	0	0.16395	0.3296	0.10448	0.2733	0.25923	0.298	0.25131	0.18357	0.17772	0.079931	0.1551	0.090581	0.10214	0.10522	0.081585	0.24647	-1.6417	-1.7333	-1.9083	-2.2646	-1.6167	-2.2313	-2.0938	-1.7896	-2.4479	-1.8646	-2.2208	-2.2667	-1.6521	-2.0938	-2.1729	-1.6167	271.508	254.930	385.360	383.489	308.243	327.752	352.111	251.546	257.018	367.418	377.351	390.871	260.904	388.836	357.649	91.876	0.00064137	0.00060496	0.00011926	992.67	3.4162e-06	5.2646e-06	1098	210.8	6.227e-06	4.8976e-06	272.07	76.787	58.918	17.423	3.9837e-06	24.488	0.00026836	0.00027827	8.7236e-05	969.98	2.922e-06	3.103e-06	1071.9	209.14	2.8885e-06	3.181e-06	269.19	76.744	59.235	18.057	3.4037e-06	25.194	97.275	131.211	241.649	67.041	279.821	183.618	67.029	74.699	198.779	202.672	73.789	81.151	81.821	88.100	277.871	88.001	-8191	255	
6679.398	1	1	0	0	0.16802	0.18035	0.027692	0.23338	0.12028	0.30042	0.30143	0.073561	0.21811	0.16138	0.21436	0.071523	0.091643	0.17611	0.22049	0.12877	-1.9188	-1.7229	-1.8167	-2.4854	-1.6313	-2.1208	-2.2833	-1.7542	-2.1396	-1.7292	-1.8083	-2.3229	-1.6229	-2.1833	-2.0771	-1.725	207.184	255.526	223.824	354.492	323.869	309.101	403.556	267.025	318.971	131.728	325.282	136.457	356.763	292.721	370.737	368.652	0.0004801	0.0006579	0.00013946	986.03	4.6293e-06	4.8465e-06	1098	210.96	9.6819e-06	2.0767e-06	270.03	77.073	59.122	17.362	2.3659e-06	24.654	0.00026549	0.00030136	8.5046e-05	966.64	2.9303e-06	3.3298e-06	1071.5	209.2	2.9196e-06	3.4385e-06	268.22	76.829	59.556	18.248	3.3663e-06	25.272	93.915	162.466	277.045	66.830	222.943	242.670	66.997	74.583	162.140	226.437	73.918	80.979	81.380	88.594	254.733	87.854	-8191	255	
6679.494	1	1	0	0	0.19659	0.11738	0.14925	0.3867	0.15661	0.18849	0.17162	0.2136	0.19372	0.22118	0.073071	0.089652	0.27363	0.054432	0.14632	0.12307	-1.8	-1.8813	-1.5771	-2.3708	-1.8333	-1.9167	-2.2271	-1.6125	-2.3438	-1.9688	-1.8062	-2.5187	-1.7458	-2.0729	-2.1771	-1.5854	380.460	387.658	197.216	380.006	64.878	313.248	338.965	343.304	198.213	136.173	243.995	73.451	366.189	141.783	71.891	124.627	0.00058824	0.00019356	0.00012416	991.21	4.3482e-06	1.8126e-06	1096.6	210.42	8.5229e-06	1.6499e-06	270.77	77.555	59.581	17.365	2.0891e-06	24.484	0.00027646	0.0003188	8.4194e-05	967.91	3.1018e-06	3.4898e-06	1069.8	208.79	3.0932e-06	3.5094e-06	267.58	76.751	59.841	18.251	3.2078e-06	25.23	87.142	184.004	153.374	66.933	112.753	89.663	66.821	74.442	183.044	354.889	74.054	81.106	81.276	88.562	101.249	88.206	-8191	255	
6679.590	1	1	0	0	0.22307	0.10911	0.089221	0.14147	0.1049	0.084419	0.25993	0.23302	0.16902	0.15263	0.084224	0.076126	0.14011	0.22843	0.14731	0.17086	-1.8646	-1.9271	-1.7583	-2.3833	-1.8125	-2.0271	-2.3354	-1.7167	-2.0604	-2.1771	-1.7313	-2.3	-1.9396	-1.85	-2.3333	-1.7104	280.037	182.803	178.283	335.235	279.264	112.607	305.366	75.541	293.147	331.368	71.241	312.711	66.494	131.730	387.968	60.498	0.00069739	0.00016448	0.00018953	990.29	5.9992e-06	4.6241e-06	1096.2	211.71	6.5522e-06	3.1076e-06	270.62	76.924	59.377	17.429	5.942e-06	24.412	0.00029421	0.00031989	8.308e-05	967.61	3.3421e-06	3.5499e-06	1068.7	209.38	3.355e-06	3.5072e-06	267.16	76.784	60.335	18.237	3.2041e-06	25.242	76.770	107.102	140.246	66.916	191.307	81.173	66.706	74.604	167.989	197.542	74.165	81.326	81.644	88.050	408.169	88.092	-8191	255	
6679.686	1	1	0	0	0.34375	0.0872	0.061905	0.061002	0.32941	0.21888	0.25127	0.029121	0.16866	0.2093	0.21589	0.05185	0.25507	0.363	0.21759	0.20859	-1.7229	-2.0938	-1.6229	-2.3125	-1.7729	-1.8229	-2.3812	-1.8771	-1.9417	-2.0958	-1.575	-2.2792	-2.0062	-1.9771	-2.1792	-1.7062	391.562	332.390	108.874	278.588	188.009	374.220	75.133	192.552	252.020	363.610	368.824	342.463	398.660	120.076	339.490	374.642	0.00068211	0.0001056	0.00019986	989.5	3.5837e-06	1.7904e-06	1094.7	212.65	5.1321e-06	1.8077e-06	269.93	76.976	59.484	17.356	3.8669e-06	24.593	0.00031896	0.00031585	8.1455e-05	967.57	3.5408e-06	3.4195e-06	1069	209.63	3.5695e-06	3.4086e-06	267.32	76.848	60.611	18.156	3.1409e-06	25.315	62.516	297.557	209.875	67.105	201.108	269.219	66.972	74.474	296.635	252.917	73.733	80.920	81.461	88.393	376.402	88.223	-8191	255	
6679.782	1	1	0	0	0.19925	0.14945	0.14222	0.13043	0.21322	0.22255	0.077061	0.2762	0.1683	0.14055	0.22378	0.089327	0.11105	0.086247	0.11411	0.16389	-1.5021	-2.3896	-1.5146	-2.3667	-1.8479	-2	-2.2521	-1.8563	-1.8896	-2.1479	-1.7708	-2.2313	-1.9333	-1.8833	-2.1792	-1.8917	383.517	74.138	326.273	99.210	102.468	254.528	342.502	82.856	158.673	222.223	79.671	111.583	383.203	342.621	333.192	282.572	0.00068051	0.00034118	0.00014944	990.81	1.2081e-06	2.1479e-06	1095.9	211.22	8.6036e-06	1.5781e-06	270.95	77.083	58.927	17.378	1.7647e-06	24.598	0.00033074	0.00030277	8.0248e-05	971.31	3.5929e-06	3.3311e-06	1069.6	210.33	3.6209e-06	3.2316e-06	266.94	77.385	60.584	18.17	3.1037e-06	25.6	85.428	311.563	184.064	67.054	132.791	379.386	67.002	74.709	276.643	223.528	73.985	81.163	81.796	88.543	65.437	87.456	-8191	255	
6679.878	1	1	0	0	0.015074	0.098979	0.098465	0.061234	0.15493	0.22756	0.1962	0.1306	0.097984	0.19963	0.19454	0.26404	0.30738	0.13144	0.13004	0.14636	-1.3771	-1.9875	-1.5562	-2.3063	-1.9438	-1.6958	-2.4062	-1.9417	-1.7958	-2.4771	-1.5917	-2.0812	-2.0583	-1.8	-2.2083	-1.9062	353.058	140.048	196.251	227.361	85.134	169.025	299.788	236.883	399.926	352.244	320.432	362.774	338.922	318.570	168.712	106.905	0.00039394	0.00059817	0.00014111	990.51	3.2784e-06	1.7947e-06	1096.1	210.54	2.1034e-06	3.8818e-07	269.51	77.373	58.869	17.354	7.747e-06	24.636	0.00032818	0.00029819	7.9435e-05	973.28	3.5593e-06	3.2755e-06	1067.5	211.05	3.5404e-06	3.2391e-06	267.27	77.979	60.241	18.111	3.1556e-06	25.75	81.387	156.646	226.079	67.012	409.162	68.164	67.035	74.782	129.920	317.822	74.378	81.146	81.429	88.505	247.376	88.158	-8191	255	
6679.997	1	1	0	0	0.13657	0.085073	0.20041	0.17304	0.10153	0.26073	0.19925	0.12388	0.12649	0.11745	0.16805	0.10289	0.15819	0.05833	0.23488	0.080284	-1.2458	-2.2625	-1.6229	-1.9896	-1.9604	-1.6	-2.2438	-1.9229	-1.6938	-2.3771	-1.7313	-2.0312	-1.8271	-1.4646	-2.2604	-1.8687	83.481	273.288	95.330	354.328	270.789	116.525	314.051	102.850	320.184	319.740	362.438	202.800	102.740	274.965	324.075	120.652	0.00054668	0.00028376	8.8886e-05	989.47	2.1522e-06	2.483e-07	1094.1	211.46	3.828e-06	1.7327e-06	271.58	77.042	59.238	17.248	6.85e-06	24.617	0.00031937	0.00029408	8.1897e-05	974.6	3.4521e-06	3.1879e-06	1070.2	211.97	3.3734e-06	3.1374e-06	268.13	78.048	60.108	18.085	3.3287e-06	25.813	82.658	166.052	153.866	67.228	185.047	408.762	67.101	74.440	248.867	340.746	73.877	81.169	81.387	88.539	236.487	88.011	-8191	255	
6680.093	1	1	0	0	0.10359	0.16029	0.25322	0.12079	0.023685	0.058672	0.31665	0.2673	0.21077	0.13903	0.22659	0.2545	0.17812	0.1223	0.16817	0.19869	-1.3958	-2.2	-1.8438	-2.1479	-2.0938	-1.6292	-2.4271	-1.8771	-1.6437	-2.4729	-1.8062	-2.05	-2.1583	-1.6417	-2.0042	-2.1083	233.552	360.281	359.000	306.938	127.624	219.774	394.950	202.831	122.687	415.963	81.662	313.208	296.582	305.608	332.209	115.666	0.00049605	0.00015219	0.00016189	990.61	1.5721e-06	1.9874e-06	1098.2	211.36	4.3507e-06	1.8286e-06	271.85	77.13	59.198	17.341	8.8258e-06	24.589	0.00030941	0.00028541	8.6793e-05	975.9	3.3186e-06	3.1192e-06	1072.3	211.71	3.3458e-06	3.1196e-06	269.36	77.907	60.172	18.007	3.5885e-06	25.812	63.896	217.909	143.276	67.004	273.015	216.308	67.072	74.481	255.208	153.608	73.893	81.045	81.335	88.641	229.668	87.822	-8191	255	
6680.190	1	1	0	0	0.017836	0.13069	0.26425	0.22193	0.15168	0.25406	0.14656	0.28214	0.078574	0.088737	0.15955	0.12899	0.20398	0.013501	0.19147	0.13056	-1.0667	-2.0729	-1.7563	-1.9083	-2.3333	-1.6792	-2.3604	-2.2521	-1.6708	-2.1312	-2.0812	-1.7417	-2.1396	-1.8167	-1.8458	-2.1063	158.849	229.029	203.634	320.034	191.521	297.192	354.136	270.054	113.471	340.298	325.195	303.400	69.972	295.055	365.067	59.497	0.00058876	0.00022358	0.00020837	992.71	3.5751e-06	2.8262e-06	1094.6	211.25	1.1669e-06	2.7698e-06	271.4	77.02	58.872	17.313	3.7912e-06	24.807	0.00030667	0.00028538	9.3237e-05	974.62	3.2838e-06	3.1635e-06	1074	210.91	3.299e-06	3.186e-06	270.31	77.726	60.008	18.121	3.7447e-06	25.67	95.830	241.095	176.326	66.804	367.977	133.929	66.996	74.447	182.711	180.524	73.834	80.817	81.746	88.874	288.726	87.931	-8191	255	
6680.286	1	1	0	0	0.2145	0.044268	0.14701	0.39101	0.2139	0.15322	0.13262	0.326	0.22556	0.13079	0.11526	0.3363	0.17077	0.053824	0.1041	0.088322	-1.1458	-2.0292	-1.8646	-1.8417	-2.2438	-1.5333	-2.0667	-2.2854	-1.5271	-2.3042	-2.1188	-1.7625	-2.2167	-1.7458	-1.8708	-2.2917	302.411	182.157	378.181	117.304	152.915	283.132	314.345	380.182	116.367	250.126	184.084	344.526	108.744	390.589	131.813	159.107	0.0003889	0.00017272	9.4728e-05	993.6	1.6742e-06	4.8887e-06	1096	210.84	3.6284e-06	3.9062e-06	272.18	76.748	58.924	17.367	4.572e-06	24.482	0.00030264	0.00030119	9.6426e-05	973.36	3.1991e-06	3.3133e-06	1076.9	210.5	3.1601e-06	3.3111e-06	270.74	77.533	59.746	18.214	3.7339e-06	25.579	96.749	151.778	214.694	66.797	416.177	212.117	66.801	74.631	209.563	187.353	74.110	81.493	81.607	88.586	277.926	87.756	-8191	255	
6680.382	1	1	0	0	0.14273	0.30604	0.15941	0.21961	0.074315	0.32418	0.3975	0.22204	0.13202	0.14683	0.31303	0.14273	0.16161	0.18464	0.29101	0.19045	-1.1729	-2.0625	-1.9708	-1.7125	-2.3604	-1.6896	-2.0333	-2.2208	-1.5146	-2.2417	-2.1333	-1.8021	-2.3292	-1.8896	-1.925	-2.2833	169.259	138.773	415.194	393.530	336.443	247.166	370.708	63.888	340.241	147.197	359.671	60.840	348.999	65.260	407.685	347.364	0.00040607	0.00032238	0.00014009	992.07	5.1758e-06	4.6126e-06	1095.8	211.51	9.5373e-06	4.7148e-06	270.93	76.7	59.238	17.383	2.1228e-07	24.504	0.00028896	0.00031864	9.4939e-05	974.27	3.177e-06	3.6167e-06	1076.3	210.4	3.2491e-06	3.6326e-06	270.26	77.347	59.964	18.393	3.6541e-06	25.522	104.132	230.641	72.504	67.142	206.819	165.443	67.030	74.629	140.608	213.822	74.259	80.750	81.141	88.816	236.544	87.827	-8191	255	
6680.478	1	1	0	0	0.084908	0.064294	0.12001	0.31135	0.11766	0.1791	0.30155	0.44483	0.19684	0.11507	0.19805	0.27091	0.1459	0.090346	0.12095	0.019464	-1.2417	-1.6542	-2.1625	-1.5417	-2.2167	-1.8146	-2.2229	-2.3896	-1.6042	-1.9813	-2.4083	-1.4708	-2.2625	-2.0479	-1.6708	-2.3792	263.146	378.393	253.189	365.857	385.384	208.794	326.676	368.227	355.937	95.905	307.478	411.062	398.742	235.156	275.995	389.372	0.000679	0.00067747	0.00019974	991.71	2.3514e-06	5.0118e-06	1100.1	211.94	8.7317e-06	4.5218e-06	269.89	76.884	59.37	17.406	4.7165e-06	24.546	0.00029595	0.0003385	9.1544e-05	972.53	3.2323e-06	3.7148e-06	1075.2	210.59	3.277e-06	3.7182e-06	269.39	77.154	60.197	18.446	3.4382e-06	25.387	97.898	74.762	184.104	67.027	198.516	193.589	66.743	74.811	177.501	113.130	73.844	80.527	81.444	88.724	285.915	87.704	-8191	255	
6680.574	1	1	0	0	0.24887	0.034735	0.16893	0.21936	0.12648	0.16933	0.25692	0.22102	0.23925	0.12177	0.024145	0.05173	0.17894	0.16098	0.13315	0.12094	-1.1771	-1.8542	-2.2833	-1.6396	-2.1813	-1.8479	-1.9271	-2.3	-1.6125	-1.85	-2.3	-1.7708	-1.9958	-1.9042	-1.5542	-2.2708	72.053	412.124	114.282	329.102	160.345	239.186	401.846	257.565	152.492	123.042	249.092	133.111	312.285	264.718	377.290	308.620	0.00073241	0.00039474	9.2715e-05	998.5	5.819e-06	1.5355e-06	1098.7	211.03	1.1261e-05	3.1257e-06	272.84	76.974	59.313	17.295	2.5171e-06	24.661	0.00030969	0.0003401	8.7639e-05	974.59	3.3999e-06	3.7203e-06	1074.6	210.02	3.4983e-06	3.7378e-06	269.19	77.2	60.385	18.42	3.387e-06	25.429	78.482	193.151	183.769	67.090	157.786	225.379	66.838	74.656	140.003	338.819	74.321	80.993	81.239	88.437	240.738	87.848	-8191	255	
6680.670	1	1	0	0	0.35675	0.30044	0.22819	0.32348	0.26963	0.15557	0.10356	0.38868	0.11683	0.20106	0.274	0.24196	0.17045	0.23668	0.077539	0.28576	-1.3375	-1.6437	-2.2646	-1.7229	-2.1208	-2.0687	-1.7521	-2.45	-1.7146	-2.0958	-2.3688	-1.8042	-2.2542	-2.1104	-1.7458	-2.3021	357.279	266.780	352.409	316.397	66.639	171.064	410.504	103.509	187.697	357.361	408.909	406.525	413.253	109.027	206.084	300.215	0.00073601	0.00052545	0.0001024	993.39	2.8422e-06	7.1559e-06	1099.1	212.24	5.9115e-07	3.0812e-06	271.83	77.657	59.669	17.408	7.1734e-06	24.537	0.00032775	0.00033157	8.5738e-05	973.33	3.587e-06	3.6096e-06	1073.1	210.49	3.7096e-06	3.6028e-06	269	77.395	60.947	18.359	3.3494e-06	25.476	108.176	238.649	144.862	66.852	206.763	360.737	66.990	74.613	67.315	287.945	74.471	81.019	81.426	88.265	193.267	87.960	-8191	255	
6680.791	1	1	0	0	0.10392	0.26251	0.12024	0.078628	0.20999	0.20661	0.13385	0.14622	0.096774	0.19063	0.089581	0.026844	0.22638	0.21399	0.18503	0.12409	-1.4896	-1.7417	-2.1979	-1.8333	-1.8042	-1.9229	-1.7667	-2.3146	-1.8333	-1.8813	-2.1333	-1.8625	-2.0396	-2.1667	-1.5812	-2.2521	294.373	149.760	277.254	414.803	184.972	204.327	383.434	333.878	252.242	233.313	74.050	146.932	392.140	398.886	75.962	291.142	0.00057442	0.00048782	6.7754e-05	992.62	5.2632e-06	1.325e-06	1099.9	211.99	3.9202e-06	2.2781e-06	271.21	77.198	59.483	17.405	7.3577e-06	24.775	0.00034673	0.00032491	8.4408e-05	973.91	3.78e-06	3.4989e-06	1074.1	210.71	3.751e-06	3.4401e-06	268.7	77.484	60.925	18.281	3.2327e-06	25.675	73.866	330.743	353.806	66.945	131.034	415.351	66.851	74.774	226.709	361.884	74.225	81.043	81.496	88.586	205.405	87.284	-8191	255	
6680.887	1	1	0	0	0.17969	0.29725	0.073296	0.40381	0.17338	0.20135	0.15819	0.16952	0.074153	0.39724	0.028068	0.11264	0.24486	0.11647	0.18943	0.23454	-1.4729	-1.5292	-2.325	-1.6979	-1.8542	-1.9813	-1.9167	-2.2896	-2.1979	-1.7146	-2.3688	-1.9083	-1.7521	-2.4833	-1.6688	-2.0542	187.064	61.673	81.428	369.563	195.057	346.863	384.669	89.553	123.421	321.029	319.864	173.606	336.247	58.526	158.001	328.726	0.00056542	0.00042512	4.0536e-05	992.36	4.5706e-06	5.2788e-06	1096.5	211.77	5.4055e-06	2.4415e-06	273.3	77.051	59.413	17.497	2.8589e-06	24.812	0.00034196	0.0003087	8.2018e-05	976.6	3.7307e-06	3.3945e-06	1072.6	212.01	3.7343e-06	3.3978e-06	267.92	78.194	60.914	18.227	3.2634e-06	25.879	88.889	105.203	295.561	66.850	324.739	279.490	67.096	74.597	129.412	166.073	74.138	81.316	81.807	88.691	298.072	88.123	-8191	255	
6680.983	1	1	0	0	0.40249	0.35102	0.27665	0.23745	0.39686	0.12876	0.15823	0.10635	0.13639	0.20638	0.21148	0.043192	0.10112	0.17904	0.15851	0.12803	-1.6646	-1.6562	-2.3417	-1.9875	-1.9125	-2.1979	-1.6104	-2.2208	-2.2604	-1.6521	-2.3271	-1.8375	-1.7854	-2.2604	-1.75	-1.9583	301.126	140.790	99.793	406.173	387.130	274.155	118.049	343.937	110.490	74.199	384.066	315.486	334.769	168.272	391.940	98.132	0.00048701	0.00085678	0.00013215	993.77	1.8549e-06	5.8889e-07	1107	212	4.0208e-06	2.2751e-06	273.39	77.049	59.508	17.372	3.7459e-06	24.635	0.00033286	0.00030248	8.2197e-05	980.45	3.5835e-06	3.2935e-06	1077.4	212.48	3.5121e-06	3.3047e-06	268.88	78.387	60.705	18.2	3.3638e-06	25.913	408.839	148.186	76.531	66.948	214.616	194.255	66.990	74.729	395.578	193.043	74.037	80.660	81.422	88.270	191.406	87.365	-8191	255	
6681.078	1	1	0	0	0.077141	0.18841	0.26248	0.1566	0.32269	0.12297	0.20938	0.035733	0.15602	0.25706	0.21787	0.22347	0.17075	0.23451	0.04284	0.23494	-1.8292	-1.7062	-2.2438	-1.9625	-1.6667	-2.3042	-1.7958	-1.8813	-2.2771	-1.5625	-2.2687	-1.95	-2.0042	-2.2208	-1.8896	-2.0625	104.949	209.776	297.762	404.300	136.331	282.171	344.689	183.512	61.614	109.761	134.218	232.773	384.595	337.745	353.214	413.313	0.00040337	0.00064731	6.159e-05	996.15	3.4678e-06	3.7818e-06	1102.3	211.77	3.7437e-06	2.488e-07	273.35	77.393	59.418	17.525	7.5025e-06	24.46	0.00031925	0.0002942	8.6637e-05	981.17	3.4244e-06	3.1742e-06	1078.4	212.48	3.3594e-06	3.1871e-06	269.77	78.425	60.41	18.087	3.5044e-06	25.833	91.038	139.429	100.067	67.024	155.550	185.825	67.024	74.592	194.272	389.765	74.151	80.669	81.274	88.734	194.642	88.470	-8191	255	
6681.174	1	1	0	0	0.075086	0.10634	0.13202	0.11694	0.30548	0.18508	0.19682	0.33224	0.38735	0.030947	0.23398	0.080193	0.44403	0.20632	0.088085	0.17442	-1.7771	-1.4438	-2.1063	-2.0479	-1.6792	-2.3396	-1.9438	-2.0563	-2.2271	-1.6542	-2.0896	-2.0917	-1.5667	-2.3875	-2.0062	-1.8208	326.926	391.322	110.434	195.224	395.089	103.533	334.550	338.844	263.280	72.701	57.654	347.943	396.132	81.736	242.728	348.819	0.00029936	0.0005565	0.00011552	995.15	4.4778e-06	4.024e-06	1101.6	212.16	4.2177e-06	1.0024e-06	273.73	77.238	59.367	17.538	3.0492e-06	24.661	0.00030294	0.00028617	9.0376e-05	980.37	3.3311e-06	3.1626e-06	1080.9	212.01	3.291e-06	3.1887e-06	271.12	78	60.317	18.17	3.702e-06	25.746	416.370	130.458	153.698	66.934	180.877	160.666	66.804	74.767	125.402	149.089	74.205	80.890	81.812	88.870	179.400	87.919	-8191	255	
6681.270	1	1	0	0	0.17036	0.20977	0.014573	0.31401	0.2797	0.011861	0.2205	0.25253	0.18718	0.15252	0.12597	0.14236	0.1605	0.127	0.25395	0.034298	-1.8875	-1.4562	-2	-2.2062	-1.5646	-2.2125	-2.2125	-1.8188	-2.1896	-1.7625	-2.1167	-2.1354	-1.7083	-2.2	-2.0292	-1.8188	202.900	198.614	321.490	382.847	196.808	187.911	374.043	393.607	206.400	250.694	74.292	202.298	399.995	125.173	70.240	205.402	0.00052342	0.00028885	9.3071e-05	993.75	2.8356e-06	6.5985e-06	1098.9	211.45	2.1191e-06	7.412e-06	271.6	77.034	59.597	17.399	1.1085e-05	24.542	0.00029823	0.00029237	9.4245e-05	978.03	3.2543e-06	3.2613e-06	1081.6	211.31	3.2995e-06	3.4021e-06	271.59	77.851	60.292	18.289	3.9091e-06	25.716	79.565	95.214	56.885	66.993	188.304	150.792	67.113	74.667	151.161	215.026	74.117	81.111	81.221	89.377	200.925	87.783	-8191	255	
6681.391	1	1	0	0	0.12854	0.107	0.12418	0.312	0.096998	0.062636	0.33333	0.21083	0.10121	0.23607	0.26671	0.22526	0.2965	0.15552	0.050278	0.13936	-1.8604	-1.8104	-1.9854	-2.1333	-1.4292	-2.1833	-2.0833	-1.6167	-2.1583	-1.7604	-1.8312	-2.2521	-1.4521	-2.2	-2.0187	-1.6792	364.102	78.395	86.264	383.087	404.069	268.194	392.663	278.618	78.052	385.093	376.157	407.134	385.057	312.382	163.979	320.941	0.00056313	0.00023771	8.221e-05	996.05	4.6889e-06	3.4724e-06	1097	210.97	6.6453e-06	3.4002e-06	272.13	76.737	59.347	17.467	2.5338e-06	24.75	0.00030057	0.00032477	9.9061e-05	977.9	3.3133e-06	3.5714e-06	1082.2	211.48	3.2847e-06	3.6659e-06	271.64	77.629	60.146	18.504	3.8123e-06	25.676	77.727	201.436	189.770	66.965	316.074	207.044	66.966	74.765	363.492	260.840	74.056	80.754	80.975	88.955	156.111	87.987	-8191	255	
6681.487	1	1	0	0	0.025082	0.40947	0.10176	0.14465	0.144	0.054542	0.17777	0.096187	0.32452	0.16101	0.11896	0.317	0.18525	0.090456	0.14193	0.04148	-1.8479	-1.9562	-1.9833	-2.2812	-1.6396	-2.0312	-2.2146	-1.7083	-2.2812	-1.8125	-1.7729	-2.3833	-1.7208	-2.2271	-2.0896	-1.7104	396.785	378.171	183.980	85.945	362.526	335.115	365.576	368.040	400.785	237.729	351.254	200.177	76.150	76.225	356.558	126.424	0.00050619	0.00035174	2.4753e-05	1001.2	7.9022e-06	3.4753e-06	1101.9	211.81	8.0737e-06	3.4737e-06	271.35	76.876	59.577	17.516	3.4227e-06	24.593	0.00030314	0.0003469	9.639e-05	979.17	3.3757e-06	3.8579e-06	1083.9	211.28	3.3728e-06	3.9058e-06	271.02	77.532	60.457	18.608	3.7182e-06	25.643	89.569	390.773	172.178	66.818	181.317	170.257	66.888	74.447	193.177	264.483	74.080	81.029	81.371	88.616	83.372	88.140	-8191	255	
6681.583	1	1	0	0	0.18555	0.18392	0.14682	0.38944	0.018778	0.15479	0.40661	0.30663	0.32153	0.088766	0.038568	0.15635	0.22607	0.18705	0.10923	0.38075	-1.8563	-2.0042	-1.8458	-2.3333	-1.6917	-1.8771	-2.325	-1.5833	-2.0875	-1.9771	-1.9771	-2.225	-1.6167	-2.0438	-2.075	-1.7104	263.390	184.936	354.713	389.450	283.512	293.939	401.240	360.393	116.374	247.910	239.073	410.420	360.914	93.853	83.732	314.616	0.00054682	0.00020245	0.00011929	994.2	6.927e-06	5.3369e-06	1101.5	212.39	9.1077e-06	3.7252e-06	272.99	76.598	59.583	17.427	2.5864e-06	24.77	0.00031626	0.00035794	9.3209e-05	977.94	3.5658e-06	3.9331e-06	1079.5	211.57	3.5659e-06	3.9845e-06	271.31	77.591	61	18.598	3.6541e-06	25.694	68.679	96.284	322.602	66.976	167.187	176.480	66.736	74.465	183.492	206.593	74.316	80.809	81.579	88.240	240.479	87.674	-8191	255	
6681.655	1	1	0	0	0.19585	0.26499	0.20015	0.2612	0.027843	0.089121	0.38921	0.25727	0.046654	0.029748	0.14977	0.19162	0.11569	0.095199	0.10201	0.10339	-1.7229	-1.9688	-1.6875	-2.3875	-1.9042	-1.8188	-2.3021	-1.5812	-2.1646	-2.1417	-1.7604	-2.2021	-1.8042	-1.9042	-2.2271	-1.55	143.665	376.440	258.441	324.025	380.804	61.279	359.206	384.314	94.505	184.333	368.301	333.874	69.554	150.382	70.108	117.964	0.00057975	3.4037e-05	5.1522e-05	993.13	2.2881e-06	3.2933e-06	1104.6	212.62	2.315e-06	3.3416e-06	271.6	77.247	59.544	17.441	2.2365e-06	24.72	0.00034134	0.00036243	9.3632e-05	977.07	3.8514e-06	3.9417e-06	1080.5	211.41	3.8798e-06	3.9706e-06	270.82	77.797	61.511	18.581	3.6147e-06	25.73	84.357	356.179	243.071	66.949	98.613	183.208	66.902	74.832	130.414	69.471	74.212	80.763	81.099	88.268	381.447	87.961	-8191	255	
6681.775	1	1	0	0	0.12989	0.11938	0.072828	0.25319	0.1598	0.44931	0.23579	0.15245	0.15438	0.10106	0.23435	0.13339	0.18346	0.24621	0.071656	0.09155	-1.6208	-1.95	-1.6458	-2.5292	-1.7542	-1.8479	-2.3688	-1.9292	-2.0958	-1.8604	-1.7	-2.1792	-1.8729	-1.7958	-2.2188	-1.7146	150.951	145.858	104.538	79.012	248.179	115.344	363.683	85.195	139.213	269.356	75.565	351.761	240.341	360.071	354.620	278.226	0.00070319	0.00038611	0.00018111	998.34	3.551e-06	3.0609e-06	1108.6	212.46	4.6787e-06	2.1405e-06	271.64	76.893	59.58	17.445	7.0345e-06	24.591	0.00036372	0.00035243	9.01e-05	980.89	4.0141e-06	3.7862e-06	1081.1	212.25	3.9792e-06	3.7186e-06	270.15	77.843	61.564	18.462	3.5195e-06	25.892	81.463	171.272	95.739	66.758	195.224	343.906	66.969	74.599	362.497	143.972	74.231	80.924	80.802	88.802	64.965	88.094	-8191	255	
6681.871	1	1	0	0	0.098789	0.37629	0.12686	0.097068	0.15047	0.051461	0.20101	0.24629	0.20435	0.041859	0.16091	0.092873	0.061812	0.17187	0.22484	0.11171	-1.4937	-2.2417	-1.6125	-2.3875	-2.0458	-1.7854	-2.5396	-1.9708	-1.9833	-2.3083	-1.6688	-2.2292	-2.0333	-1.7687	-2.2792	-1.8417	112.005	103.327	295.630	381.720	167.567	127.607	348.697	350.069	298.791	181.244	322.145	397.440	183.148	150.534	388.619	413.132	0.00047939	0.00052251	7.3784e-05	1000.7	4.8214e-06	2.3321e-06	1105.9	212.06	1.1386e-06	2.6639e-06	271.12	77.738	59.592	17.398	4.496e-06	24.837	0.00037226	0.00033883	8.9497e-05	983.21	4.0844e-06	3.6791e-06	1080.2	212.89	4.023e-06	3.6483e-06	270	78.578	61.583	18.365	3.403e-06	25.981	92.137	313.946	334.526	67.007	289.101	316.348	66.903	74.696	281.110	165.210	74.395	81.075	81.441	88.997	267.038	87.928	-8191	255	
6681.968	1	1	0	0	0.075198	0.064533	0.1525	0.065908	0.094334	0.066193	0.28817	0.053329	0.19944	0.11973	0.31723	0.03939	0.11252	0.18364	0.11736	0.18328	-1.4521	-2.1042	-1.7563	-2.475	-2.1208	-1.5167	-2.4729	-1.7792	-1.7687	-2.2458	-1.5458	-1.9646	-2.2917	-1.5354	-2.3208	-1.95	364.889	195.200	415.987	173.626	326.320	174.227	356.943	355.833	199.517	203.331	86.473	174.469	397.682	330.002	221.997	197.387	0.0005236	0.00034725	7.9483e-05	1000.2	9.5043e-07	1.3029e-06	1104.3	212.62	5.0386e-06	9.3697e-07	272.26	76.896	59.903	17.439	8.5443e-06	24.597	0.00035625	0.00032005	8.6761e-05	983.88	3.8246e-06	3.5226e-06	1078	213.13	3.8023e-06	3.4934e-06	269.9	78.757	61.195	18.327	3.471e-06	26.107	81.219	409.061	209.180	67.157	217.336	390.237	66.847	74.506	349.730	124.365	73.998	81.086	81.426	88.358	360.528	87.578	-8191	255	
6682.064	1	1	0	0	0.26769	0.2159	0.32177	0.16228	0.31075	0.074395	0.25288	0.13308	0.1372	0.067354	0.096163	0.09304	0.05052	0.0033445	0.13105	0.13168	-1.4875	-2.1854	-1.6542	-2.1646	-1.9875	-2.0292	-2.3312	-2.0125	-1.5979	-2.1542	-1.7771	-1.65	-2.1396	-1.5271	-2.2479	-2.2083	110.010	380.576	135.261	69.575	352.780	112.841	338.422	274.921	160.395	152.898	84.838	90.461	239.276	71.675	171.173	301.948	0.00043402	0.00045355	0.00013288	1000.8	2.2526e-06	4.6342e-06	1104.4	213.11	9.5415e-06	3.9727e-06	272.42	76.577	59.46	17.348	5.5166e-06	24.794	0.00033883	0.00031026	8.9533e-05	985.34	3.6713e-06	3.4406e-06	1081.6	213.85	3.623e-06	3.3683e-06	271.03	78.613	60.701	18.257	3.689e-06	26.235	105.657	270.027	160.154	67.031	70.394	99.892	66.656	74.464	282.544	356.851	74.133	80.932	81.196	88.698	182.258	88.009	-8191	255	
6682.183	1	1	0	0	0.13307	0.094108	0.26329	0.21721	0.29137	0.067653	0.11943	0.2764	0.20899	0.037573	0.37845	0.30473	0.067358	0.31545	0.099283	0.20557	-1.2833	-2.4083	-1.8021	-1.8958	-2.15	-1.4625	-2.2	-1.9438	-1.5333	-2.2271	-1.6854	-1.8292	-2.2271	-1.5354	-2.1875	-1.9542	397.525	79.909	403.830	305.755	240.382	389.358	258.571	391.755	292.265	209.691	311.826	72.406	341.871	58.628	343.931	346.507	0.00070828	0.00028034	5.1124e-05	999.35	1.3058e-06	5.5393e-06	1105.1	212.51	8.5609e-06	2.4501e-06	272.41	77.476	59.711	17.296	4.4362e-06	24.777	0.000328	0.00030576	9.4977e-05	985.77	3.5393e-06	3.3948e-06	1083.5	213.33	3.5368e-06	3.3376e-06	271.92	78.785	60.644	18.259	3.8822e-06	25.997	74.595	187.995	172.358	66.993	208.822	263.248	66.767	74.552	127.564	216.575	74.296	80.975	80.982	88.297	216.296	87.229	-8191	255	
6682.254	1	1	0	0	0.10342	0.20622	0.066514	0.18992	0.058317	0.1169	0.18119	0.18416	0.25567	0.11681	0.19055	0.14666	0.035307	0.36124	0.13776	0.13461	-1.0917	-2.1083	-1.7479	-1.8208	-1.9542	-1.6292	-1.9271	-2.1792	-1.5458	-2.1021	-1.9542	-1.8271	-2.2583	-1.5271	-2.1875	-2.1292	227.418	77.983	118.792	385.155	385.728	110.424	348.699	361.449	122.896	263.925	388.757	292.102	152.346	110.205	167.238	82.890	0.00058825	0.00016875	0.00015389	997.18	2.0272e-06	2.3884e-06	1103	211.33	2.3725e-06	4.416e-06	272.16	77.168	59.321	17.357	2.5208e-06	24.843	0.0003201	0.00030364	9.9312e-05	982.18	3.4258e-06	3.3785e-06	1084.7	212.06	3.4254e-06	3.3844e-06	272.77	78.325	60.343	18.263	3.9717e-06	25.904	64.289	320.723	157.807	67.181	280.074	154.603	66.850	74.800	106.736	273.264	74.210	80.996	81.307	88.711	198.378	87.947	-8191	255	
6682.352	1	1	0	0	0.29492	0.15225	0.17966	0.42578	0.14076	0.10455	0.26502	0.21256	0.093668	0.20663	0.17512	0.10259	0.22454	0.27329	0.18245	0.13383	-1.375	-2.1396	-1.9396	-1.8604	-2.3458	-1.6208	-1.9021	-2.1604	-1.6396	-2.1667	-1.9333	-1.7188	-2.2854	-1.7375	-1.6896	-2.2146	279.167	241.535	161.696	389.475	283.139	308.921	318.509	356.982	121.454	75.003	401.870	193.082	192.412	395.081	85.825	213.711	0.00049936	0.00061641	0.0001394	1001.4	1.2533e-06	1.7596e-06	1105	212.51	1.8264e-06	3.7533e-06	271.12	77.22	59.18	17.532	1.3645e-06	24.693	0.00031128	0.00031978	0.00010002	982.3	3.3573e-06	3.5398e-06	1086	211.82	3.3672e-06	3.5824e-06	272.9	78.007	60.352	18.485	3.924e-06	25.75	96.020	178.357	286.547	66.981	213.524	341.708	66.773	74.375	142.215	144.529	73.724	80.965	81.180	88.623	191.269	87.674	-8191	255	
6682.471	1	1	0	0	0.23418	0.1456	0.20795	0.06523	0.20202	0.20562	0.21034	0.3081	0.024306	0.18346	0.14498	0.18808	0.11649	0.081635	0.12193	0.13749	-0.95833	-2.0875	-2.05	-1.6063	-2.2021	-1.7792	-1.9146	-2.3792	-1.6542	-2.1146	-1.9937	-1.8729	-2.1688	-1.8292	-1.875	-2.2729	390.745	383.063	364.451	356.056	243.202	344.207	404.098	328.696	148.399	229.184	412.748	179.195	126.482	343.396	201.793	150.755	0.00083951	0.00059763	3.1087e-05	996.61	3.1791e-07	4.2888e-06	1107.8	211.52	2.3882e-06	2.4631e-06	272.31	77.658	59.698	17.507	2.7071e-06	24.757	0.00030914	0.00034023	9.926e-05	980.18	3.3457e-06	3.8228e-06	1083.8	211.95	3.3353e-06	3.8544e-06	271.94	78.122	60.418	18.548	3.7512e-06	25.707	94.971	116.986	258.603	66.788	132.808	221.174	67.029	74.476	216.382	235.664	74.343	80.779	81.171	88.441	204.226	87.660	-8191	255	
6682.567	1	1	0	0	0.198	0.046366	0.12895	0.19944	0.23256	0.052155	0.24496	0.10637	0.10801	0.19468	0.082988	0.10936	0.088579	0.29517	0.19823	0.1862	-1.3438	-2.1063	-2.1958	-1.7188	-2.1125	-1.975	-1.8479	-2.2792	-1.7479	-1.9083	-2.1646	-1.7125	-2.2104	-1.7542	-1.7708	-2.4688	82.797	416.150	64.211	345.055	332.168	190.951	349.001	89.323	90.536	314.785	345.979	360.402	353.834	58.107	164.853	107.819	0.00066906	0.00064671	0.00010014	1003.1	2.7491e-06	3.0182e-06	1106.6	212.16	2.7809e-06	5.8119e-06	270.98	77.309	59.802	17.428	4.8654e-06	24.701	0.00030927	0.00035481	9.3867e-05	981.05	3.3854e-06	3.8823e-06	1084.1	211.51	3.4609e-06	3.8968e-06	270.61	77.719	60.752	18.59	3.5725e-06	25.669	90.553	178.320	391.177	66.906	264.656	172.088	66.951	74.529	182.050	238.337	74.132	80.938	81.628	88.797	235.010	87.510	-8191	255	
6682.663	1	1	0	0	0.29698	0.19715	0.12617	0.14499	0.2895	0.08866	0.11203	0.20674	0.27339	0.18934	0.1983	0.11486	0.039433	0.13073	0.16883	0.25403	-1.2417	-2.0479	-1.9583	-1.7687	-2.0375	-1.8375	-1.8208	-2.2708	-1.7292	-2.1396	-2.3688	-1.6708	-1.9958	-2.1354	-1.5583	-2.2271	60.077	372.825	182.052	400.402	153.880	263.758	367.625	370.052	124.393	188.191	396.998	115.786	333.862	216.955	168.477	296.171	0.00047265	0.00046338	0.00021507	999.63	7.0144e-06	3.04e-06	1108.6	211.45	1.1542e-05	2.0683e-06	271.46	77.464	60.071	17.369	6.8163e-06	24.866	0.000326	0.00035272	8.9808e-05	977.88	3.5818e-06	3.841e-06	1081.9	210.78	3.6626e-06	3.8175e-06	270.48	77.438	61.206	18.544	3.4771e-06	25.612	81.483	106.595	132.312	67.124	225.325	150.129	66.918	74.411	160.602	265.692	73.993	80.726	81.333	88.593	258.478	87.550	-8191	255	
6682.784	1	1	0	0	0.15388	0.19641	0.32853	0.10874	0.10441	0.061526	0.38283	0.090418	0.21933	0.23325	0.2075	0.23665	0.026518	0.14921	0.29195	0.23255	-1.4896	-1.6938	-2.2833	-1.8292	-2.1396	-1.975	-1.7646	-2.225	-1.8167	-1.9937	-2.1167	-1.7208	-1.9062	-2.0292	-1.525	-2.1396	401.945	164.667	103.750	287.005	349.314	197.471	396.904	274.119	230.877	274.530	114.932	331.784	288.025	70.842	293.076	414.401	0.00075412	0.00072506	0.00011387	999.72	7.2751e-06	3.6176e-06	1105	212.29	1.2816e-06	6.8638e-06	273.71	77.357	59.412	17.325	3.2471e-06	24.79	0.00034599	0.00034143	8.7258e-05	978.93	3.8007e-06	3.6633e-06	1081.2	211.31	3.839e-06	3.65e-06	269.51	77.761	61.254	18.381	3.4081e-06	25.716	90.859	385.698	120.149	66.917	114.393	391.227	67.042	74.624	304.515	102.575	74.340	81.155	81.570	88.398	370.852	87.636	-8191	255	
6682.856	1	1	0	0	0.12898	0.23646	0.11852	0.091195	0.067806	0.19374	0.54567	0.41163	0.40415	0.17219	0.17301	0.15545	0.069278	0.21813	0.13642	0.21857	-1.2771	-1.8188	-2.3646	-1.8563	-1.9312	-2.3021	-1.6333	-2.0646	-1.825	-1.6333	-2.275	-1.675	-1.7979	-2.0417	-1.3937	-2.0312	395.927	193.908	295.171	382.785	234.083	177.377	316.013	312.831	371.047	80.359	338.226	93.529	106.690	408.613	324.985	406.375	0.00057252	0.00022646	8.9443e-05	991.18	5.99e-06	4.5699e-06	1102.2	211.88	2.6945e-06	1.7957e-06	273.2	77.712	59.374	17.526	3.4616e-06	24.745	0.00035303	0.00032233	8.4543e-05	977.13	3.7912e-06	3.4146e-06	1075.8	211.03	3.7339e-06	3.3637e-06	268.86	78.05	61.021	18.28	3.2747e-06	25.807	88.059	262.966	312.338	67.095	81.605	246.461	67.043	74.455	176.996	131.910	74.149	80.980	81.231	88.280	315.918	87.732	-8191	255	
6682.952	1	1	0	0	0.14724	0.13933	0.055525	0.31252	0.25604	0.14746	0.10524	0.075817	0.12193	0.20342	0.14763	0.18522	0.31741	0.31156	0.23464	0.07495	-1.4146	-1.6896	-2.0917	-1.95	-1.8458	-2.1729	-1.8583	-2.2062	-2.0604	-1.6313	-2.2938	-1.9104	-1.7042	-2.2708	-1.6146	-1.9542	355.095	153.959	235.143	69.673	90.338	182.045	352.921	243.430	388.543	393.910	365.018	385.795	409.266	385.873	124.812	123.433	0.00048661	0.00047783	8.8496e-05	1001.2	4.2158e-06	3.221e-06	1106	213.05	6.263e-06	1.5613e-06	271.18	77.088	59.357	17.427	3.7407e-06	24.822	0.00034817	0.00031498	8.3384e-05	984.01	3.7856e-06	3.4552e-06	1078.5	213.02	3.7947e-06	3.4504e-06	269.29	78.459	61.09	18.303	3.3452e-06	26.136	93.388	73.257	182.246	67.061	203.393	412.876	66.885	74.569	401.911	355.242	74.209	80.897	81.310	88.627	292.537	87.481	-8191	255	
6683.072	1	1	0	0	0.22824	0.26592	0.16549	0.14296	0.11414	0.15214	0.20082	0.077455	0.15265	0.17403	0.093704	0.19329	0.26167	0.12782	0.25833	0.31415	-1.6417	-1.5187	-2.2792	-2.0604	-1.6625	-2.2625	-1.8021	-2.0542	-2.1125	-1.6521	-2.3125	-1.9458	-1.9271	-2.2333	-1.7292	-2.1	369.733	353.781	66.927	317.692	280.220	398.578	304.982	392.100	252.937	415.394	73.206	105.299	57.909	366.570	309.101	351.353	0.00036236	0.00026549	0.00012298	999.55	2.767e-06	5.8705e-06	1104.6	212.64	1.0526e-05	1.3103e-06	272.31	77.045	59.44	17.412	3.1209e-06	24.811	0.00034144	0.00031708	8.7004e-05	985.1	3.7649e-06	3.5066e-06	1080.6	213.96	3.7538e-06	3.5118e-06	270.81	79.17	61.179	18.339	3.6368e-06	26.147	76.402	233.524	134.986	67.051	253.004	335.093	66.835	74.845	131.214	233.128	74.031	80.651	81.426	88.196	191.065	87.444	-8191	255	
6683.167	1	1	0	0	0.24423	0.14106	0.077978	0.11884	0.063033	0.25245	0.19917	0.096585	0.077821	0.25886	0.076788	0.084445	0.1022	0.089349	0.12602	0.080595	-1.6771	-1.6479	-2.2292	-2.0979	-1.7375	-2.3563	-1.9542	-2.0812	-2.0771	-1.7875	-2.2812	-2.1833	-1.7958	-2.4917	-1.6979	-1.9917	166.399	320.861	85.402	394.283	153.656	205.197	351.791	358.184	88.933	299.755	104.947	102.427	314.768	204.886	264.715	414.678	0.00040337	0.00029136	0.00014569	997.78	3.46e-06	1.7053e-06	1107.7	211.88	2.6739e-06	4.2103e-06	272.02	77.211	59.284	17.497	5.5474e-06	24.777	0.00033497	0.0003182	9.3354e-05	987.67	3.6856e-06	3.4058e-06	1084.6	213.67	3.6539e-06	3.4709e-06	272.3	78.937	60.753	18.331	3.9046e-06	26.189	88.721	105.616	165.668	66.953	189.455	271.004	66.984	74.519	190.814	158.205	74.083	81.046	81.180	88.725	185.962	87.312	-8191	255	
6683.263	1	1	0	0	0.11016	0.023677	0.2633	0.10627	0.1139	0.29934	0.18693	0.20335	0.09913	0.19637	0.29099	0.14025	0.13613	0.05581	0.052602	0.15189	-1.7	-1.5896	-2.0542	-2.1562	-1.4229	-2.2125	-1.9646	-2.0875	-2.2896	-1.8292	-2.1667	-2.1271	-1.5021	-2.3812	-1.7938	-1.8667	57.026	292.463	410.583	291.322	58.469	312.212	362.290	292.488	208.773	317.949	380.551	357.216	393.294	410.820	315.936	346.511	0.00045071	0.00044988	0.00013656	1001.2	1.4369e-06	6.8292e-07	1110.8	212.69	6.4674e-07	2.2397e-06	273.8	77.418	59.135	17.538	3.8e-06	24.762	0.00033065	0.0003094	9.8182e-05	985.73	3.556e-06	3.3549e-06	1087.8	213.32	3.4984e-06	3.3891e-06	273.55	78.6	60.657	18.322	3.9775e-06	25.998	81.692	187.696	213.450	66.918	308.523	262.036	67.065	74.843	364.255	264.193	73.960	80.441	81.232	88.908	168.107	87.989	-8191	255	
6683.359	1	1	0	0	0.16998	0.16949	0.30668	0.4871	0.21226	0.17676	0.13512	0.1843	0.067655	0.26591	0.39805	0.14803	0.10376	0.25205	0.083192	0.25047	-1.7313	-1.5812	-2.1	-2.1917	-1.5771	-2.0854	-1.9958	-1.7042	-2.2979	-1.7125	-2.3417	-2.2062	-1.6854	-2.1562	-1.9188	-1.775	140.159	95.307	264.593	388.086	298.799	63.381	349.406	396.988	269.382	331.094	283.134	383.577	413.929	366.208	368.243	122.850	0.00058914	0.00019639	0.00012268	1002.5	6.986e-06	7.836e-06	1104.7	213.43	4.3027e-06	4.8519e-06	271.68	77.74	59.335	17.424	2.4069e-06	24.835	0.00031267	0.00031727	0.00010117	984.91	3.4591e-06	3.4842e-06	1089.9	213.17	3.3675e-06	3.552e-06	273.4	78.377	60.556	18.433	3.9827e-06	25.852	80.293	154.214	161.124	66.877	193.977	204.050	66.991	74.677	311.037	267.734	74.019	80.660	81.167	88.546	329.456	87.628	-8191	255	
6683.480	1	1	0	0	0.17873	0.23136	0.12926	0.14273	0.10576	0.050545	0.28333	0.14741	0.18428	0.28373	0.12194	0.074315	0.12043	0.12407	0.059096	0.14224	-1.7854	-1.6896	-1.8813	-2.3729	-1.4271	-2.1688	-2.1333	-1.8563	-2.3042	-2.0604	-1.9833	-2.2896	-1.5938	-2.1292	-2.1354	-1.7542	161.654	86.702	279.908	368.894	63.497	100.672	105.945	408.486	245.686	384.578	88.659	70.091	210.500	238.820	389.351	309.852	0.00068225	0.00077734	0.00013986	1004.2	1.91e-06	1.6268e-06	1110.3	212.27	3.7048e-07	2.3604e-06	273.27	77.678	59.332	17.434	4.5001e-06	24.606	0.00030763	0.00033585	9.9802e-05	984.31	3.3355e-06	3.7116e-06	1090.5	212.28	3.3114e-06	3.8133e-06	273.08	78.017	60.489	18.538	3.8386e-06	25.826	88.460	119.020	244.303	66.910	199.036	229.431	66.854	74.741	373.674	174.838	74.254	80.716	81.685	88.522	151.108	87.583	-8191	255	
6683.551	1	1	0	0	0.06768	0.26024	0.17437	0.26928	0.15656	0.16998	0.15155	0.17693	0.22123	0.10604	0.2992	0.23005	0.16913	0.23957	0.10488	0.016595	-1.9625	-1.8417	-1.8813	-2.1375	-1.475	-2.0604	-2.2354	-1.7437	-2.0271	-1.8917	-1.7271	-2.4583	-1.5875	-2.1958	-1.9979	-1.7229	202.533	163.282	106.205	375.784	99.373	390.372	410.734	343.806	161.286	268.656	342.567	340.767	223.860	359.419	93.994	215.906	0.00056586	0.00036615	5.5034e-05	997.74	4.6541e-06	3.2164e-06	1108.4	211.92	9.1042e-06	5.3331e-06	274.59	77.505	59.874	17.445	4.1359e-06	24.831	0.00030629	0.00035482	9.6363e-05	981.34	3.3467e-06	3.8437e-06	1086.6	211.68	3.4024e-06	3.9104e-06	272.35	77.936	60.817	18.558	3.6573e-06	25.83	71.634	386.476	212.186	66.730	182.707	382.001	66.945	74.542	140.796	227.071	74.118	80.711	81.416	88.679	121.085	87.443	-8191	255	
6683.648	1	1	0	0	0.14138	0.22744	0.11277	0.3613	0.10828	0.14172	0.29789	0.18866	0.11148	0.23925	0.10532	0.10361	0.15151	0.022406	0.085107	0.29621	-1.7729	-1.8167	-1.7146	-2.5521	-1.6646	-2.0583	-2.3229	-1.7354	-2.2917	-1.8	-1.8958	-2.2104	-1.6979	-1.8438	-2.3187	-1.7125	282.320	197.907	328.562	373.158	385.863	172.281	366.531	320.770	161.004	194.968	322.151	106.025	76.987	81.088	366.900	396.175	0.00064599	0.0002817	0.0001766	1001.7	5.6836e-06	1.8682e-06	1109.8	212.65	3.3388e-06	4.6833e-07	272.22	77.393	59.97	17.573	2.8793e-06	24.705	0.00032379	0.0003635	9.3278e-05	980.54	3.6011e-06	3.9349e-06	1085.2	211.7	3.6017e-06	3.9047e-06	271.1	77.568	61.136	18.617	3.5005e-06	25.603	88.501	72.587	209.402	66.903	161.606	123.904	67.112	74.428	160.984	405.397	74.293	81.139	81.146	88.499	321.212	87.653	-8191	255	
6683.744	1	1	0	0	0.18594	0.045071	0.2296	0.11296	0.21334	0.2528	0.20948	0.3417	0.31904	0.19608	0.046788	0.36465	0.21808	0.046431	0.033362	0.21468	-1.8333	-2.1396	-1.6771	-2.35	-1.7854	-1.7292	-2.4125	-1.7479	-2.1792	-2.1854	-1.6458	-2.175	-1.7729	-1.9813	-2.1229	-1.8458	133.005	147.154	257.593	62.221	212.010	170.217	316.118	273.119	293.483	398.831	59.405	357.374	359.519	230.210	345.702	343.889	0.00072281	0.00037301	0.00010558	1001.2	5.2003e-06	1.6231e-06	1110.1	212.99	5.8668e-06	2.4074e-06	272.23	77.631	60.051	17.593	2.9343e-06	24.707	0.00033709	0.00034345	8.7923e-05	980.65	3.7527e-06	3.7443e-06	1083.9	211.48	3.7443e-06	3.7387e-06	270.42	77.755	61.566	18.488	3.3788e-06	25.652	97.206	383.512	145.913	67.194	187.131	149.950	66.772	74.673	247.101	340.032	74.185	80.896	81.450	88.644	151.867	87.833	-8191	255	
6683.864	1	1	0	0	0.054412	0.17634	0.20373	0.41499	0.1506	0.10175	0.2781	0.20248	0.2831	0.088029	0.15925	0.13758	0.22692	0.25094	0.22077	0.1638	-1.6458	-1.8813	-1.4188	-2.2583	-1.8396	-1.8062	-2.5563	-1.6667	-2.0125	-2.0875	-1.6542	-2.3063	-2.1292	-1.8396	-2.4688	-1.9896	272.036	221.443	272.418	342.372	213.618	327.039	373.309	358.302	126.900	329.937	354.265	342.013	175.847	273.362	79.501	99.809	0.00073475	0.00027923	0.00014601	1004.2	4.9736e-07	4.3402e-06	1109.2	212	1.7134e-06	2.7078e-06	270.99	77.476	59.77	17.544	7.9646e-06	24.746	0.00034984	0.00033101	8.6541e-05	980.95	3.8391e-06	3.6058e-06	1080.8	211.82	3.8178e-06	3.4825e-06	269.02	77.886	61.27	18.363	3.257e-06	25.748	80.830	368.400	323.763	66.913	293.390	313.464	66.928	74.592	253.712	61.149	73.898	81.157	81.600	88.436	225.141	88.233	-8191	255	
6683.960	1	1	0	0	0.31069	0.046065	0.11949	0.21227	0.1416	0.13113	0.24476	0.16564	0.17489	0.13234	0.13649	0.080154	0.28348	0.15951	0.23707	0.24668	-1.5333	-2.1312	-1.4083	-2.2208	-2.0583	-1.7542	-2.4708	-1.8729	-1.7667	-2.3958	-1.6521	-2.3917	-2.0083	-1.6938	-2.3896	-1.6979	264.859	68.699	316.208	346.595	138.976	110.844	377.767	299.092	405.299	194.653	346.410	81.846	402.093	346.266	161.880	396.599	0.00059373	0.00035027	7.2205e-05	999.54	6.2944e-06	2.5069e-06	1112.4	212.65	7.8956e-06	2.2267e-06	272.83	77.391	59.384	17.523	9.3596e-06	24.667	0.00034636	0.000313	8.2628e-05	982.67	3.7612e-06	3.4208e-06	1081.3	212.22	3.7777e-06	3.4719e-06	269.58	78.486	61.215	18.361	3.2674e-06	25.967	95.546	282.949	246.702	66.866	248.570	211.607	66.848	74.478	65.514	334.130	73.862	80.773	81.079	88.583	221.373	87.656	-8191	255	
6684.055	1	1	0	0	0.11322	0.089673	0.065505	0.43929	0.088599	0.094519	0.14234	0.063465	0.11436	0.051242	0.25524	0.10953	0.25177	0.14348	0.14553	0.13478	-1.6	-2.3563	-1.7667	-2.1708	-1.8917	-1.7583	-2.3083	-1.8729	-1.8479	-2.2562	-1.6333	-2.0187	-2.5104	-1.5021	-2.2812	-1.8979	94.354	147.933	310.638	353.275	415.046	118.565	375.357	212.673	216.397	325.912	382.852	401.541	158.367	206.644	166.529	208.226	0.0005188	0.00024886	0.0001	1001.3	2.5974e-06	1.3744e-06	1106.2	212.78	7.8376e-06	8.6643e-07	271.89	77.111	59.878	17.51	2.7871e-06	24.864	0.00033794	0.00030734	8.3765e-05	986.11	3.6281e-06	3.3578e-06	1079.8	213.53	3.6023e-06	3.3252e-06	269.54	78.813	61.05	18.279	3.3501e-06	26.109	74.579	98.776	195.555	67.010	227.627	257.086	67.034	74.462	374.284	309.643	74.029	81.305	81.479	88.350	267.197	87.733	-8191	255	
6684.153	1	1	0	0	0.09632	0.20639	0.29276	0.14563	0.067656	0.1279	0.14212	0.16991	0.16012	0.18069	0.15706	0.2077	0.12837	0.24737	0.085384	0.15908	-1.3021	-2.2062	-1.7375	-2.2479	-2.2479	-1.5312	-2.2792	-1.9542	-1.8042	-2.2833	-1.6104	-2.0917	-2.2417	-1.4833	-2.2396	-1.9521	329.844	181.818	153.726	381.167	97.483	206.976	222.821	350.550	202.107	62.486	384.243	318.608	184.724	98.174	90.274	283.105	0.00043068	0.00033927	0.00015243	1004.5	4.8259e-06	3.2573e-06	1110.6	212.96	7.1474e-07	6.9388e-07	274.91	78.026	59.484	17.574	7.3698e-06	24.964	0.00032414	0.00029912	8.7725e-05	988.2	3.4852e-06	3.3081e-06	1085.1	213.3	3.5295e-06	3.2269e-06	271.76	78.983	60.689	18.315	3.5894e-06	26.104	89.532	350.346	151.397	67.042	276.760	275.812	67.146	74.593	210.905	365.516	74.257	80.999	81.092	88.263	205.332	88.143	-8191	255	
6684.247	1	1	0	0	0.10591	0.27941	0.27389	0.30874	0.25804	0.19905	0.24674	0.060298	0.14449	0.24709	0.12325	0.36497	0.18102	0.31923	0.21817	0.41568	-1.2479	-2.175	-1.7313	-2.0875	-2.1583	-1.7021	-2.4437	-1.9625	-1.8479	-2.2396	-1.8896	-2.1167	-2.275	-1.7854	-1.9271	-2.05	126.908	184.933	370.047	56.549	146.187	84.375	362.386	84.266	396.169	93.041	91.066	413.768	347.006	396.716	63.011	163.706	0.00054264	0.00049749	0.00018267	997.75	2.8614e-06	4.5155e-06	1109.9	212.34	3.0766e-06	3.7834e-06	272.1	77.58	59.802	17.517	6.8158e-06	24.91	0.00031822	0.00029187	9.2955e-05	984.85	3.4124e-06	3.242e-06	1085.9	212.95	3.3747e-06	3.1616e-06	272.08	78.412	60.357	18.207	3.7289e-06	25.92	97.607	180.109	124.922	66.731	121.198	165.326	66.858	74.467	264.143	296.278	73.855	80.956	81.262	88.678	278.754	87.992	-8191	255	
6684.343	1	1	0	0	0.32453	0.3486	0.09163	0.27172	0.19119	0.26427	0.24367	0.13698	0.23628	0.26466	0.22957	0.21047	0.091497	0.17875	0.21609	0.16456	-1.3083	-2.0104	-2.0667	-2.1208	-2.3271	-1.6104	-2.1542	-2.0167	-1.6083	-2.2646	-1.9229	-1.7583	-2.2604	-1.8625	-1.9875	-2.2521	66.444	163.781	373.146	57.908	106.299	319.936	296.548	384.387	254.806	287.132	59.073	334.496	392.816	338.774	123.106	199.134	0.00043745	0.0003288	0.00019129	1000.2	3.9251e-06	4.6065e-07	1108.7	213.17	1.9326e-06	2.4388e-06	273.19	77.266	59.26	17.597	7.3494e-06	24.815	0.0003082	0.0003	9.713e-05	984.79	3.3343e-06	3.3042e-06	1088.3	212.36	3.3329e-06	3.355e-06	272.94	78.314	60.35	18.347	3.889e-06	25.819	96.395	88.985	203.919	66.750	208.105	148.595	67.065	74.565	356.036	175.546	74.057	80.963	80.980	88.362	213.476	87.684	-8191	255	
6684.464	1	1	0	0	0.055964	0.14672	0.16251	0.074238	0.025547	0.2517	0.12367	0.30795	0.1203	0.14073	0.13239	0.15199	0.079272	0.1275	0.1457	0.168	-1.0312	-2.0938	-1.7938	-1.7979	-2.4521	-1.75	-1.9562	-2.2687	-1.7354	-2.0083	-1.9792	-1.7479	-2.2542	-1.925	-1.9354	-2.1	245.229	391.202	94.338	183.533	87.873	384.624	300.789	385.829	219.096	155.395	354.993	393.447	314.644	391.876	163.836	269.781	0.00053627	0.0010123	6.4567e-05	999.4	5.4422e-06	2.3401e-06	1106.6	211.71	2.3389e-06	6.4675e-06	274.19	76.973	59.265	17.373	3.9235e-06	24.755	0.00030313	0.00031757	9.9381e-05	982.6	3.3247e-06	3.6204e-06	1087.3	211.85	3.3409e-06	3.6213e-06	273.23	78.062	60.168	18.448	3.8074e-06	25.693	64.144	136.305	210.655	67.184	213.710	164.365	66.987	74.767	135.731	201.530	74.155	80.646	81.257	88.511	180.366	87.648	-8191	255	
6684.560	1	1	0	0	0.1198	0.19574	0.094066	0.052963	0.10927	0.22888	0.26826	0.24225	0.094448	0.044305	0.053893	0.12052	0.14246	0.20691	0.067517	0.24637	-1.3104	-1.9771	-2.1479	-1.8958	-2.2458	-1.6688	-2.0229	-2.2625	-1.6458	-2.0312	-2.2229	-1.7917	-2.0938	-1.9958	-1.5896	-2.3271	382.834	349.468	198.516	384.522	329.693	354.199	354.749	141.025	124.742	312.255	84.640	347.670	414.411	354.463	340.732	304.242	0.00071234	0.00080336	0.00010402	997.05	5.2933e-06	7.4867e-06	1107.7	212.65	1.1293e-06	1.7774e-06	272.32	77.888	59.552	17.623	4.1521e-06	24.75	0.00029896	0.00033337	9.4477e-05	980.13	3.2324e-06	3.6986e-06	1084.6	211.62	3.2816e-06	3.7878e-06	271.6	77.879	60.34	18.579	3.6405e-06	25.647	88.782	157.846	67.593	66.959	284.531	191.309	66.961	74.579	388.442	267.302	74.035	80.788	81.855	88.684	320.819	87.675	-8191	255	
6684.656	1	1	0	0	0.10128	0.063021	0.13935	0.20162	0.13601	0.078444	0.1714	0.042937	0.13325	0.12354	0.28601	0.079749	0.12114	0.20214	0.31203	0.074476	-1.4542	-2.1021	-1.9875	-1.8771	-2.2562	-1.7854	-1.9188	-2.2833	-1.6021	-1.9646	-2.0687	-1.6458	-2.1625	-1.9	-1.6583	-2.3312	188.222	350.176	87.014	407.217	335.233	212.305	343.881	291.729	68.191	164.616	75.746	388.125	253.506	345.266	63.727	188.817	0.00053585	0.00046805	0.00013337	999.23	5.4667e-06	2.2936e-06	1108.2	211.76	9.5876e-06	2.2528e-06	272.19	77.099	60.079	17.509	2.5081e-06	24.755	0.00031031	0.00034964	9.1352e-05	979.18	3.3513e-06	3.8024e-06	1083.3	211.34	3.4738e-06	3.7828e-06	270.38	77.551	60.773	18.594	3.4561e-06	25.521	88.882	129.955	345.278	66.960	200.184	141.893	66.905	74.469	146.533	121.494	74.149	80.937	81.218	88.748	179.289	87.773	-8191	255	
6684.752	1	1	0	0	0.084932	0.31917	0.35885	0.10883	0.14242	0.42148	0.18422	0.056881	0.060168	0.21924	0.013905	0.049749	0.37494	0.07005	0.12874	0.27168	-1.1938	-1.8396	-1.9375	-1.9125	-2.1375	-1.8604	-1.7917	-2.4771	-1.7563	-1.8583	-2.2542	-1.6729	-2.1104	-2.0583	-1.5979	-2.3125	153.807	399.362	211.303	175.417	213.339	155.665	302.733	202.393	240.427	153.285	74.348	252.414	397.300	94.359	381.540	121.830	0.00053124	0.00078242	2.8676e-05	1001.8	1.2026e-06	1.6616e-06	1098.2	212.26	1.307e-05	4.001e-06	271.26	77.719	59.704	17.49	1.9139e-06	24.843	0.0003243	0.00034288	8.753e-05	980.79	3.5776e-06	3.7007e-06	1079.8	210.91	3.6355e-06	3.6668e-06	269.31	77.496	61.082	18.453	3.41e-06	25.531	61.926	366.551	378.229	66.931	219.913	347.834	66.869	74.664	150.725	330.975	74.188	81.274	81.277	88.585	253.989	87.551	-8191	255	
6684.849	1	1	0	0	0.082685	0.10558	0.12715	0.17471	0.012029	0.19494	0.085556	0.18883	0.2336	0.040094	0.11123	0.11759	0.13496	0.26185	0.05114	0.27039	-1.375	-1.8521	-2.1729	-1.9521	-1.9667	-2.0958	-1.7667	-2.125	-1.8646	-1.8146	-2.2625	-1.7146	-2.0187	-2.1125	-1.6146	-2.1958	227.887	300.278	335.758	101.183	193.381	332.895	413.357	136.001	396.345	375.126	365.877	412.455	129.152	142.314	222.451	112.242	0.00059954	0.00035342	3.0764e-05	999.45	9.6082e-06	4.3047e-07	1107.9	212.03	1.5815e-06	2.4122e-06	272.32	77.187	59.48	17.48	5.5373e-06	24.744	0.00034378	0.00033286	8.5442e-05	979.18	3.7693e-06	3.6201e-06	1081.5	211.05	3.8506e-06	3.5947e-06	269.46	77.709	61.28	18.408	3.4201e-06	25.638	88.470	108.386	200.207	66.996	241.362	71.563	67.050	74.799	275.516	126.954	74.118	81.042	81.725	88.998	81.702	87.911	-8191	255	
6684.945	1	1	0	0	0.12756	0.097718	0.28645	0.1356	0.14365	0.37387	0.13346	0.34828	0.077328	0.14477	0.25926	0.26124	0.21073	0.11877	0.39003	0.13117	-1.3833	-1.625	-2.1667	-1.7458	-2.0271	-2.1104	-1.6708	-2.1833	-1.9875	-1.7979	-2.2562	-1.8958	-1.8188	-2.2062	-1.775	-2.0792	255.133	271.104	158.780	62.808	381.638	139.316	322.066	386.716	135.671	328.861	86.093	94.521	381.842	316.157	273.847	364.867	0.00064666	0.00058819	2.8629e-05	999.18	6.0124e-06	4.264e-06	1110.3	212.09	4.5606e-06	2.6411e-06	273.77	77.077	59.001	17.506	1.2775e-06	24.701	0.00035372	0.00032493	8.4474e-05	982.21	3.8564e-06	3.528e-06	1083.6	212.12	3.8456e-06	3.5049e-06	269.71	78.302	61.285	18.377	3.3497e-06	25.93	85.841	145.911	190.155	66.919	138.852	219.888	66.781	74.797	150.668	242.368	73.874	81.025	81.355	88.470	412.474	87.760	-8191	255	
6685.041	1	1	0	0	0.064578	0.37083	0.14144	0.35127	0.2308	0.22724	0.15118	0.11769	0.11974	0.37381	0.22724	0.27647	0.1238	0.30629	0.21328	0.23886	-1.4146	-1.6375	-2.2271	-1.9167	-1.9562	-2.175	-1.8146	-2.0917	-2.0333	-1.8062	-2.4437	-1.9104	-1.8208	-2.3625	-1.6625	-2.1813	355.823	394.058	61.759	368.179	300.532	124.993	350.246	86.917	77.390	70.422	345.034	346.901	346.108	413.641	342.042	138.784	0.00043636	0.0003323	9.0269e-05	1000.4	4.9932e-06	6.1762e-07	1106.7	211.43	4.4772e-06	4.4133e-06	272.43	77.342	59.387	17.445	9.8217e-06	24.889	0.00034675	0.00031952	8.3516e-05	985.52	3.8014e-06	3.4395e-06	1081.8	212.96	3.7521e-06	3.4971e-06	270.02	78.779	61.095	18.353	3.4517e-06	26.17	91.908	346.506	250.815	66.869	397.337	145.645	67.228	74.747	182.262	298.672	74.078	81.256	81.061	88.203	191.437	87.360	-8191	255	
6685.160	1	1	0	0	0.21496	0.13034	0.16325	0.16033	0.030197	0.047544	0.13292	0.27679	0.28804	0.12535	0.25452	0.19464	0.28086	0.18421	0.082479	0.18376	-1.7521	-1.6354	-2.4167	-1.8625	-1.7292	-2.25	-1.9708	-1.9604	-1.9542	-1.5	-2.3688	-1.9458	-1.7687	-2.1667	-1.6917	-1.9958	239.310	213.216	265.985	333.537	385.657	324.886	133.569	377.316	162.224	408.032	376.692	83.591	344.056	376.687	152.245	362.932	0.00054723	0.00029532	0.00017993	1004.2	4.1563e-06	3.7699e-06	1109.9	212.79	3.3742e-06	2.6566e-06	272.32	77.176	59.486	17.525	5.3698e-06	24.981	0.00034306	0.00031995	8.9033e-05	988.25	3.7743e-06	3.514e-06	1084.2	214.19	3.8318e-06	3.6261e-06	272.05	79.51	61.37	18.45	3.9047e-06	26.462	73.227	132.843	186.531	67.255	206.822	178.590	67.033	74.708	289.839	404.291	73.921	80.899	81.005	88.517	258.749	87.237	-8191	255	
6685.256	1	1	0	0	0.25909	0.069087	0.0477	0.30896	0.09248	0.36605	0.13795	0.015462	0.22808	0.31476	0.16567	0.10473	0.14505	0.11234	0.26334	0.26511	-1.6833	-1.6313	-2.1688	-1.9042	-1.3521	-2.2479	-1.9979	-2.1729	-2.1792	-1.8417	-2.2438	-2.1625	-1.6917	-2.0896	-1.6979	-1.7979	350.633	312.970	362.146	121.994	191.040	406.363	361.939	169.614	149.499	155.792	375.556	386.897	199.760	360.600	121.965	151.965	0.00057899	0.0004296	0.00015173	1004.1	3.1027e-06	4.3318e-07	1105.7	212.88	2.9493e-07	1.27e-06	272.82	77.17	59.678	17.374	5.5774e-06	24.784	0.00034989	0.00032882	9.8605e-05	990.43	3.78e-06	3.4917e-06	1089.8	214.43	3.6979e-06	3.5356e-06	273.17	79.22	61.222	18.32	4.0547e-06	26.208	83.486	398.541	138.794	66.961	61.203	154.919	66.989	74.455	315.931	263.891	74.138	80.581	81.256	88.192	202.195	87.550	-8191	255	
6685.352	1	1	0	0	0.084667	0.29459	0.34554	0.050636	0.29711	0.2304	0.089543	0.1586	0.35211	0.19134	0.18623	0.22316	0.23066	0.13051	0.22196	0.22006	-1.7938	-1.5854	-2.1167	-2.2771	-1.6583	-2.1854	-1.8542	-1.8625	-2.2833	-1.7792	-2.0292	-2.1146	-1.7958	-2.1854	-2.0563	-1.85	238.961	249.730	70.020	294.267	349.254	153.805	313.450	388.774	114.273	345.381	151.634	252.441	274.479	392.388	258.215	316.973	0.00032118	0.00082655	0.00011146	1002.4	3.051e-06	2.5149e-06	1110.2	212.34	2.902e-06	4.7972e-06	272.45	77.897	59.631	17.68	1.6645e-06	24.893	0.00033211	0.00032232	0.00010315	988.63	3.6433e-06	3.4796e-06	1091.3	213.49	3.5779e-06	3.5719e-06	273.74	78.748	60.932	18.451	4.0406e-06	26.043	78.439	177.855	115.850	66.956	127.172	273.827	66.905	74.538	321.453	212.812	73.904	80.648	81.170	88.778	290.316	88.222	-8191	255	
6685.424	1	1	0	0	0.12781	0.19806	0.11993	0.11288	0.275	0.1436	0.15226	0.36486	0.11613	0.14268	0.18448	0.13465	0.28485	0.41409	0.057779	0.10096	-1.8813	-1.75	-1.8813	-2.175	-1.6646	-2.0833	-2.0583	-1.8062	-2.3458	-1.7083	-1.9312	-2.2333	-1.6104	-2.3042	-1.9542	-1.8729	87.260	188.871	76.189	331.673	206.261	138.776	412.600	336.106	303.681	164.483	347.772	107.855	370.727	181.587	356.949	158.975	0.00064154	0.00010685	0.00012352	1000.2	4.5555e-06	5.7097e-06	1109.8	212.35	4.5339e-06	2.9515e-06	271.83	77.169	60.079	17.456	3.2309e-06	24.914	0.00031266	0.00032269	0.00010147	983.78	3.4298e-06	3.5492e-06	1090	212.41	3.3553e-06	3.6976e-06	273.15	78.147	60.787	18.493	3.9365e-06	25.905	91.589	400.416	149.767	66.602	289.695	176.155	67.060	74.924	110.984	218.963	74.280	80.746	81.131	88.948	298.773	87.332	-8191	255	
6685.544	1	1	0	0	0.17327	0.079345	0.1732	0.24139	0.26862	0.019051	0.35818	0.17373	0.088067	0.15373	0.21895	0.41881	0.25596	0.10356	0.11183	0.20967	-2.0187	-1.6479	-1.8833	-2.1604	-1.4375	-2.0979	-2.0479	-1.6292	-2.1937	-1.8125	-1.8854	-2.0375	-1.7	-2.0104	-1.7375	-1.8729	117.190	75.049	159.193	380.559	244.155	406.514	302.093	403.087	122.165	331.170	333.054	336.979	357.846	57.982	249.232	349.203	0.00062609	0.00053217	6.0335e-05	1003.9	4.2504e-06	5.6331e-06	1111.6	213.04	9.7086e-06	5.8447e-06	271.95	77.325	59.473	17.444	4.3542e-06	24.829	0.00030425	0.00033994	9.9855e-05	985.16	3.3597e-06	3.7261e-06	1091.2	212.47	3.3484e-06	3.8556e-06	272.99	78.228	60.625	18.665	3.8362e-06	25.919	79.446	194.133	117.208	66.861	188.933	270.501	66.706	74.610	158.088	214.909	74.409	80.685	81.692	88.384	242.498	87.548	-8191	255	
6685.640	1	1	0	0	0.25831	0.27254	0.10045	0.30868	0.14007	0.19127	0.25321	0.1418	0.13896	0.092308	0.14892	0.28023	0.058036	0.10832	0.20966	0.024494	-1.7812	-1.9771	-1.7167	-2.4125	-1.5375	-1.8042	-2.2208	-1.7042	-1.8292	-1.9104	-1.65	-2.3396	-1.3604	-1.9125	-1.9875	-1.5979	333.903	68.913	309.942	123.688	66.745	278.663	379.352	348.436	64.031	364.801	287.922	309.815	235.517	375.573	152.746	353.572	0.00075398	0.00057006	5.1451e-06	1005.1	9.2403e-06	4.9336e-06	1112.2	211.66	5.6277e-06	2.2118e-06	273.78	77.405	59.834	17.5	1.4329e-06	24.81	0.00031546	0.00036438	9.878e-05	985.71	3.5489e-06	4.088e-06	1090.3	212.41	3.6153e-06	4.1257e-06	272.91	78.186	61.219	18.815	3.7542e-06	25.872	93.637	242.770	291.366	66.972	216.615	182.062	66.850	74.733	161.273	230.510	74.239	80.647	81.556	88.767	292.152	87.717	-8191	255	
6685.737	1	1	0	0	0.11934	0.03922	0.22719	0.40842	0.099868	0.21675	0.10264	0.31007	0.083931	0.20365	0.049467	0.12122	0.142	0.2841	0.085522	0.1418	-1.8	-1.8958	-1.4521	-2.4104	-1.7542	-1.9458	-2.4688	-1.3271	-2.1771	-1.9375	-1.8667	-2.2917	-1.6938	-1.8958	-2.0583	-1.7437	189.750	374.841	391.626	362.279	182.106	267.783	188.920	62.316	159.660	343.460	194.784	297.858	401.413	392.044	218.107	307.223	0.00056742	0.00045848	8.2583e-05	1005.2	2.9201e-06	5.181e-06	1112.1	212.56	7.7769e-06	3.0405e-06	275.02	77.297	59.123	17.546	4.6126e-06	24.914	0.00033511	0.00036693	9.4125e-05	984.83	3.7085e-06	3.9949e-06	1086.9	211.94	3.721e-06	3.9326e-06	272.01	77.827	61.253	18.72	3.5797e-06	25.743	87.056	205.831	239.875	67.004	179.575	213.329	66.852	74.415	164.401	392.627	73.903	80.813	81.185	88.983	107.382	87.860	-8191	255	
6685.833	1	1	0	0	0.49005	0.11423	0.36572	0.18575	0.065245	0.19489	0.26017	0.30408	0.14521	0.21275	0.11155	0.12611	0.26452	0.12224	0.17756	0.11744	-1.5375	-1.9292	-1.5708	-2.2896	-1.7958	-1.7854	-2.275	-1.7021	-2.0042	-2.0771	-1.8021	-2.175	-1.9875	-1.6354	-2.3083	-1.8458	416.129	336.471	227.540	395.188	303.232	298.139	380.343	370.192	300.071	126.233	182.116	339.096	85.916	313.567	81.369	344.406	0.000742	0.00023973	0.0001934	1009.8	6.7256e-06	2.3252e-06	1109.6	212.59	7.1657e-06	3.0102e-06	272.54	77.583	59.756	17.394	2.3739e-06	24.872	0.0003527	0.00035425	9.3094e-05	985.85	3.9678e-06	3.8877e-06	1087.4	212.73	4.0048e-06	3.82e-06	271.02	78.158	61.855	18.577	3.5345e-06	25.869	97.718	79.769	371.581	66.815	248.801	392.857	66.774	74.356	167.886	96.546	73.953	81.085	81.086	88.255	317.854	87.944	-8191	255	
6685.952	1	1	0	0	0.15549	0.25356	0.10733	0.22494	0.3692	0.12521	0.27744	0.10688	0.17921	0.1092	0.12495	0.18711	0.094231	0.26492	0.17362	0.21919	-1.6125	-1.9521	-1.6417	-2.3104	-1.9083	-1.5854	-2.4833	-2.0792	-1.9771	-2.1667	-1.5812	-2.2146	-2.0292	-1.6042	-2.2021	-1.6688	65.891	178.216	63.935	357.656	294.526	286.902	376.378	305.964	370.340	172.913	269.763	256.513	107.378	101.711	382.257	394.114	0.00052858	0.00053226	0.00016978	1002.1	5.5513e-06	3.0349e-06	1113.9	212.84	4.7026e-06	5.6996e-06	272.33	77.774	59.639	17.523	2.9516e-06	24.807	0.00036988	0.00034043	9.0249e-05	985.62	4.0268e-06	3.7048e-06	1086	212.72	3.9918e-06	3.6236e-06	270.75	78.4	61.7	18.517	3.389e-06	26.01	84.408	224.354	157.739	66.734	126.727	173.427	66.968	74.493	215.597	321.617	73.835	80.553	81.271	88.185	225.214	87.677	-8191	255	
#DATA ENDS
