BOXY.EXE: ISS Imagent and Oximeter Data Acquisition Program Version 0.80
Ascii Record File

#ACQ INFORMATION
2  Detector Channels 
16  External MUX Channels 
1  Auxiliary Channels 
5000  Waveform (CCF) Frequency (Hz)
1  Waveforms Skipped 
30  Waveforms Averaged 
1  Cycles Averaged 
16  Acquisitions per Waveform 
10.0806  Updata Rate (Hz) 

#FILE INFORMATION
TRUE -- External MUX Channel results are PARSED.
FALSE -- AC DC and Phase are NOT grouped.
TRUE -- Companion Program Settings File CREATED.
FALSE -- AC data not excluded
FALSE -- DC data not excluded
FALSE -- Phase data not excluded
FALSE -- Auxillary Chn. data not excluded
Tab delimiters

#CALIBRATION STATE
TRUE -- Waveform Calibration Values APPLIED.


#AUX CALIBRATION VALUES
Val Type	aux-1	

Term	1.0000e+00	
Factor	0.0000e+00	


#WF CALIBRATION VALUES
A = Detector Channel
Val Type	A-AC1	A-AC2	A-AC3	A-AC4	A-AC5	A-AC6	A-AC7	A-AC8	A-AC9	A-AC10	A-AC11	A-AC12	A-AC13	A-AC14	A-AC15	A-AC16	A-DC1	A-DC2	A-DC3	A-DC4	A-DC5	A-DC6	A-DC7	A-DC8	A-DC9	A-DC10	A-DC11	A-DC12	A-DC13	A-DC14	A-DC15	A-DC16	A-Ph1	A-Ph2	A-Ph3	A-Ph4	A-Ph5	A-Ph6	A-Ph7	A-Ph8	A-Ph9	A-Ph10	A-Ph11	A-Ph12	A-Ph13	A-Ph14	A-Ph15	A-Ph16	

Term	0.00000e+00	0.00000e+00	0.00000e+00	0.00000e+00	0.00000e+00	0.00000e+00	0.00000e+00	0.00000e+00	0.00000e+00	0.00000e+00	0.00000e+00	0.00000e+00	0.00000e+00	0.00000e+00	0.00000e+00	0.00000e+00	0.00000e+00	0.00000e+00	0.00000e+00	0.00000e+00	0.00000e+00	0.00000e+00	0.00000e+00	0.00000e+00	0.00000e+00	0.00000e+00	0.00000e+00	0.00000e+00	0.00000e+00	0.00000e+00	0.00000e+00	0.00000e+00	0.00000e+00	0.00000e+00	0.00000e+00	0.00000e+00	0.00000e+00	0.00000e+00	0.00000e+00	0.00000e+00	0.00000e+00	0.00000e+00	0.00000e+00	0.00000e+00	0.00000e+00	0.00000e+00	0.00000e+00	0.00000e+00	
Factor	1.00000e+00	1.00000e+00	1.00000e+00	1.00000e+00	1.00000e+00	1.00000e+00	1.00000e+00	1.00000e+00	1.00000e+00	1.00000e+00	1.00000e+00	1.00000e+00	1.00000e+00	1.00000e+00	1.00000e+00	1.00000e+00	1.00000e+00	1.00000e+00	1.00000e+00	1.00000e+00	1.00000e+00	1.00000e+00	1.00000e+00	1.00000e+00	1.00000e+00	1.00000e+00	1.00000e+00	1.00000e+00	1.00000e+00	1.00000e+00	1.00000e+00	1.00000e+00	X	X	X	X	X	X	X	X	X	X	X	X	X	X	X	X	

B = Detector Channel
Val Type	B-AC1	B-AC2	B-AC3	B-AC4	B-AC5	B-AC6	B-AC7	B-AC8	B-AC9	B-AC10	B-AC11	B-AC12	B-AC13	B-AC14	B-AC15	B-AC16	B-DC1	B-DC2	B-DC3	B-DC4	B-DC5	B-DC6	B-DC7	B-DC8	B-DC9	B-DC10	B-DC11	B-DC12	B-DC13	B-DC14	B-DC15	B-DC16	B-Ph1	B-Ph2	B-Ph3	B-Ph4	B-Ph5	B-Ph6	B-Ph7	B-Ph8	B-Ph9	B-Ph10	B-Ph11	B-Ph12	B-Ph13	B-Ph14	B-Ph15	B-Ph16	

Term	0.00000e+00	0.00000e+00	0.00000e+00	0.00000e+00	0.00000e+00	0.00000e+00	0.00000e+00	0.00000e+00	0.00000e+00	0.00000e+00	0.00000e+00	0.00000e+00	0.00000e+00	0.00000e+00	0.00000e+00	0.00000e+00	0.00000e+00	0.00000e+00	0.00000e+00	0.00000e+00	0.00000e+00	0.00000e+00	0.00000e+00	0.00000e+00	0.00000e+00	0.00000e+00	0.00000e+00	0.00000e+00	0.00000e+00	0.00000e+00	0.00000e+00	0.00000e+00	-4.82867e+01	-1.31521e+02	-1.29090e+02	-1.82778e+02	-5.00932e+01	-6.85385e+01	-1.59964e+02	-1.62015e+02	-3.45550e+01	-6.98819e+01	-1.78192e+02	-1.73211e+02	-1.80356e+02	-1.77624e+02	-4.73150e+01	-1.50550e+02	
Factor	2.03344e-05	1.89891e-04	5.74514e-05	1.58307e-01	1.90108e-06	2.09202e-06	1.94733e-01	5.79786e-02	1.52646e-06	2.11415e-06	3.21294e-01	3.10011e-02	3.06678e-02	9.11195e-03	1.92150e-06	1.28799e-02	1.37867e-05	2.61164e-05	7.30315e-06	8.26885e-02	2.52523e-07	2.92360e-07	9.52919e-02	3.04267e-02	2.52502e-07	2.89608e-07	1.62620e-01	1.57850e-02	1.63068e-02	4.82875e-03	2.67683e-07	6.59689e-03	X	X	X	X	X	X	X	X	X	X	X	X	X	X	X	X	



#DISTANCE SETTINGS
A = Detector Channel
A-1	A-2	A-3	A-4	A-5	A-6	A-7	A-8	A-9	A-10	A-11	A-12	A-13	A-14	A-15	A-16	

2.5000e+00	3.0000e+00	2.5000e+00	3.0000e+00	2.0000e+00	3.0000e+00	1.5000e+00	3.0000e+00	3.0000e+00	3.0000e+00	3.0000e+00	3.0000e+00	3.0000e+00	3.0000e+00	1.5000e+00	3.0000e+00	

B = Detector Channel
B-1	B-2	B-3	B-4	B-5	B-6	B-7	B-8	B-9	B-10	B-11	B-12	B-13	B-14	B-15	B-16	

1.0000e+01	1.0000e+01	1.0000e+01	1.4400e+00	1.0000e+01	1.0000e+01	1.5100e+00	1.9400e+00	1.0000e+01	1.0000e+01	1.9900e+00	2.4900e+00	2.4100e+00	2.9000e+00	1.0000e+01	2.9800e+00	




#DATA BEGINS
time	group	step	mark	flag	A-AC1	A-AC2	A-AC3	A-AC4	A-AC5	A-AC6	A-AC7	A-AC8	A-AC9	A-AC10	A-AC11	A-AC12	A-AC13	A-AC14	A-AC15	A-AC16	A-DC1	A-DC2	A-DC3	A-DC4	A-DC5	A-DC6	A-DC7	A-DC8	A-DC9	A-DC10	A-DC11	A-DC12	A-DC13	A-DC14	A-DC15	A-DC16	A-Ph1	A-Ph2	A-Ph3	A-Ph4	A-Ph5	A-Ph6	A-Ph7	A-Ph8	A-Ph9	A-Ph10	A-Ph11	A-Ph12	A-Ph13	A-Ph14	A-Ph15	A-Ph16	B-AC1	B-AC2	B-AC3	B-AC4	B-AC5	B-AC6	B-AC7	B-AC8	B-AC9	B-AC10	B-AC11	B-AC12	B-AC13	B-AC14	B-AC15	B-AC16	B-DC1	B-DC2	B-DC3	B-DC4	B-DC5	B-DC6	B-DC7	B-DC8	B-DC9	B-DC10	B-DC11	B-DC12	B-DC13	B-DC14	B-DC15	B-DC16	B-Ph1	B-Ph2	B-Ph3	B-Ph4	B-Ph5	B-Ph6	B-Ph7	B-Ph8	B-Ph9	B-Ph10	B-Ph11	B-Ph12	B-Ph13	B-Ph14	B-Ph15	B-Ph16	aux-1	digaux	

1200.981	1	1	0	256	0.096117	0.30239	0.047769	0.44224	0.15854	0.061729	0.13142	0.15064	0.23202	0.15328	0.22926	0.28419	0.041956	0.13357	0.45514	0.21474	-2.1063	-1.7021	-2.4396	-2.4562	-1.9083	-2.7	-2.0354	-2.1063	-2.6125	-1.8375	-2.3979	-2.2646	-1.8125	-2.5187	-1.9583	-1.9875	233.977	427.555	238.597	407.647	149.390	177.980	86.917	82.639	308.625	244.306	397.385	367.686	178.851	104.045	272.498	383.934	0.00016113	0.00071202	0.00053523	451.96	1.4677e-05	3.6173e-05	481.35	152.49	5.0031e-06	4.0672e-05	167.96	50.849	46.09	17.313	7.6098e-06	21.147	0.072866	0.135	0.037552	884.56	0.0013056	0.0014831	962.49	309.38	0.0012897	0.0014519	990.87	132.84	130.06	42.337	0.001386	56.035	315.842	380.940	378.662	91.346	234.764	391.623	90.901	98.037	316.584	293.784	95.735	100.342	103.440	108.220	232.890	104.668	-8191	255	
1201.077	1	1	0	0	0.19966	0.10425	0.060736	0.21174	0.20664	0.060569	0.11563	0.043658	0.11446	0.116	0.20507	0.10083	0.13986	0.12527	0.067592	0.17999	-2.2396	-1.7563	-2.2021	-2.3729	-1.7479	-2.4792	-2.2188	-1.9604	-2.6729	-1.7583	-2.1375	-2.3542	-1.7292	-2.6292	-2.2542	-1.9104	183.743	109.114	109.253	362.671	170.544	323.734	396.470	410.614	344.673	279.157	270.298	286.538	380.160	285.118	327.306	175.845	9.3616e-05	0.001155	0.0014189	444.74	1.927e-05	3.0031e-05	468.86	148.97	2.4498e-05	3.6589e-05	160.17	49.909	44.787	17.145	2.1729e-05	20.589	0.072215	0.13463	0.038306	889.13	0.0013301	0.001529	980.31	315.86	0.0013569	0.0015526	1054.5	138.37	136.03	44.541	0.001538	59.306	290.789	258.758	198.175	91.191	427.891	324.435	90.686	96.889	79.607	230.611	95.167	99.867	103.757	108.080	182.055	104.548	-8191	255	
1201.173	1	1	0	0	0.051886	0.22634	0.172	0.37059	0.090378	0.076628	0.12177	0.15532	0.16095	0.2327	0.1333	0.16433	0.22056	0.13248	0.07992	0.12522	-2.3688	-1.7375	-2.0979	-2.6896	-1.8021	-2.5	-2.3292	-2.0125	-2.6708	-1.9667	-2.1854	-2.5771	-1.8542	-2.4875	-2.2917	-1.7792	131.544	368.636	399.672	399.208	100.211	176.908	429.105	380.841	415.581	93.091	418.638	399.206	355.160	357.855	369.827	406.457	0.00042561	0.003807	0.00085289	444.39	2.468e-05	2.9761e-05	468.04	149.32	8.8909e-06	2.2523e-05	155.12	48.864	44.777	16.966	2.6329e-05	20.363	0.080549	0.15329	0.044429	956.45	0.0015498	0.001824	1078.7	346.2	0.0016127	0.0018789	1237.5	154.72	152	49.341	0.001797	64.909	330.314	120.677	171.036	91.423	93.857	329.937	90.236	97.447	240.227	176.772	93.649	99.848	103.246	107.826	210.439	103.750	-8191	255	
1201.270	1	1	0	0	0.099194	0.16799	0.23878	0.16487	0.065823	0.30656	0.1481	0.21307	0.20839	0.1144	0.26313	0.16491	0.12747	0.11782	0.11068	0.20515	-2.0771	-2.0646	-1.8708	-2.7979	-1.5625	-2.2875	-2.4104	-1.7833	-2.3333	-2.0438	-1.875	-2.6479	-2.0208	-2.1354	-2.5479	-1.6979	375.486	415.709	141.914	124.675	384.618	148.541	102.385	435.206	184.728	399.059	147.145	227.255	249.531	257.117	194.830	244.927	0.00031078	0.0011882	0.00062801	442.96	1.6158e-05	2.4491e-05	462.28	150.46	1.7756e-05	1.8341e-05	157.38	49.867	45.275	17.305	2.9076e-05	20.663	0.091125	0.17429	0.049666	1007.8	0.0016935	0.0020035	1132.9	362.56	0.0017383	0.0020351	1320.8	163.02	161.38	52.65	0.0019595	69.212	197.816	161.904	198.426	91.140	288.515	194.995	90.050	96.758	277.208	214.670	95.220	99.857	102.850	107.983	96.702	103.437	-8191	255	
1201.366	1	1	0	0	0.1089	0.27046	0.13857	0.11613	0.11918	0.042577	0.16857	0.17797	0.070177	0.098694	0.098335	0.19196	0.20526	0.36183	0.077877	0.14025	-2.2125	-2.1104	-1.7938	-2.6625	-1.9729	-2.2125	-2.6042	-1.9125	-2.55	-2.2438	-2.0375	-2.5083	-1.8708	-2.0167	-2.6042	-1.8937	265.473	138.981	415.893	133.691	388.335	336.170	271.949	389.129	84.562	94.846	81.273	426.611	304.884	307.731	388.168	149.238	0.0002112	0.00089616	0.00062391	447.84	4.8088e-05	1.7726e-05	462.07	150.77	1.5716e-05	1.0755e-05	152.03	49.719	45.405	17.116	2.0238e-05	20.359	0.10032	0.19404	0.054824	1067.1	0.0018872	0.0022435	1206.8	386.45	0.0019593	0.0023053	1461.4	175.59	176.34	57.015	0.0021831	73.693	279.794	380.070	157.595	91.414	234.911	434.789	89.785	97.042	337.841	189.341	94.320	99.052	103.048	108.147	108.776	102.801	-8191	255	
1201.462	1	1	0	0	0.13118	0.088451	0.35574	0.23893	0.11835	0.22863	0.19165	0.063858	0.042401	0.064817	0.16463	0.07444	0.2078	0.070856	0.24279	0.23421	-2.1646	-2.1208	-1.8333	-2.6292	-1.8979	-1.9958	-2.7562	-1.8563	-2.3875	-2.4333	-1.7083	-2.8333	-2.0312	-2.1167	-2.5542	-1.9875	334.816	266.809	174.387	421.893	118.254	429.567	374.982	375.338	250.088	434.180	434.897	105.506	363.182	264.814	304.872	365.539	0.00053182	0.0036733	0.00052692	443.45	1.4417e-05	4.097e-05	458.64	149.75	1.6537e-05	2.7019e-05	160.31	49.91	44.903	17.168	2.1989e-05	20.65	0.111	0.21187	0.058761	1099.5	0.0019921	0.0023226	1208.8	385.4	0.0019488	0.0022468	1406.6	169.6	170.48	54.854	0.0020336	70.594	203.009	111.345	410.210	91.144	165.974	120.109	90.140	97.186	422.144	304.622	94.882	98.912	103.380	107.946	203.560	103.891	-8191	255	
1201.558	1	1	0	0	0.22114	0.27325	0.18076	0.076491	0.18345	0.076591	0.23623	0.15959	0.24413	0.017574	0.41289	0.37475	0.30699	0.17305	0.29026	0.11655	-2	-2.4917	-1.7771	-2.7333	-2.0521	-1.8104	-2.5896	-1.9312	-2.2458	-2.4729	-1.7354	-2.6042	-2.1875	-1.8188	-2.5896	-1.7604	157.904	230.616	269.200	113.725	336.039	227.843	338.431	384.078	221.853	326.420	128.718	437.530	408.057	387.572	436.228	434.048	0.00034818	0.003495	0.00021474	443.69	8.6952e-06	9.0257e-06	461.68	149.85	1.9248e-05	1.7623e-05	155	49.294	45.377	16.872	1.0414e-05	20.318	0.10545	0.20069	0.055532	1070.1	0.0019309	0.002246	1185.1	379.94	0.0019279	0.0022109	1374.5	167.66	168.72	53.846	0.0019779	69.541	223.399	430.737	417.073	91.478	302.786	425.972	90.508	97.109	351.623	354.592	95.203	100.307	103.151	107.680	287.407	103.667	-8191	255	
1201.654	1	1	0	0	0.13166	0.34261	0.084498	0.086884	0.045931	0.38262	0.35468	0.10079	0.19014	0.25411	0.024331	0.27315	0.20537	0.16526	0.22426	0.28175	-1.7021	-2.4458	-1.7854	-2.5542	-2.1896	-1.9937	-2.6104	-1.8479	-2.1208	-2.6312	-1.7313	-2.3375	-2.3396	-1.8146	-2.6688	-2.0417	84.807	379.601	285.424	380.896	178.611	297.975	360.462	416.143	126.672	383.895	199.487	79.860	150.891	180.936	420.214	390.725	0.00036746	0.0044235	0.0017264	440.39	1.4983e-05	5.0403e-06	457.58	149.41	3.3561e-05	3.1961e-05	158.45	48.821	44.884	16.604	3.4886e-05	20.128	0.1038	0.19602	0.053905	1060	0.0018921	0.0021847	1165.4	373.93	0.001873	0.0021244	1325.2	163.32	163.01	51.605	0.0018729	66.816	197.193	328.401	366.883	92.111	268.460	212.769	90.313	97.759	285.959	404.222	97.191	99.603	103.517	108.557	155.333	103.888	-8191	255	
1201.773	1	1	0	0	0.28592	0.20093	0.16247	0.06705	0.15413	0.063691	0.17348	0.078852	0.08146	0.24802	0.040591	0.14222	0.072067	0.29075	0.11606	0.22849	-1.7104	-2.6	-1.6354	-2.4979	-2.4	-1.95	-2.6104	-2.1333	-1.8917	-2.7167	-1.9729	-2.3354	-2.4313	-1.7271	-2.4667	-2.1229	252.161	172.956	249.623	164.363	247.437	405.839	86.692	90.478	100.376	179.650	266.097	240.428	246.126	131.988	171.521	354.182	0.00062825	0.0028328	0.00068478	440.49	8.3016e-06	5.6751e-05	460.6	146.24	2.9135e-05	6.3622e-05	154.3	47.954	43.75	16.543	3.0329e-05	19.41	0.097329	0.18112	0.049797	1013.9	0.0017469	0.0019985	1109.9	357.86	0.001756	0.0019937	1271.6	158.94	158.99	50.643	0.0018605	66.42	249.852	343.352	182.657	91.605	334.683	126.513	90.851	97.900	106.948	299.652	91.982	99.968	103.217	108.155	192.517	103.292	-8191	255	
1201.869	1	1	0	0	0.11461	0.10204	0.15972	0.12294	0.18171	0.19062	0.21219	0.27736	0.10602	0.33315	0.21393	0.12358	0.21558	0.054325	0.070747	0.27639	-1.7979	-2.6604	-1.9188	-2.3167	-2.4583	-1.8188	-2.5646	-2.3271	-1.8021	-2.4667	-1.8542	-2.4062	-2.6604	-1.7	-2.4562	-2.3	431.386	353.041	197.142	154.324	318.463	332.421	250.476	85.452	197.782	396.975	413.859	314.233	402.224	248.385	359.602	302.857	0.00054254	0.0058161	0.00083976	432	4.8933e-06	2.8744e-05	456.7	144.81	1.467e-05	1.4794e-05	157.11	47.462	43.704	16.408	1.6815e-05	19.322	0.097848	0.18262	0.050854	1025.9	0.0017848	0.0020408	1125.3	363.43	0.0017915	0.0020266	1297.3	160.53	160.19	50.78	0.0018897	66.801	226.337	109.499	142.525	91.239	393.734	309.384	90.652	97.857	283.712	264.209	94.069	100.383	103.250	108.192	184.772	104.678	-8191	255	
1201.941	1	1	0	0	0.21278	0.24974	0.11417	0.091721	0.12647	0.090986	0.15716	0.1117	0.12635	0.18915	0.36122	0.23831	0.14712	0.19139	0.21935	0.087246	-1.5042	-2.4792	-1.9083	-2.1542	-2.4833	-1.75	-2.4979	-2.1708	-1.9104	-2.5771	-1.9271	-2.1437	-2.5625	-1.8625	-2.1979	-2.1729	397.016	240.451	308.469	102.754	236.373	385.527	244.895	95.438	183.338	161.982	331.179	418.014	407.875	80.522	87.139	81.526	0.00029363	0.003424	0.00065	436.22	2.7598e-06	4.0828e-05	460.39	145.43	3.3178e-05	9.071e-06	151.82	47.519	43.311	16.536	3.7006e-05	19.962	0.097536	0.18243	0.05146	1026.5	0.0017737	0.0020356	1130.2	360.76	0.0017614	0.0020001	1290.5	158.84	156.99	50.064	0.0018563	66.156	193.149	170.502	121.117	91.784	416.093	340.251	90.644	97.372	354.958	334.187	95.017	99.235	102.641	108.887	390.266	103.396	-8191	255	
1202.061	1	1	0	0	0.1947	0.13094	0.23123	0.18178	0.19375	0.091691	0.029901	0.097936	0.2371	0.21166	0.14649	0.18613	0.39585	0.27558	0.10169	0.16146	-1.4521	-2.5542	-1.875	-1.9979	-2.5708	-1.7396	-2.1896	-2.625	-1.7167	-2.6354	-2.2562	-1.9354	-2.6646	-1.8646	-2.4	-2.6333	376.701	352.934	317.564	391.445	387.128	400.996	269.197	295.173	410.387	405.499	327.974	360.217	248.280	99.851	404.446	424.542	0.00051184	0.0026402	0.00084901	433.75	5.0321e-05	2.0301e-05	455.73	143.94	3.4712e-05	6.0849e-05	160.02	46.91	43.791	16.423	1.8905e-05	19.37	0.094377	0.17817	0.050384	1008.1	0.0017186	0.0019882	1115.5	356.25	0.0017067	0.001967	1269.2	155.48	152.98	49.225	0.001799	63.77	205.930	84.908	414.730	91.656	298.555	225.676	90.582	97.580	328.134	247.454	94.298	99.353	102.832	108.130	176.888	103.812	-8191	255	
1202.158	1	1	0	0	0.35903	0.25167	0.17047	0.14656	0.063487	0.21932	0.069549	0.23947	0.10482	0.12977	0.18561	0.068745	0.19907	0.23021	0.31043	0.022648	-1.3771	-2.3646	-2.3125	-1.925	-2.5333	-1.8521	-2.2125	-2.3583	-1.9542	-2.6312	-2.2812	-1.9021	-2.6063	-2.0625	-2.125	-2.6396	316.059	439.421	378.771	423.221	300.329	324.995	189.709	382.322	266.977	306.877	337.528	128.101	411.845	329.964	435.799	436.361	0.00020841	0.0011319	0.0015436	427.26	2.0987e-05	2.1697e-05	449.97	142.78	1.2073e-05	4.9376e-05	148.61	47.322	42.95	16.548	2.0352e-05	19.582	0.090049	0.17148	0.0481	973.41	0.0016288	0.0018991	1076.4	342.63	0.0016218	0.001887	1215.7	149.79	148.54	48.318	0.0017481	62.597	259.247	289.144	224.637	91.402	238.728	314.110	90.971	97.768	436.452	259.672	93.753	100.687	103.978	108.388	87.487	104.434	-8191	255	
1202.254	1	1	0	0	0.11194	0.18359	0.15371	0.049861	0.15981	0.18515	0.095035	0.10425	0.23077	0.087206	0.21023	0.23557	0.20313	0.21239	0.12394	0.023598	-1.5604	-2.4813	-2.5229	-1.8542	-2.6688	-1.8813	-2.0104	-2.7917	-1.9625	-2.3875	-2.5104	-1.7458	-2.4604	-2.1604	-1.9979	-2.6229	258.141	401.009	366.546	360.481	119.082	341.813	373.250	384.361	242.808	97.548	284.744	101.114	397.283	189.239	407.246	120.807	0.00044187	0.0015806	0.0011181	424.31	1.909e-05	1.5021e-05	449.99	143.18	1.895e-05	1.9198e-05	151.31	47.286	42.547	16.346	1.9903e-05	19.664	0.088614	0.16991	0.04756	962.17	0.0016224	0.0019054	1074.3	340.6	0.0016296	0.0018998	1215.7	149.21	148.81	48.371	0.0017466	62.191	249.458	136.163	428.147	91.381	246.154	148.509	90.622	97.561	308.368	254.584	96.735	101.518	103.716	107.630	338.986	104.200	-8191	255	
1202.350	1	1	0	0	0.17357	0.13422	0.26202	0.15331	0.12523	0.215	0.17169	0.073269	0.30626	0.040866	0.081221	0.086398	0.26144	0.16217	0.15183	0.1326	-1.3667	-2.3417	-2.4833	-1.8021	-2.7292	-2.1146	-1.9583	-2.7417	-1.9146	-2.1417	-2.5812	-1.7563	-2.4625	-2.3438	-1.7188	-2.6208	425.815	193.158	291.006	296.143	86.217	247.699	227.909	418.098	113.898	352.270	406.302	348.924	427.290	387.424	108.425	383.746	0.00031312	0.0025961	0.00079905	429.11	1.6545e-05	5.0672e-05	448.8	141.65	1.5258e-05	1.1715e-05	146.69	46.182	42.313	16.167	1.1705e-05	19.311	0.088706	0.16974	0.04728	956.05	0.0016154	0.0018925	1064.1	336.04	0.0016066	0.0018752	1191.8	146.56	147.47	47.56	0.0017004	61.05	191.016	153.624	219.270	91.163	178.424	279.900	90.555	97.640	345.707	130.054	96.729	100.057	103.586	108.330	305.054	103.851	-8191	255	
1202.471	1	1	0	0	0.27265	0.083285	0.13666	0.13885	0.19553	0.13925	0.056369	0.18287	0.17514	0.15823	0.065257	0.17823	0.080091	0.16399	0.0090741	0.13651	-1.5312	-2.1729	-2.4354	-1.8146	-2.7333	-2.2229	-1.8333	-2.6458	-2.0438	-2.0771	-2.6667	-1.9125	-2.2938	-2.2646	-1.75	-2.5917	221.874	143.594	149.943	329.863	393.553	327.926	158.665	342.458	245.407	174.861	279.802	281.573	191.354	127.684	360.532	433.430	0.00039242	0.0055465	0.00031045	426.07	2.8269e-05	4.4984e-05	445.66	140.24	2.5455e-05	2.1283e-05	140.91	45.71	41.285	15.938	2.389e-06	18.845	0.087983	0.16688	0.046157	949.71	0.0016063	0.0018636	1049.1	333.02	0.0015945	0.0018351	1164.9	144.16	145.26	46.815	0.001654	60.077	260.276	137.326	249.510	91.591	89.230	353.101	90.530	98.111	338.241	94.308	97.592	99.991	104.166	108.067	304.388	104.155	-8191	255	
1202.542	1	1	0	0	0.15523	0.088057	0.15033	0.31246	0.10404	0.10322	0.16246	0.22529	0.25683	0.16939	0.063969	0.15427	0.16535	0.036248	0.182	0.13219	-1.5271	-1.9833	-2.5417	-1.7958	-2.3833	-2.3667	-1.8979	-2.7438	-1.9854	-2.0312	-2.7042	-1.8646	-2.3917	-2.8208	-2.0104	-2.5667	214.366	220.048	299.998	126.316	229.724	325.075	302.487	261.477	303.042	102.147	350.870	415.621	319.052	123.801	85.446	251.757	0.00010022	0.0018297	0.00097829	422.87	2.6452e-05	8.2118e-06	438.13	140.5	6.4089e-06	2.3875e-05	140.82	45.103	40.954	16.05	2.0555e-05	19.045	0.086071	0.16302	0.044692	931.36	0.0015603	0.0017924	1015	326.25	0.0015346	0.0017465	1114.7	140.5	141.01	45.452	0.0015806	58.756	295.145	85.604	320.684	91.760	188.584	339.580	90.409	97.854	266.691	252.680	96.957	99.729	103.310	108.180	328.849	104.215	-8191	255	
1202.663	1	1	0	0	0.30817	0.061357	0.24676	0.23842	0.22449	0.10797	0.10162	0.26528	0.16856	0.21296	0.29201	0.10791	0.28587	0.28127	0.063229	0.30355	-1.7104	-2.0271	-2.6854	-1.9625	-2.1667	-2.4625	-1.9104	-2.375	-2.1958	-1.6458	-2.4083	-1.7958	-2.2833	-2.5312	-1.8875	-2.5833	381.612	325.117	340.425	283.055	256.302	98.181	95.421	380.083	97.009	112.465	427.503	256.451	83.121	204.830	359.086	432.266	0.00015834	0.0014961	0.00054255	421.32	1.592e-05	1.7285e-05	443.75	139.49	1.7753e-05	3.7617e-05	149.69	46.239	41.392	16.163	2.7536e-05	19.191	0.082901	0.15561	0.043057	915.17	0.0015091	0.001729	1003.5	322.1	0.0014974	0.0016918	1097.9	139.3	138.92	44.698	0.0015557	58.481	231.274	368.326	229.103	92.391	213.752	359.026	91.182	97.559	349.105	394.289	93.518	100.353	103.560	107.943	430.333	104.104	-8191	255	
1202.757	1	1	0	0	0.15295	0.086482	0.20395	0.30509	0.16348	0.14975	0.33569	0.26571	0.15641	0.27883	0.13357	0.1882	0.082423	0.12747	0.04072	0.15482	-1.9646	-1.9312	-2.525	-2.0583	-1.8062	-2.6104	-1.8125	-2.4938	-2.1396	-1.9875	-2.6146	-1.8792	-2.0833	-2.5375	-1.9625	-2.4229	368.297	217.324	283.610	88.548	110.812	82.413	424.198	366.378	358.790	142.701	179.765	303.564	175.445	149.508	291.061	123.482	8.7255e-05	0.0057662	0.0013691	420.06	2.2032e-05	4.2986e-05	449.79	140.52	2.4647e-05	9.395e-06	152.36	45.279	41.533	16.266	6.6839e-06	19.392	0.081455	0.15262	0.042749	914.32	0.0014983	0.0017151	1007.2	322.67	0.0014849	0.0016868	1098.9	139.63	137.6	44.343	0.0015435	58.02	267.114	138.582	159.497	91.242	289.185	334.383	90.742	98.309	325.861	136.398	95.878	100.627	103.127	108.732	196.889	104.466	-8191	255	
1202.853	1	1	0	0	0.3361	0.059746	0.098047	0.27641	0.21154	0.058133	0.071758	0.33595	0.34552	0.28656	0.11281	0.25495	0.14411	0.10644	0.04238	0.13119	-2.2208	-1.65	-2.45	-1.9896	-1.9604	-2.5979	-1.8854	-2.4833	-2.3396	-1.8646	-2.6417	-1.9958	-1.9937	-2.7104	-1.9188	-2.3542	185.327	393.545	317.530	350.517	188.533	270.757	124.167	358.417	81.437	214.382	84.661	310.258	215.777	274.001	430.277	229.251	6.7029e-05	0.0034387	0.00026816	421.01	1.416e-05	2.5062e-05	445.71	139.59	9.6689e-06	4.5909e-05	151.86	46.487	42.043	16.5	2.7695e-05	19.447	0.079552	0.14859	0.041925	896.54	0.0014432	0.0016549	988.3	316.76	0.0014371	0.0016414	1080.7	137.4	135.66	44.127	0.0015309	57.546	196.455	406.927	284.148	92.236	103.604	119.563	90.621	97.467	211.775	210.325	94.445	99.877	102.801	108.092	202.575	104.376	-8191	255	
1202.950	1	1	0	0	0.093636	0.093043	0.1211	0.059885	0.14717	0.11202	0.11177	0.28737	0.085842	0.31266	0.21743	0.38636	0.33534	0.074197	0.30766	0.11016	-2.0479	-1.7417	-2.4354	-2.1896	-1.9104	-2.5792	-2.0625	-2.2938	-2.4875	-1.9042	-2.5229	-2.4042	-1.7792	-2.5667	-1.675	-2.025	120.911	252.154	142.062	377.226	221.684	177.948	375.601	272.618	317.989	196.787	203.210	93.518	315.232	347.766	153.293	388.415	8.7119e-05	0.0012504	0.0004868	415.08	5.8306e-06	1.2483e-05	442.74	139.81	7.4252e-06	1.2715e-05	154.92	46.751	42.72	16.67	1.5069e-05	19.766	0.078185	0.14741	0.041813	891.24	0.0014238	0.001644	984.87	314.55	0.0014141	0.0016267	1075.2	136.59	134.76	44.09	0.0015233	57.383	128.416	401.843	150.401	91.684	152.117	234.876	90.883	97.998	163.627	287.242	94.031	100.227	103.549	107.710	100.427	104.345	-8191	255	
1203.070	1	1	0	0	0.14835	0.21866	0.31082	0.14744	0.22179	0.085147	0.32466	0.14719	0.10408	0.11624	0.10807	0.098964	0.079915	0.39758	0.29027	0.10544	-2.0563	-1.75	-2.2771	-2.3063	-1.8875	-2.8083	-2.0792	-2.0438	-2.7604	-1.7062	-2.2354	-2.3125	-1.8354	-2.525	-1.9208	-1.9958	207.922	367.151	354.496	320.760	188.143	282.583	181.824	325.094	162.611	280.587	185.112	302.746	309.337	141.773	219.178	359.571	0.0002074	0.0039602	0.00025723	410.37	2.7642e-05	4.0213e-05	443.64	140.45	4.278e-06	1.7378e-05	152.97	48.092	43.674	17.06	7.3364e-06	20.201	0.07723	0.14687	0.041583	882.27	0.0014094	0.0016461	985.65	314.89	0.0014083	0.0016283	1072.8	137.44	134.62	44.439	0.0015012	57.212	301.576	98.910	212.218	91.733	255.224	189.629	90.750	98.156	222.320	159.783	93.534	100.424	102.578	108.994	200.896	104.101	-8191	255	
1203.166	1	1	0	0	0.25467	0.098577	0.044235	0.19994	0.15411	0.13453	0.3951	0.21229	0.2767	0.30661	0.16211	0.26493	0.30481	0.076092	0.18728	0.071851	-2.1104	-1.5979	-2.1479	-2.475	-1.8	-2.4854	-1.9521	-1.9583	-2.4938	-1.9146	-2.3229	-2.6333	-1.8563	-2.6667	-2.1229	-1.8771	211.193	178.670	214.732	232.009	287.289	102.295	352.216	295.085	276.049	223.512	239.111	391.673	426.741	351.072	152.730	145.113	0.00016449	0.0014255	0.00011998	412.39	2.9505e-05	3.7557e-05	448.31	141.65	7.3011e-06	2.0733e-05	150.75	48.059	43.453	16.784	2.2738e-05	19.993	0.075982	0.14469	0.040554	868.38	0.0013726	0.0016148	972.38	309.35	0.0013716	0.0015991	1054.5	135.15	133.32	43.959	0.0014719	56.328	286.779	419.273	119.482	91.903	396.042	206.544	90.871	97.805	153.396	271.368	94.450	100.594	102.966	108.689	163.660	104.643	-8191	255	
1203.238	1	1	0	0	0.28058	0.10206	0.25834	0.13014	0.23139	0.031826	0.25332	0.13583	0.10509	0.23058	0.16611	0.24058	0.12886	0.18717	0.078614	0.35426	-2.2771	-1.8604	-2.2104	-2.5062	-1.7708	-2.3479	-2.2854	-2.0542	-2.5333	-2.0146	-2.1333	-2.4917	-1.8312	-2.4229	-2.3271	-1.8479	199.793	297.719	381.344	243.013	96.353	216.757	330.647	245.398	357.292	253.859	271.943	214.352	376.206	98.823	246.294	350.152	0.00046243	0.0021042	0.00035884	409.58	5.4027e-05	3.8608e-05	438.27	140.73	5.2389e-06	1.5641e-05	144.89	47.472	43.409	16.879	3.0149e-05	20.111	0.07497	0.14283	0.039784	856.88	0.0013545	0.0015846	952.53	303.48	0.0013444	0.0015558	1018.2	131.55	130.59	43.098	0.0014134	54.957	227.800	174.411	201.405	91.564	252.863	268.217	90.597	98.126	102.896	218.543	94.967	100.228	104.698	108.360	171.521	104.027	-8191	255	
1203.334	1	1	0	0	0.24229	0.32054	0.46651	0.16654	0.050865	0.30134	0.1223	0.19345	0.005654	0.20977	0.23315	0.010888	0.20395	0.18418	0.22825	0.20938	-2.2729	-1.9729	-2.1458	-2.6729	-1.9312	-2.2583	-2.4792	-1.9937	-2.4625	-1.9438	-1.9771	-2.7542	-1.8792	-2.4729	-2.2958	-1.9	436.198	230.357	240.480	437.931	357.405	277.426	285.169	170.757	381.363	134.101	421.595	198.103	234.242	138.373	110.220	130.974	0.0001936	0.0022536	0.0011042	407.12	2.362e-05	1.4937e-05	436.65	140.03	8.8306e-06	1.1916e-05	150.01	49.275	43.856	17.077	2.5533e-05	20.798	0.073106	0.13854	0.038419	843.11	0.0013391	0.0015564	939.78	302.5	0.0013398	0.0015343	1007.7	132.11	130.84	43.2	0.0014035	55.559	242.992	379.645	319.853	92.497	331.897	314.483	91.363	98.517	247.981	257.611	96.938	100.385	104.050	108.918	400.385	104.481	-8191	255	
1203.455	1	1	0	0	0.093759	0.069178	0.18219	0.071275	0.30238	0.24687	0.20271	0.14154	0.087204	0.294	0.1604	0.15036	0.06904	0.16089	0.14303	0.16942	-2.1479	-2.1646	-1.7729	-2.6583	-1.8542	-2.2708	-2.5333	-2.1458	-2.45	-2.1229	-1.9625	-2.5375	-1.8479	-2.0333	-2.7083	-1.8729	406.466	144.231	288.116	304.274	128.977	126.941	80.995	254.232	404.110	434.080	225.791	257.885	120.381	320.784	126.009	436.469	0.00043523	0.0018785	0.00038663	406.87	2.2916e-05	2.7804e-05	439.72	141.64	8.338e-06	9.0726e-06	149.11	48.329	43.108	16.715	1.6226e-05	20.552	0.073559	0.13912	0.03836	850.29	0.0013494	0.0015647	946.61	304.55	0.0013534	0.0015523	1008.7	133.21	131.37	42.937	0.0014024	55.592	246.454	111.306	216.026	93.009	318.777	150.275	91.502	98.019	248.819	153.071	96.972	101.289	104.002	108.549	344.911	104.867	-8191	255	
1203.551	1	1	0	0	0.23533	0.21186	0.13596	0.20663	0.18333	0.11943	0.096041	0.17271	0.24228	0.052529	0.020442	0.0076361	0.11293	0.19089	0.19942	0.06739	-2.1979	-2.2667	-1.6875	-2.7062	-1.9292	-2.1125	-2.6292	-1.95	-2.4458	-2.3542	-1.9083	-2.6562	-2.1021	-2.0896	-2.6167	-2.0042	102.886	336.733	330.777	171.184	386.684	297.311	160.256	436.409	336.122	400.094	168.171	278.571	380.597	269.163	226.911	380.927	0.00052179	0.001488	0.0010386	409.09	1.8038e-05	2.8515e-05	444.54	140.61	1.6483e-05	1.7397e-05	152.38	48.009	43.746	16.622	1.5167e-05	20.109	0.073792	0.13823	0.038231	852.55	0.0013508	0.001554	944.9	305.16	0.0013634	0.0015489	1016.9	133.84	132.08	42.955	0.0014281	55.869	301.371	180.401	102.483	92.023	300.072	431.664	91.219	98.445	174.283	152.059	95.240	100.485	104.054	108.699	232.274	104.668	-8191	255	
1203.645	1	1	0	0	0.047449	0.19703	0.13849	0.2532	0.19686	0.063664	0.11494	0.33394	0.13118	0.16098	0.027714	0.22691	0.25585	0.045959	0.1612	0.2102	-1.8687	-2.2708	-1.8167	-2.5896	-1.9438	-1.8333	-2.7958	-1.825	-2.3187	-2.4958	-1.8021	-2.7062	-2.1271	-1.6917	-2.5687	-1.8813	329.389	178.835	395.029	297.661	222.191	156.456	370.474	363.320	118.122	113.636	367.020	88.521	186.983	418.938	356.543	367.330	8.2225e-05	0.0032176	0.0020066	410.42	4.9564e-05	1.4126e-05	434.94	139.2	1.1504e-05	1.0063e-05	144.51	47.287	42.307	16.826	9.7827e-06	20.016	0.074656	0.13899	0.038802	859.79	0.0013562	0.0015464	941.76	304.87	0.0013503	0.0015324	1014.4	132.5	130.86	42.726	0.0014294	56.026	190.754	405.723	259.769	92.431	331.645	186.224	90.850	97.969	363.572	234.704	95.250	100.969	104.041	108.924	233.326	104.280	-8191	255	
1203.743	1	1	0	0	0.085407	0.22318	0.14801	0.13198	0.14761	0.11641	0.21281	0.062208	0.14077	0.08471	0.17416	0.08201	0.10328	0.16337	0.17584	0.16528	-1.7771	-2.3917	-1.7771	-2.4688	-2.1979	-1.8687	-2.5417	-2.0979	-2.0479	-2.6188	-1.7958	-2.3688	-2.3396	-1.8563	-2.7292	-1.9208	182.381	389.114	254.501	170.147	412.973	153.583	336.024	285.381	149.524	220.065	295.068	411.231	309.597	330.097	343.696	335.541	0.00018813	0.0016633	0.0010807	413.72	3.2429e-05	3.1787e-06	437.97	141	3.1223e-05	1.7603e-05	152.47	47.785	42.506	17.042	3.5488e-05	20.232	0.074011	0.1385	0.038967	859.81	0.0013428	0.0015415	948.21	304.68	0.0013368	0.0015261	1015.8	132.98	130.19	42.811	0.0014412	56.24	274.426	124.601	200.490	92.198	389.574	380.799	91.134	98.650	430.044	89.875	95.757	100.189	104.239	109.455	251.050	103.807	-8191	255	
1203.838	1	1	0	0	0.24692	0.17974	0.19591	0.13927	0.14425	0.029028	0.21322	0.29352	0.20041	0.19796	0.42817	0.22011	0.092773	0.14845	0.09452	0.13855	-1.3917	-2.6625	-1.8062	-2.3979	-2.4396	-1.8167	-2.6333	-1.9875	-1.9542	-2.5396	-1.8271	-2.5312	-2.3979	-1.575	-2.55	-2.2687	327.839	309.489	231.427	140.696	102.214	290.505	113.907	321.656	295.741	261.164	297.668	109.458	205.790	348.100	345.862	254.085	0.000478	0.0037519	0.00036432	409.01	2.3269e-05	1.4125e-05	444.13	141.22	2.4984e-05	4.0631e-05	154.4	48.563	43.327	17.066	3.4029e-05	20.366	0.074157	0.13979	0.039663	866	0.0013616	0.0015785	963.34	308.55	0.001347	0.0015426	1030.8	133.49	129.62	42.68	0.0014295	55.587	200.009	429.870	119.604	92.140	249.862	296.543	91.122	97.801	247.896	253.991	95.191	100.589	105.199	109.254	196.426	104.900	-8191	255	
1203.934	1	1	0	0	0.13104	0.22674	0.092904	0.23433	0.10489	0.075595	0.20659	0.057826	0.36355	0.053922	0.18833	0.13469	0.16334	0.069954	0.24827	0.28832	-1.6104	-2.6104	-1.6854	-2.2875	-2.4854	-1.7792	-2.5875	-2.1042	-1.925	-2.7042	-1.7437	-2.2479	-2.4271	-1.7375	-2.4188	-2.1771	271.408	394.663	87.825	416.468	281.720	189.237	362.536	289.273	226.814	386.187	102.965	393.881	401.673	244.962	237.469	309.123	0.00031457	0.002058	0.00057476	411.26	3.7241e-05	1.4027e-05	435.71	141.18	2.9142e-05	8.5133e-06	144.56	47.771	42.929	16.843	2.9372e-05	20.061	0.0724	0.13826	0.03909	853.7	0.0013379	0.0015644	951.53	305.22	0.0013405	0.001556	1029.6	133.2	130.58	43.189	0.0014402	55.479	253.294	170.711	281.154	92.675	253.799	256.560	91.246	98.171	204.093	323.677	95.557	101.232	104.173	109.161	369.107	104.614	-8191	255	
1204.030	1	1	0	0	0.081035	0.17339	0.065518	0.26593	0.098812	0.25603	0.12817	0.11481	0.16703	0.22727	0.15536	0.26268	0.066637	0.20484	0.30666	0.19177	-1.3	-2.6542	-1.8792	-2.0896	-2.5333	-1.7896	-2.5479	-2.1979	-1.7437	-2.5812	-1.9875	-2.2604	-2.4417	-1.7521	-2.3438	-2.2812	412.935	269.056	90.006	147.396	351.788	248.199	80.976	225.367	240.348	270.024	275.064	176.077	159.518	356.009	163.779	360.300	0.00021773	0.0035564	0.0013988	406.26	1.403e-05	3.1212e-06	438.11	140.12	2.162e-05	2.5821e-05	148.86	47.777	43.67	16.941	9.7226e-06	20.562	0.072917	0.13949	0.039128	847.48	0.001328	0.0015593	944.59	301.95	0.0013232	0.0015424	1013.9	131.57	129.53	43.068	0.0014172	55.163	226.832	424.940	215.332	91.782	200.758	431.858	91.748	98.646	176.210	306.672	94.016	100.369	103.307	109.264	208.487	104.981	-8191	255	
1204.151	1	1	0	0	0.07284	0.26278	0.12354	0.129	0.27501	0.13509	0.18002	0.034499	0.16806	0.29596	0.12152	0.059703	0.1339	0.12806	0.12138	0.22016	-1.4792	-2.5792	-1.9958	-1.9604	-2.6312	-1.9312	-2.3187	-2.5229	-1.7437	-2.6083	-2.2021	-1.9104	-2.6375	-1.7792	-2.15	-2.4979	335.149	230.026	88.060	373.046	343.939	118.361	268.633	181.642	194.131	173.453	249.015	437.183	261.451	162.529	115.283	412.776	0.00047519	0.0013209	0.0011893	400.22	3.4363e-05	2.1461e-05	436.83	140.69	3.5873e-05	1.1925e-05	159.91	49.951	44.573	17.566	3.5808e-05	21.427	0.072014	0.13829	0.03838	834.09	0.0013217	0.0015404	937.11	301.14	0.0013215	0.0015286	1009.5	132.69	130.59	43.466	0.0013969	55.898	269.929	348.188	217.592	92.653	267.579	109.762	91.584	98.559	387.872	397.586	96.124	100.453	103.735	109.143	215.858	105.054	-8191	255	
1204.247	1	1	0	0	0.11457	0.20647	0.056789	0.0968	0.11524	0.17394	0.086275	0.048111	0.43638	0.19114	0.23513	0.18025	0.053611	0.10779	0.30999	0.25818	-1.6458	-2.5354	-2.2167	-2.1271	-2.6229	-1.7833	-2.2458	-2.7229	-1.8875	-2.4896	-2.3042	-1.8813	-2.6021	-1.8	-2.1208	-2.3917	211.487	173.882	389.700	202.863	182.369	110.358	82.389	177.457	179.978	81.576	120.126	383.522	189.525	344.384	260.843	404.177	0.00017075	0.0037472	0.00017437	399.42	3.1987e-05	1.4764e-05	434.52	142.63	2.965e-05	2.7761e-05	160.73	50.332	44.664	17.853	2.966e-05	21.482	0.07247	0.13786	0.038239	831.69	0.0013319	0.0015449	935.7	301.36	0.0013247	0.0015226	997.76	132.47	130.67	43.292	0.0013791	55.782	196.122	249.336	223.575	92.279	256.614	251.379	91.639	98.593	309.269	128.791	96.419	100.420	103.893	108.148	94.671	104.236	-8191	255	
1204.343	1	1	0	0	0.091625	0.038664	0.37884	0.25627	0.41106	0.1167	0.055343	0.21497	0.040636	0.098195	0.15865	0.30898	0.13866	0.1037	0.22267	0.1423	-1.3062	-2.4313	-2.1979	-1.9042	-2.6396	-1.9625	-2.3354	-2.5479	-1.7667	-2.4208	-2.3542	-1.6625	-2.5333	-2.0792	-2.0292	-2.5625	155.649	356.189	239.982	426.860	149.100	231.819	252.022	365.336	398.237	439.292	368.782	408.952	385.833	156.347	82.788	209.656	0.00013045	0.00046583	0.00094434	399.14	1.4984e-05	4.1629e-05	434.19	141.19	3.1136e-05	2.681e-05	158.54	50.774	45.082	17.601	2.2439e-05	21.774	0.072285	0.13685	0.037576	825.31	0.0013234	0.0015197	920.62	299.42	0.0013113	0.0014997	983.61	132.08	129.87	42.928	0.0013494	55.599	217.764	281.951	269.476	92.851	264.133	362.232	91.343	99.004	294.779	252.099	93.603	100.986	104.465	108.491	199.088	104.361	-8191	255	
1204.464	1	1	0	0	0.19231	0.24745	0.088655	0.42886	0.12593	0.28579	0.15533	0.13782	0.056926	0.074838	0.048818	0.11623	0.21224	0.25621	0.26875	0.17404	-1.45	-2.4292	-2.3646	-1.7083	-2.4792	-1.9917	-2.2875	-2.7979	-1.8333	-2.5375	-2.4271	-1.8604	-2.7313	-2.3896	-2.0146	-2.725	361.574	232.638	101.459	436.869	270.305	294.307	249.400	242.580	206.752	322.028	92.232	428.875	376.603	173.993	297.235	428.569	0.00049044	0.0019206	0.00034638	392.26	4.1017e-05	3.2536e-06	431.34	141.52	1.5685e-05	3.6159e-05	156.55	50.989	45.242	17.759	2.6716e-05	21.96	0.070886	0.13311	0.036696	817.26	0.001293	0.0014752	909.09	297.92	0.0012841	0.0014589	969.97	131.57	128.46	42.455	0.0013319	55.542	163.466	289.454	401.881	92.377	280.432	252.633	91.258	98.654	395.238	89.195	95.059	100.778	103.857	108.299	167.482	104.101	-8191	255	
1204.535	1	1	0	0	0.21769	0.32151	0.18186	0.2788	0.024087	0.14243	0.27496	0.17408	0.10259	0.43284	0.23119	0.26449	0.038377	0.26512	0.12417	0.024899	-1.5479	-2.1708	-2.5125	-2.0125	-2.4417	-2.2417	-1.9646	-2.7167	-1.8021	-2.3021	-2.4521	-1.8458	-2.5146	-2.3042	-1.8042	-2.6312	339.022	350.819	402.018	368.350	349.176	397.049	172.353	208.801	357.034	311.859	189.131	419.617	169.270	312.149	254.132	187.959	0.00028395	0.0022149	0.00087525	398.99	2.0173e-05	1.3818e-05	435.54	142.71	2.5836e-05	3.3836e-05	159.42	50.34	45.048	17.779	2.457e-06	21.875	0.069853	0.13096	0.03663	820.94	0.0012889	0.0014757	918.72	301.11	0.0013025	0.0014794	995.35	134.18	130.49	43.087	0.0013834	56.845	273.945	419.635	135.780	92.722	242.576	132.261	91.268	98.295	268.462	94.264	98.532	100.783	104.344	108.917	339.926	104.225	-8191	255	
1204.631	1	1	0	0	0.23904	0.1056	0.1913	0.21068	0.221	0.19186	0.096826	0.22067	0.1427	0.19626	0.24231	0.043802	0.17691	0.068366	0.2189	0.12692	-1.4312	-1.9854	-2.4521	-1.8771	-2.5875	-2.3375	-1.9	-2.7375	-1.9604	-1.9625	-2.6521	-1.7854	-2.675	-2.6437	-1.8583	-2.6063	199.256	155.209	85.781	306.206	356.250	169.456	411.706	382.457	118.318	120.033	430.424	141.476	325.922	385.554	267.349	182.833	6.6954e-05	0.0012131	0.00045839	401.28	3.8017e-05	2.0023e-05	437.96	144.35	2.836e-05	3.4899e-05	154.74	49.905	44.986	17.699	7.4284e-06	20.929	0.072044	0.13516	0.038235	839.77	0.0013393	0.0015374	942.69	307.99	0.0013469	0.0015437	1037.1	136.77	133.88	44.009	0.0014693	57.883	317.566	382.394	205.385	92.876	341.142	163.711	92.034	98.120	319.436	192.637	95.800	100.187	104.289	108.352	413.884	104.026	-8191	255	
1204.750	1	1	0	0	0.22226	0.12956	0.095455	0.15523	0.20235	0.14644	0.16189	0.072701	0.072312	0.072334	0.17634	0.21577	0.25734	0.23876	0.26436	0.20386	-1.7375	-2.1562	-2.7292	-1.9708	-2.3104	-2.5563	-1.8563	-2.7333	-2.2125	-2.0854	-2.8125	-1.8979	-2.3646	-2.6021	-1.7833	-2.6583	115.655	429.228	96.700	296.157	158.583	227.251	242.115	94.122	119.336	298.645	414.033	247.589	369.570	122.394	371.742	438.466	0.00017612	0.0016993	0.00054148	404.79	1.2564e-05	3.0241e-05	431.43	142.1	1.7199e-05	2.3926e-05	151.64	48.926	43.895	17.271	1.3631e-05	20.752	0.075561	0.14265	0.040453	865.97	0.0013863	0.0016031	966.67	312.97	0.0013794	0.0015844	1056.8	136.62	133.2	43.889	0.0014703	57.024	354.803	192.438	418.473	91.881	127.461	248.002	91.083	98.773	354.093	154.185	96.538	100.396	103.802	108.529	301.032	104.712	-8191	255	
1204.846	1	1	0	0	0.17512	0.29213	0.21931	0.13884	0.075572	0.02432	0.10307	0.24155	0.21804	0.17203	0.21881	0.12583	0.20484	0.29555	0.07128	0.17666	-1.8229	-2.0958	-2.5021	-1.9229	-2.1688	-2.5146	-1.8917	-2.5958	-2.0667	-1.7062	-2.75	-1.9729	-1.9583	-2.6937	-1.8417	-2.4167	364.869	304.908	237.837	401.152	299.435	336.521	82.195	317.723	141.197	299.196	376.704	150.574	362.774	431.528	361.847	306.717	0.00025353	0.0015992	0.0010961	405.27	2.8954e-05	2.7486e-05	433.21	141.46	1.051e-05	3.2582e-05	155.45	48.367	43.835	16.991	1.1671e-05	20.147	0.073874	0.14041	0.039724	854.35	0.0013414	0.0015667	951.64	307.41	0.0013403	0.001559	1036.8	134.47	131.51	43.771	0.0014676	56.635	274.411	150.280	142.767	92.395	342.129	232.853	91.121	98.372	320.108	432.174	96.099	100.480	103.943	108.209	86.254	104.388	-8191	255	
1204.943	1	1	0	0	0.21906	0.078221	0.23646	0.15245	0.2587	0.05739	0.13079	0.13195	0.011898	0.44664	0.14793	0.16911	0.12706	0.087121	0.14164	0.12623	-1.925	-1.725	-2.6188	-1.9375	-2.0646	-2.6396	-1.8729	-2.4292	-2.4042	-1.6979	-2.725	-2.1958	-1.9021	-2.6771	-1.7604	-2.3063	111.589	89.586	368.685	232.390	405.617	287.118	228.344	411.598	438.919	202.214	271.600	121.602	420.427	107.142	270.856	390.269	0.00037452	0.0020224	0.00067979	405.6	4.2452e-05	1.912e-05	437.47	139.25	2.6457e-05	2.8006e-05	152.61	47.057	42.792	16.783	2.1139e-05	19.821	0.074816	0.14417	0.040397	862.46	0.001374	0.0016189	964.27	307.94	0.001369	0.0016005	1048.1	133.47	132.23	43.737	0.0014755	56.079	247.928	366.356	328.014	92.451	231.600	274.445	91.528	98.087	228.986	427.904	95.529	100.539	104.177	108.527	284.252	104.246	-8191	255	
1205.039	1	1	0	0	0.19378	0.16101	0.063093	0.1721	0.14574	0.11661	0.14726	0.17277	0.16324	0.12152	0.17862	0.18281	0.073185	0.040418	0.26603	0.093535	-2.0021	-1.7917	-2.4958	-2.2	-2.0208	-2.6208	-2.0417	-2.1063	-2.6354	-1.75	-2.3979	-2.2521	-1.9354	-2.5125	-1.8875	-2.1521	112.496	350.305	355.707	438.582	268.624	222.831	164.961	263.710	114.560	130.454	122.233	208.200	230.941	243.835	407.622	246.977	0.0006448	0.00038796	0.00063056	406.4	7.1881e-06	2.7433e-05	428.44	139.28	1.2471e-05	4.6939e-05	150.85	45.601	41.922	16.548	1.1447e-05	19.551	0.075317	0.14494	0.040547	861.85	0.0013919	0.0016453	964.24	308.76	0.0014129	0.001641	1066.3	134.13	134.81	44.349	0.00151	56.481	239.345	260.889	374.469	92.498	267.995	199.836	90.820	98.225	127.004	212.255	94.428	100.672	103.434	109.259	397.908	104.401	-8191	255	
1205.135	1	1	0	0	0.097511	0.11936	0.070233	0.1204	0.13006	0.018445	0.20313	0.17091	0.19995	0.1757	0.28707	0.10506	0.043107	0.041525	0.2231	0.20955	-2.1833	-1.8375	-2.2562	-2.2375	-1.7812	-2.7583	-1.9729	-2.1229	-2.6542	-1.6958	-2.4479	-2.2708	-1.9562	-2.5417	-2.0708	-2.1479	413.682	246.149	367.901	301.414	367.460	270.294	191.702	112.297	207.474	292.344	364.286	388.800	197.016	389.226	320.060	388.103	0.00028691	0.0021087	0.00029879	403.49	3.8285e-05	1.3417e-05	423.49	138.88	2.7692e-05	2.3135e-05	148.13	45.78	42.658	16.507	2.1559e-05	19.428	0.077888	0.14808	0.040888	868.4	0.0014231	0.0016623	961.26	309.61	0.0014308	0.0016511	1066.8	135	136.23	44.576	0.0015151	56.931	245.032	399.899	371.973	91.962	210.660	132.631	90.383	97.744	271.081	253.905	94.873	100.701	103.919	108.993	269.296	104.308	-8191	255	
1205.231	1	1	0	0	0.12261	0.21331	0.072906	0.11048	0.24182	0.054809	0.064497	0.11683	0.44664	0.048091	0.056613	0.20331	0.19312	0.048317	0.12251	0.020228	-2.3563	-1.7792	-2.2646	-2.2417	-1.6688	-2.4958	-2.1896	-2.1167	-2.6583	-1.9417	-2.1667	-2.4458	-1.7333	-2.6458	-2.2062	-1.8646	177.004	130.166	310.403	183.669	169.984	149.208	204.679	412.902	430.035	367.072	295.562	105.781	88.230	162.414	389.750	220.012	0.00026607	0.0037109	0.0016262	406.06	3.9018e-05	1.4887e-05	428.37	139.02	2.1385e-05	4.0715e-05	145.61	46.977	43.103	16.785	2.5086e-05	20.024	0.079193	0.14944	0.041186	875.32	0.0014441	0.0016668	962.13	311.6	0.0014412	0.0016497	1060.5	136.12	136.92	44.666	0.0015018	57.791	233.802	119.105	283.861	91.470	163.227	235.925	90.671	98.548	258.699	116.266	97.704	99.952	103.838	107.848	305.704	103.646	-8191	255	
1205.327	1	1	0	0	0.0099201	0.10718	0.13496	0.23133	0.35176	0.090605	0.4072	0.22649	0.083452	0.26543	0.15152	0.1908	0.16905	0.036661	0.12699	0.15748	-2.2083	-2.1083	-2.1417	-2.6458	-1.8521	-2.2792	-2.4333	-1.9542	-2.5958	-1.9458	-2.1854	-2.6479	-1.7875	-2.4604	-2.3458	-1.7271	329.530	201.022	248.451	222.204	343.983	418.595	375.776	430.975	289.012	329.883	240.399	431.465	117.856	186.704	186.061	169.872	0.00015559	0.0040477	0.00076046	412.33	5.9474e-06	1.7464e-05	432.8	141.36	2.3368e-05	4.4709e-05	152.38	47.891	43.936	17.085	5.156e-06	20.494	0.079144	0.14861	0.040928	880.37	0.001436	0.0016448	963.03	313.43	0.0014194	0.0016073	1043.9	136.2	134.83	43.947	0.0014563	57.12	424.931	366.123	369.835	92.044	104.036	319.894	90.562	98.130	415.757	176.750	96.686	99.457	104.123	108.153	118.615	103.008	-8191	255	
1205.423	1	1	0	0	0.19588	0.064864	0.3147	0.1414	0.12952	0.069915	0.25127	0.17972	0.11283	0.13596	0.11729	0.18086	0.031489	0.29192	0.075251	0.21012	-2.0917	-1.8958	-1.8417	-2.6875	-1.8333	-2.4042	-2.45	-1.925	-2.7708	-2.1083	-2.0771	-2.7479	-1.8521	-2.4146	-2.3896	-1.8083	398.410	409.039	435.911	392.874	105.241	378.380	372.682	368.448	274.859	281.068	136.765	403.123	353.153	409.856	84.616	380.049	0.00028469	0.0026955	0.00011777	406.99	2.4689e-05	1.8266e-05	427.6	143.27	9.3555e-06	2.988e-05	155.96	48.418	44.107	17.231	2.3436e-05	20.754	0.076544	0.14232	0.039792	867.19	0.0014052	0.0016058	953.99	315.12	0.0014179	0.0016115	1062	138.89	137.23	44.759	0.0015092	58.64	177.903	380.441	343.146	91.327	176.528	388.465	90.568	98.070	212.130	236.729	95.008	100.572	104.173	108.163	404.637	103.768	-8191	255	
1205.542	1	1	0	0	0.20807	0.091108	0.17926	0.28522	0.1707	0.16375	0.21057	0.3238	0.13211	0.05253	0.12928	0.091677	0.20766	0.18229	0.078336	0.032495	-2.0646	-2.0417	-1.9438	-2.65	-1.8083	-2.2042	-2.4854	-1.8229	-2.3542	-2.2062	-1.9562	-2.7125	-1.8396	-2.2708	-2.4729	-1.7146	285.685	135.862	274.332	324.034	388.971	351.269	436.590	101.335	274.519	89.037	139.004	91.152	325.051	235.614	388.659	337.139	0.00051779	0.0016705	0.00057293	403.8	4.2196e-05	3.5538e-05	429.08	141.35	1.9072e-05	1.273e-05	157.01	48.19	44.494	17.315	1.5692e-05	20.606	0.078544	0.14631	0.041279	880.52	0.0014293	0.0016309	969.28	317.27	0.0014258	0.0016167	1075.8	139.74	136.91	44.957	0.0015245	58.801	218.128	205.963	427.942	91.970	92.900	354.141	91.070	97.645	133.351	162.819	95.584	100.023	103.046	107.738	84.875	103.785	-8191	255	
1205.638	1	1	0	0	0.29862	0.058961	0.259	0.1067	0.050294	0.18293	0.21465	0.26562	0.3657	0.34043	0.18834	0.060852	0.14452	0.13448	0.15742	0.37486	-2.0354	-2.2646	-1.8771	-2.6167	-2.0438	-2.1292	-2.6937	-1.7833	-2.6396	-2.3542	-1.8667	-2.6375	-1.9854	-1.9688	-2.5542	-1.7188	389.637	175.611	176.168	157.174	115.185	429.873	373.831	291.690	285.616	298.658	89.062	218.135	434.023	307.068	158.831	384.782	0.00013453	0.0031383	0.00084261	404.02	9.0405e-06	2.0954e-05	432.57	142.56	3.0278e-05	4.3067e-05	154.29	49.134	44.268	17.583	2.0742e-05	20.329	0.078705	0.1482	0.042279	887.1	0.0014508	0.0016812	992.17	322.45	0.0014588	0.0016714	1110.7	142.74	138.94	45.612	0.0015508	58.965	245.124	432.485	255.604	91.620	198.087	94.809	91.360	98.128	407.381	191.741	94.285	100.039	103.834	108.587	180.694	103.925	-8191	255	
1205.712	1	1	0	0	0.079395	0.13139	0.19805	0.083015	0.27277	0.24313	0.26916	0.40189	0.10882	0.090623	0.15788	0.12552	0.04614	0.16017	0.058956	0.041422	-1.8771	-2.2812	-1.8229	-2.5875	-1.7667	-2.0333	-2.7479	-2.0042	-2.2458	-2.5417	-1.7292	-2.6437	-2.1125	-1.875	-2.4646	-1.85	323.016	248.783	264.209	355.392	130.745	204.129	87.268	384.352	254.022	160.992	362.599	336.086	384.140	361.397	114.021	296.094	0.00031506	0.0011942	0.0002545	402.55	1.0438e-05	7.2707e-06	430.38	142.2	1.9218e-05	7.5222e-06	151.41	48.203	43.68	17.384	2.189e-05	20.596	0.077665	0.14731	0.041531	872.96	0.0013967	0.0016246	968.12	313.45	0.0013869	0.0016038	1065.7	137.03	134.06	44.583	0.0014982	57.193	307.769	406.479	144.071	91.880	372.702	429.720	90.900	97.678	141.805	231.492	93.780	99.400	102.528	108.164	94.506	103.990	-8191	255	
1205.831	1	1	0	0	0.20439	0.18797	0.027137	0.19379	0.26028	0.22953	0.099226	0.2173	0.13309	0.26356	0.0091426	0.12646	0.075996	0.1087	0.10053	0.25595	-1.8625	-2.4896	-1.6833	-2.4938	-2.1979	-1.8708	-2.7917	-1.9208	-2.0396	-2.5354	-1.6896	-2.6396	-2.1479	-1.7021	-2.4188	-2.0771	230.068	108.118	110.077	433.441	122.758	187.010	339.485	318.198	254.436	298.477	365.491	256.064	109.916	336.167	378.946	134.990	0.00044771	0.0021059	0.00023892	403.94	2.6664e-05	1.2717e-05	433.21	142.32	1.4764e-05	1.2859e-05	158.45	48.937	43.986	17.351	3.1802e-05	20.212	0.075792	0.14517	0.040904	865.16	0.0013844	0.0016317	967.37	312.09	0.0013905	0.0016243	1066.1	136.28	134.52	44.714	0.0014981	57.03	267.337	239.010	148.548	92.055	223.924	296.717	90.782	97.718	327.277	262.840	93.672	99.613	102.791	107.547	144.645	103.088	-8191	255	
1205.927	1	1	0	0	0.22313	0.064658	0.11773	0.16639	0.18894	0.22088	0.13479	0.1191	0.16906	0.10343	0.14255	0.21409	0.06606	0.23063	0.20576	0.18203	-1.7833	-2.4688	-1.8062	-2.4021	-2.2521	-1.8125	-2.6833	-2.1021	-2.1104	-2.5521	-1.75	-2.3854	-2.3688	-1.9375	-2.6646	-2.1396	98.779	240.900	138.043	212.228	90.563	130.150	169.030	403.209	296.038	367.738	296.991	214.327	312.404	316.475	268.736	415.148	0.00029815	0.0019198	0.0010249	404.18	1.3286e-05	2.0113e-05	426.95	142.89	8.573e-06	3.5977e-05	151.34	48.716	44.022	17.515	1.8441e-05	20.672	0.075933	0.14601	0.04062	856.4	0.0013829	0.001618	956.67	308.17	0.0013742	0.0015959	1041.4	134.54	133.84	44.445	0.0014619	56.636	273.600	119.433	174.937	91.506	341.073	247.842	90.481	97.926	316.173	429.083	95.959	99.951	103.333	107.885	266.326	103.353	-8191	255	
1206.023	1	1	0	0	0.17003	0.25424	0.3102	0.10671	0.053258	0.23051	0.11352	0.18698	0.23369	0.27936	0.068335	0.10173	0.18489	0.39863	0.24663	0.087756	-1.625	-2.5542	-1.7938	-2.4062	-2.3146	-1.6688	-2.7833	-2.3333	-1.9125	-2.6125	-1.8563	-2.3479	-2.5271	-1.8542	-2.5083	-2.1396	434.526	422.548	379.551	265.896	332.496	261.757	103.129	166.251	96.370	393.430	107.000	381.536	371.631	134.552	244.872	411.947	0.00040608	0.004528	0.00097982	400.29	3.9694e-05	3.6196e-05	430.02	143.43	7.737e-06	2.0612e-05	153.93	49.992	45.041	17.348	4.5603e-05	20.756	0.075537	0.14471	0.040086	853.5	0.0013924	0.0016243	957.2	310.34	0.0013925	0.001608	1042.5	135.68	134.97	44.433	0.0014566	56.783	230.017	158.660	167.500	91.898	300.023	186.433	90.709	97.242	380.262	243.579	94.315	100.383	103.249	107.040	141.747	103.742	-8191	255	
1206.144	1	1	0	0	0.14935	0.17918	0.33862	0.26348	0.09749	0.10334	0.17226	0.26791	0.2982	0.13275	0.12411	0.30261	0.19625	0.071379	0.029177	0.076159	-1.4125	-2.7313	-1.7729	-2.1104	-2.5417	-1.6083	-2.4708	-2.3229	-1.7896	-2.6104	-2.0104	-2.1396	-2.6729	-1.675	-2.425	-2.3396	79.995	140.179	258.150	99.538	291.474	278.558	279.038	336.376	284.909	85.100	92.761	360.799	104.773	106.885	334.133	202.790	0.00019472	0.0023707	0.00083974	403.35	2.858e-05	2.7015e-05	435.14	141.86	1.147e-05	9.6897e-06	153.69	48.779	44.591	17.384	1.5516e-05	20.267	0.075867	0.14391	0.039631	854.11	0.0013935	0.0016132	950.15	309.4	0.0014025	0.0016059	1043.4	136.31	136.08	44.692	0.0014702	57.517	289.878	386.264	405.415	91.849	90.723	88.326	90.725	97.963	202.635	81.482	93.757	100.025	103.321	107.888	423.200	103.830	-8191	255	
1206.240	1	1	0	0	0.16094	0.069833	0.25649	0.082772	0.11329	0.11497	0.21132	0.10113	0.2039	0.33324	0.15723	0.093507	0.13784	0.12989	0.057878	0.069424	-1.5167	-2.7	-2.0146	-2.2708	-2.5646	-1.6583	-2.4208	-2.375	-1.8771	-2.7188	-2.0708	-2.1667	-2.6896	-1.8771	-2.2354	-2.3875	329.162	370.383	228.386	82.928	186.954	413.813	366.334	391.552	432.978	360.231	280.294	246.327	264.613	430.654	305.436	164.345	0.0003288	0.0014857	0.00045045	399.75	1.7535e-05	3.1774e-05	426.25	141.09	2.5379e-05	2.1179e-05	153.61	48.598	44.431	17.195	4.7168e-06	20.72	0.077473	0.14613	0.040101	863.91	0.0014178	0.0016319	953.92	313.62	0.0014178	0.0016162	1052.7	137.88	137.18	44.675	0.0014801	58.015	249.345	254.335	164.527	92.193	370.552	274.851	91.074	97.843	282.626	238.164	96.985	100.465	104.117	107.671	380.381	104.174	-8191	255	
1206.336	1	1	0	0	0.051071	0.26982	0.094695	0.14559	0.13765	0.16814	0.2739	0.1097	0.27278	0.2158	0.049977	0.16468	0.12307	0.078591	0.34701	0.18794	-1.4917	-2.4833	-1.9104	-1.8062	-2.6229	-1.7938	-2.2479	-2.4271	-1.7938	-2.4437	-1.8438	-1.9729	-2.5646	-1.8854	-2.0167	-2.3937	335.527	312.342	320.918	262.878	150.780	155.147	160.680	306.922	204.352	386.415	155.090	108.414	209.694	192.335	438.678	269.651	7.0701e-05	0.0025643	0.00080906	400.83	5.7434e-05	2.6937e-05	429.28	143.29	2.5431e-05	2.1319e-05	161.19	49.497	43.819	17.408	2.1319e-05	20.855	0.077595	0.1451	0.040177	866.54	0.0014122	0.0016135	954.04	314.14	0.0014067	0.0015902	1047.8	137.69	135.63	44.358	0.0014658	57.903	383.841	410.634	333.968	91.716	338.407	197.800	90.870	98.162	327.168	300.517	95.630	100.239	102.879	108.142	406.039	103.725	-8191	255	
1206.432	1	1	0	0	0.21185	0.14818	0.29347	0.21187	0.057886	0.30427	0.09672	0.14547	0.17663	0.15836	0.10276	0.11679	0.23353	0.42753	0.1406	0.30301	-1.35	-2.3146	-2.0042	-1.8312	-2.5833	-2.0208	-2.0333	-2.3417	-1.8646	-2.425	-2.3146	-1.8896	-2.5958	-1.8687	-1.9937	-2.5792	175.946	128.360	435.881	315.068	96.407	269.260	384.992	222.443	83.128	418.663	268.627	189.959	385.057	407.190	94.091	359.971	0.0003657	0.0011105	0.00056454	400.53	4.6414e-05	7.3914e-06	432.23	142.15	1.6056e-05	1.201e-05	153.46	49.364	44.391	17.57	1.6803e-05	20.783	0.07648	0.14293	0.040122	863.38	0.0014004	0.0015904	957.29	312.9	0.0013834	0.0015648	1042.5	137	134.16	43.998	0.0014618	57.267	328.897	186.099	87.640	91.927	98.931	435.354	91.204	97.079	211.276	421.611	95.952	99.959	103.498	107.967	169.711	104.234	-8191	255	
1206.528	1	1	0	0	0.095413	0.17173	0.13113	0.085432	0.31668	0.048405	0.17023	0.10879	0.1552	0.19909	0.049448	0.33031	0.086633	0.11353	0.13691	0.19008	-1.3188	-2.375	-2.2542	-1.7938	-2.4271	-2.0854	-1.9646	-2.4646	-1.8875	-2.2313	-2.3625	-1.9896	-2.6917	-2.1604	-1.8687	-2.4583	356.365	221.663	436.659	165.683	353.821	339.075	398.499	214.919	216.970	411.396	333.368	401.543	86.738	419.904	275.335	405.026	0.00036493	0.0024922	0.0011971	393.66	1.0405e-05	1.8306e-05	424.69	142.23	2.7977e-05	2.5383e-05	155.11	48.988	44.85	17.667	1.4945e-05	20.579	0.074501	0.14058	0.039779	853.1	0.0013657	0.0015764	947.64	311.41	0.0013606	0.0015651	1043	135.97	132.84	43.857	0.0014524	56.773	263.835	114.525	108.640	91.472	224.889	224.189	90.833	97.571	292.927	285.425	95.580	99.654	102.616	108.231	313.976	103.092	-8191	255	
1206.623	1	1	0	0	0.2085	0.20645	0.14292	0.065794	0.1722	0.112	0.25252	0.25449	0.043543	0.21049	0.14584	0.1116	0.14482	0.17516	0.24165	0.19647	-1.5063	-2.0896	-2.2979	-1.8542	-2.475	-2.1479	-1.9562	-2.7104	-1.7021	-2.2396	-2.4625	-1.775	-2.5812	-2.1312	-1.8333	-2.8229	118.254	253.629	260.134	354.405	404.214	405.600	346.363	370.049	231.657	425.060	363.072	86.347	356.760	174.518	120.913	425.739	0.00036842	0.0028803	0.00038891	394.86	1.5405e-05	1.508e-05	424.06	142.17	2.5283e-06	4.0634e-05	159.97	50.267	44.932	17.945	3.7784e-05	21.405	0.073459	0.13975	0.03976	846.04	0.0013532	0.0015776	946.41	310.54	0.0013521	0.0015716	1049.9	136.89	133.17	44.461	0.0014615	57.232	277.648	431.905	184.480	91.744	191.792	363.325	90.499	98.566	290.432	200.390	95.491	100.074	103.583	107.842	370.381	104.189	-8191	255	
1206.719	1	1	0	0	0.019168	0.09155	0.2035	0.1875	0.18835	0.15564	0.034989	0.16121	0.10796	0.23795	0.03251	0.12627	0.21017	0.15414	0.045695	0.10978	-1.6479	-1.9521	-2.5938	-1.8687	-2.3979	-2.2708	-1.7687	-2.5167	-1.9896	-1.9792	-2.6063	-1.8792	-2.4562	-2.3708	-1.9188	-2.6125	367.821	420.760	369.164	376.587	330.344	230.644	396.743	379.233	81.481	124.348	438.517	145.348	131.615	227.226	340.868	285.448	0.00064815	0.0016648	0.00054869	389.52	8.6373e-06	2.9864e-05	425.53	141.35	3.7288e-05	2.0356e-05	159.68	51.235	45.754	18.022	1.9413e-05	21.58	0.073111	0.13961	0.039311	831.18	0.0013243	0.0015499	936.02	303.97	0.0013178	0.0015413	1030.4	135.59	132.71	44.526	0.0014407	57.337	224.349	149.502	230.552	92.219	309.368	186.547	91.303	98.469	265.292	356.803	95.416	100.373	103.440	107.652	300.502	103.787	-8191	255	
1206.817	1	1	0	0	0.092956	0.082063	0.15392	0.18244	0.086758	0.12144	0.15633	0.10376	0.20869	0.1788	0.072032	0.24157	0.2101	0.24669	0.28685	0.093404	-1.5854	-2.0167	-2.6583	-1.8292	-2.1646	-2.4562	-1.8	-2.5042	-2.0792	-1.9708	-2.5521	-1.9479	-2.5438	-2.3438	-1.8875	-2.6333	348.028	308.705	96.964	346.727	369.360	297.720	279.531	83.481	167.463	389.322	104.095	244.622	295.825	194.015	134.844	374.235	0.00035566	0.0010904	0.0002404	390.35	7.489e-06	3.4209e-05	422.85	142.79	2.4694e-05	3.9542e-05	157.31	51.235	45.467	18.3	1.217e-05	21.585	0.073926	0.14261	0.039842	837.34	0.0013644	0.0016069	947.96	308.84	0.0013634	0.0015934	1045.9	136.69	134.49	45.062	0.0014609	57.485	252.173	178.160	319.589	91.588	418.261	205.709	91.361	97.867	224.967	208.263	96.530	99.578	103.083	108.168	291.612	103.532	-8191	255	
1206.935	1	1	0	0	0.20715	0.35413	0.095234	0.12187	0.19096	0.18461	0.16582	0.24174	0.22365	0.1321	0.20169	0.26209	0.19955	0.089144	0.20495	0.094784	-1.8312	-1.8229	-2.5542	-1.9438	-1.9062	-2.5604	-1.7437	-2.4938	-2.3875	-1.9021	-2.4646	-2.0563	-2.0396	-2.5458	-1.8583	-2.6063	411.969	404.532	137.235	93.372	214.668	229.253	298.764	357.708	328.119	105.022	206.645	295.734	429.969	140.031	399.501	85.600	0.00029987	0.0019235	0.00060449	386.56	1.1524e-05	3.1209e-06	421.8	144.5	2.6871e-05	2.8447e-06	150.69	50.882	45.962	18.163	4.8231e-05	21.994	0.074968	0.1437	0.039953	835.34	0.0013813	0.0016138	944.41	310	0.0013846	0.0015992	1045.7	137.38	136.06	45.372	0.0014592	58.045	284.968	183.404	257.763	91.603	148.294	127.330	89.937	97.727	245.976	169.124	96.706	99.991	103.232	107.803	360.307	104.090	-8191	255	
1207.007	1	1	0	0	0.24947	0.081938	0.13448	0.099009	0.040332	0.21107	0.061288	0.078669	0.14277	0.28216	0.17331	0.24234	0.29824	0.28787	0.039701	0.17951	-1.95	-1.9583	-2.5917	-1.9542	-2.0563	-2.6521	-1.7062	-2.3812	-2.3583	-1.85	-2.6729	-2.0604	-2.1875	-2.7292	-1.8333	-2.4562	133.042	313.734	327.561	305.912	193.845	303.920	105.353	300.337	87.762	117.522	277.215	433.731	430.391	419.905	98.298	119.069	0.00045053	0.002083	0.00066519	391.68	1.1276e-05	1.8112e-05	427.63	142.27	2.1321e-05	1.5306e-05	158.16	51.337	46.047	17.948	1.2232e-05	21.413	0.076296	0.14469	0.039771	844.52	0.0013956	0.001612	942.82	309.34	0.0013838	0.0015856	1040.1	137.39	135.98	45.062	0.0014512	57.944	256.442	157.257	401.191	91.945	136.333	267.497	90.846	97.962	291.178	210.709	93.293	99.421	104.525	107.761	247.041	103.578	-8191	255	
1207.103	1	1	0	0	0.11512	0.45096	0.1007	0.069896	0.13596	0.34156	0.21476	0.36099	0.19848	0.01469	0.21102	0.11918	0.19375	0.087748	0.095516	0.10287	-1.9438	-1.7687	-2.6312	-2.3125	-1.8937	-2.6562	-1.9292	-2.3937	-2.4771	-1.9583	-2.4021	-2.0417	-1.9875	-2.6604	-1.9937	-2.2479	132.439	272.763	168.719	118.825	236.656	127.110	190.609	171.314	332.179	99.052	197.384	152.363	202.411	220.377	439.066	266.423	0.00043416	0.0028919	0.00024889	395.86	1.8233e-05	2.4791e-05	427.28	143.68	2.6789e-05	1.9913e-05	156	50.296	44.977	17.878	3.4529e-05	21.118	0.076533	0.14447	0.039783	854.12	0.0014105	0.0016206	953.21	314.45	0.0014171	0.0016093	1054.8	139.34	137.66	45.074	0.0014815	58.658	252.770	380.219	128.051	91.770	386.928	294.363	90.858	97.633	435.706	425.479	94.188	100.277	103.365	107.639	316.409	103.096	-8191	255	
1207.224	1	1	0	0	0.12338	0.2742	0.084807	0.053531	0.13267	0.040384	0.33655	0.063363	0.18967	0.2359	0.26667	0.075141	0.10351	0.043453	0.25457	0.19861	-2.1583	-1.7812	-2.4875	-2.2812	-1.8917	-2.6937	-2.3833	-2.325	-2.55	-1.9354	-2.3583	-2.3521	-1.8583	-2.5667	-1.9354	-2.3438	144.957	302.457	262.191	90.924	112.893	118.259	310.769	321.474	132.979	181.638	273.889	334.068	181.371	313.883	317.285	92.110	0.00041226	0.001017	0.00065507	400.46	2.886e-05	1.7413e-05	427.1	143.39	1.1996e-05	1.9279e-05	160.09	49.482	44.876	17.484	2.2515e-05	20.617	0.078325	0.14663	0.040916	872.9	0.0014459	0.0016517	965.45	319.01	0.001438	0.0016254	1067.4	139.52	137.52	44.764	0.001488	58.124	181.297	192.943	396.594	91.910	187.332	395.573	90.246	97.876	363.816	367.397	93.940	99.245	103.305	107.880	179.354	103.515	-8191	255	
1207.320	1	1	0	0	0.16945	0.17418	0.13023	0.041839	0.038827	0.16097	0.12906	0.2146	0.24274	0.27366	0.15747	0.0179	0.095945	0.33331	0.023255	0.22822	-2.1896	-1.5917	-2.4396	-2.3771	-1.8229	-2.5563	-2.1292	-1.9958	-2.6125	-1.8208	-2.1583	-2.3646	-1.9229	-2.7104	-2.0958	-1.8125	112.587	306.597	406.685	377.473	176.305	95.225	333.915	386.068	370.280	384.553	149.902	380.439	393.099	94.814	117.641	184.717	0.00030092	0.0020279	0.00038651	400.35	1.4119e-05	2.0224e-05	426.95	143.2	1.5463e-05	1.019e-05	150.11	48.537	44.611	17.512	7.5953e-06	20.828	0.077331	0.14355	0.040292	862.38	0.0014026	0.0016001	952.99	314.1	0.0014013	0.0015892	1061	138.75	136.48	44.759	0.0015066	58.536	276.915	321.149	321.515	91.846	425.334	425.388	90.758	97.929	340.291	367.713	93.023	100.190	103.595	107.921	306.849	103.803	-8191	255	
1207.416	1	1	0	0	0.21903	0.12058	0.12296	0.38149	0.033082	0.065071	0.05585	0.15701	0.062906	0.2265	0.13107	0.14855	0.089967	0.10844	0.14211	0.081077	-2.3833	-1.9542	-2.3	-2.6229	-1.6458	-2.6729	-2.2375	-1.8146	-2.5646	-1.9583	-2.2188	-2.6833	-1.75	-2.4271	-2.2917	-1.8583	275.090	178.970	188.810	330.786	206.627	135.812	351.769	212.599	243.534	422.453	378.105	259.043	385.710	332.801	426.716	385.786	3.8088e-05	0.004655	0.00034258	400.24	3.912e-05	5.1269e-05	429.42	143.71	1.4753e-05	1.201e-05	158.6	49.31	44.692	17.515	1.6785e-05	20.677	0.07768	0.14535	0.041323	872	0.0014148	0.0016341	965.05	316.52	0.00141	0.0016107	1075.2	139.1	136.13	44.885	0.0015186	58.664	200.432	152.287	179.129	91.264	385.783	315.845	90.629	97.353	163.793	112.478	95.704	99.452	103.353	107.955	328.943	103.380	-8191	255	
1207.512	1	1	0	0	0.080014	0.14166	0.096477	0.13277	0.086413	0.17559	0.12278	0.099434	0.060394	0.16225	0.27952	0.073364	0.050432	0.1962	0.094741	0.089631	-2.2438	-1.9208	-2.1083	-2.6417	-1.8104	-2.2896	-2.3917	-1.7604	-2.4854	-2.0292	-2.1708	-2.5333	-1.8854	-2.375	-2.5375	-1.9604	240.344	207.857	113.278	381.373	139.400	321.301	291.689	426.169	406.238	370.205	307.047	161.157	286.156	376.164	245.898	251.992	0.00043268	0.0013661	0.00060973	398.91	1.8111e-05	6.0477e-06	424.39	141.93	8.9962e-06	2.4519e-05	151.87	49.003	44.82	17.347	2.2167e-05	20.318	0.077932	0.14776	0.042118	880.4	0.0014311	0.0016699	979.5	318.77	0.0014297	0.0016534	1093.8	139.82	136.84	45.418	0.0015436	58.515	267.793	280.608	108.491	91.282	252.069	148.388	89.907	97.717	292.961	123.572	94.714	99.525	102.863	107.505	185.527	103.529	-8191	255	
1207.631	1	1	0	0	0.13789	0.13793	0.3789	0.15415	0.26992	0.17927	0.29362	0.21605	0.21294	0.18577	0.082249	0.20091	0.16878	0.47571	0.30335	0.16406	-2.2167	-2.0875	-1.9958	-2.7375	-1.7542	-2.4708	-2.5542	-1.7812	-2.3708	-2.1604	-2.0458	-2.6208	-1.8125	-2.1312	-2.4854	-1.7625	342.345	425.301	429.142	381.337	317.035	189.162	182.049	243.081	120.958	306.510	256.290	321.069	348.825	384.915	280.381	317.014	0.00041324	0.0014518	0.00092663	398.67	1.5725e-05	2.5007e-05	426.3	141.29	1.0778e-05	1.9687e-05	148.58	49.083	44.831	17.479	1.7489e-05	20.488	0.078032	0.14908	0.042096	875.64	0.0014277	0.001676	973.54	316.5	0.0014333	0.001671	1097.1	140.26	138.65	46.108	0.001569	59.219	237.530	154.537	399.604	91.727	215.511	359.285	90.044	97.404	308.001	134.357	96.119	99.576	102.701	107.898	266.979	103.550	-8191	255	
1207.705	1	1	0	0	0.12211	0.11422	0.15117	0.25797	0.19417	0.18321	0.18001	0.1435	0.17961	0.44536	0.095303	0.18155	0.13874	0.25138	0.11736	0.29262	-2.1271	-2.1958	-1.9229	-2.5333	-1.8729	-2.2333	-2.6208	-1.7271	-2.5187	-2.25	-2.0229	-2.4542	-1.925	-2.1667	-2.4688	-1.7292	379.162	277.043	177.612	388.607	195.515	324.852	142.156	408.964	169.907	402.774	88.127	329.915	251.215	268.182	295.989	420.834	0.00043482	0.0013611	0.0014059	395.18	3.2768e-05	4.1276e-05	423.86	143.21	4.7686e-05	2.8749e-05	151.72	49.734	44.838	17.449	1.4442e-05	20.872	0.080007	0.15412	0.043102	883.93	0.0014692	0.0017336	987.71	321.57	0.0014714	0.001712	1112.4	141.24	140.25	46.609	0.0015586	59.101	216.748	259.500	133.545	91.757	272.815	239.968	90.140	97.907	244.782	340.333	94.960	99.855	103.819	107.987	374.174	103.633	-8191	255	
1207.824	1	1	0	0	0.13556	0.15028	0.2367	0.10196	0.2604	0.30542	0.090913	0.020867	0.2394	0.1335	0.22805	0.086708	0.074995	0.09934	0.090683	0.055512	-1.9688	-2.3	-1.7583	-2.6792	-1.9292	-1.9542	-2.7104	-1.9542	-2.4292	-2.4813	-1.7708	-2.5312	-2.0771	-1.9771	-2.6854	-1.8146	396.427	408.411	379.526	99.572	178.101	302.689	247.331	100.694	370.661	297.862	319.230	305.819	331.727	84.506	99.205	341.653	0.00038467	0.0025592	0.00085867	397.85	2.4382e-05	3.6642e-05	423.23	143.99	1.0628e-05	2.0892e-05	159.14	50.621	44.817	17.921	1.5319e-05	21.505	0.079766	0.15198	0.04217	871	0.0014544	0.0017028	979.39	319.56	0.0014684	0.0017033	1102.7	142.47	141.47	46.867	0.0015602	59.897	232.917	181.578	234.495	91.413	266.645	108.680	90.388	97.996	86.361	182.213	93.919	99.418	102.989	107.543	379.950	103.255	-8191	255	
1207.920	1	1	0	0	0.093872	0.23267	0.17872	0.22784	0.22694	0.24719	0.11252	0.14612	0.13738	0.15236	0.18785	0.11596	0.27468	0.17361	0.0093726	0.14071	-1.9042	-2.4062	-1.8271	-2.5167	-2.1292	-1.9646	-2.6396	-1.9521	-2.1813	-2.5729	-1.7458	-2.7021	-2.0604	-1.9292	-2.6479	-1.9958	207.181	266.982	170.645	379.169	158.392	364.071	424.544	411.669	84.052	173.585	356.808	151.825	429.029	307.623	325.852	211.891	0.00046484	0.000999	0.00084081	395.72	1.65e-05	5.5554e-05	425.04	142.73	1.081e-05	2.8071e-05	151.31	50.096	45.084	17.861	2.3002e-05	20.963	0.08107	0.15343	0.042317	876.2	0.001476	0.0017137	980.39	321.22	0.0014893	0.0017159	1107.9	143.85	143.42	47.08	0.0015806	60.306	208.657	436.630	189.260	92.155	205.385	207.910	90.294	98.380	265.266	339.775	95.175	100.232	102.478	108.557	387.415	103.739	-8191	255	
1208.016	1	1	0	0	0.22853	0.1105	0.047018	0.11705	0.086777	0.26576	0.081643	0.29078	0.14709	0.13391	0.24949	0.21097	0.03997	0.10047	0.074916	0.34312	-1.9937	-2.55	-1.9708	-2.4938	-2.2583	-1.6083	-2.6083	-2.0083	-2.1854	-2.5833	-1.8708	-2.4	-2.325	-1.8312	-2.7875	-1.9479	425.718	330.947	128.362	139.113	196.647	174.581	315.093	313.397	221.789	205.742	429.563	372.867	145.222	187.805	148.308	372.822	0.0003884	0.0016791	0.00058436	397.34	2.4524e-05	3.1416e-05	421.04	142.71	1.3677e-05	5.8806e-05	148.33	49.094	44.004	17.275	1.9989e-05	20.645	0.083062	0.15623	0.042914	889.8	0.0015049	0.0017192	976.65	320.54	0.0014783	0.0016714	1074.9	139.85	138.43	45.115	0.0014985	58.047	214.136	124.987	152.883	91.785	437.995	416.074	90.532	97.817	323.450	203.822	94.465	100.329	103.231	108.077	92.734	104.062	-8191	255	
1208.112	1	1	0	0	0.13137	0.1895	0.035112	0.15153	0.058296	0.26944	0.24578	0.072581	0.38977	0.08455	0.16291	0.22142	0.22707	0.13462	0.12913	0.18106	-1.7667	-2.675	-1.8813	-2.3604	-2.475	-1.8521	-2.5771	-2.125	-1.9875	-2.7792	-1.7938	-2.1583	-2.3312	-1.8979	-2.5271	-2.1312	80.425	331.710	237.333	266.913	423.587	355.281	316.855	371.459	117.608	117.232	115.093	121.850	386.329	414.805	191.176	124.595	0.00016905	0.0009707	0.00031196	400.98	8.5669e-06	5.2597e-05	424.89	141.65	2.5767e-05	1.7182e-05	149.02	47.678	44.207	17.218	3.8726e-05	20.609	0.078625	0.14721	0.040851	873.47	0.0014508	0.0016617	966.07	318.18	0.0014606	0.0016605	1083.5	140.91	139.58	45.525	0.0015414	59.316	176.138	350.838	111.562	91.394	279.722	433.055	90.350	97.476	367.416	248.293	93.184	99.870	103.304	108.027	362.673	104.316	-8191	255	
1208.233	1	1	0	0	0.24463	0.27075	0.20031	0.14668	0.092522	0.070433	0.10301	0.44954	0.044889	0.082215	0.20591	0.25494	0.11285	0.10137	0.12934	0.13538	-1.5812	-2.4208	-1.6938	-2.1125	-2.5146	-1.9354	-2.5958	-2.1188	-1.9542	-2.6937	-1.8563	-2.2458	-2.5896	-1.8333	-2.4646	-2.15	353.392	283.471	268.762	411.416	155.274	262.888	426.139	394.688	176.959	392.136	285.519	101.595	158.350	185.018	344.997	368.083	0.0003208	0.0019245	0.00051131	402.21	2.9537e-05	9.7405e-06	422.11	141.07	5.0365e-06	5.0026e-05	158.84	48.906	43.981	17.449	1.8628e-05	20.53	0.080463	0.15064	0.042151	887.07	0.0014707	0.0016768	978.62	321.55	0.0014667	0.0016615	1091.7	141.19	138.88	45.339	0.0015386	59.122	291.483	152.617	141.770	91.948	430.531	330.506	90.837	97.445	339.443	249.629	98.487	100.140	103.164	107.554	431.007	104.117	-8191	255	
1208.304	1	1	0	0	0.24177	0.073461	0.14347	0.04236	0.17112	0.13759	0.081411	0.18367	0.13585	0.10711	0.022649	0.15004	0.17638	0.18907	0.16422	0.10791	-1.6063	-2.5583	-1.8542	-2.1083	-2.575	-1.8687	-2.6479	-2.2958	-1.9167	-2.4271	-2.0187	-2.2021	-2.7542	-1.5979	-2.5375	-2.4333	407.179	187.686	97.832	140.021	188.481	167.309	412.517	369.780	253.147	264.818	219.680	93.873	340.037	129.335	320.551	244.418	0.00021922	0.0028299	0.00044727	402.97	2.3615e-05	2.2705e-05	429.98	143.79	1.1558e-05	1.6281e-05	153.81	48.976	43.919	17.309	2.15e-05	20.634	0.079349	0.14926	0.042213	887.78	0.0014581	0.0016814	986.88	323.24	0.0014652	0.0016771	1106.4	142.32	139.59	45.785	0.0015734	59.55	180.747	279.247	400.021	91.703	422.455	191.904	90.731	97.564	208.432	413.539	93.049	100.018	103.437	107.669	424.008	104.057	-8191	255	
1208.400	1	1	0	0	0.17981	0.16505	0.15187	0.30801	0.15148	0.21151	0.21673	0.37527	0.070932	0.089992	0.055595	0.27407	0.071829	0.13566	0.20586	0.043758	-1.5312	-2.4979	-1.9562	-2.1	-2.5542	-1.9604	-2.5167	-2.4875	-1.8583	-2.7417	-2.0729	-2.05	-2.6042	-1.7917	-2.2083	-2.475	98.025	298.110	80.372	110.010	329.839	371.621	425.283	390.215	173.988	358.638	297.069	124.223	314.959	182.800	420.751	145.153	0.00024967	0.0007576	0.0012091	398.47	3.0006e-05	2.9697e-05	421.6	141.76	1.7915e-05	2.5088e-05	154.61	49.295	44.862	17.532	2.1181e-05	20.756	0.079917	0.1512	0.042855	886.69	0.0014522	0.0016805	982.09	320.93	0.0014464	0.0016792	1105.9	141.66	139.34	46.461	0.0015925	60.037	230.020	152.964	158.601	91.952	278.895	201.521	90.972	97.694	199.813	378.083	94.037	99.957	102.998	108.280	255.811	103.213	-8191	255	
1208.521	1	1	0	0	0.16631	0.20552	0.16132	0.11538	0.20635	0.12503	0.16709	0.26473	0.042455	0.093481	0.29952	0.21096	0.23352	0.054555	0.2405	0.32357	-1.5	-2.5375	-2.1479	-2.0896	-2.5729	-1.9937	-2.2562	-2.6271	-1.8333	-2.5833	-2.2979	-1.8438	-2.7812	-1.9292	-2.3438	-2.5458	161.153	91.643	172.359	383.666	295.167	424.927	226.405	409.732	292.715	321.826	112.891	82.659	381.850	372.652	379.040	369.687	0.00018234	0.0026973	0.00046743	396.07	3.0859e-05	1.8246e-05	419.61	143.19	1.6307e-05	2.1146e-05	156.55	50.016	45.223	17.519	2.3456e-05	20.836	0.080753	0.15474	0.043523	888.81	0.0014743	0.001727	991.11	323.12	0.0014718	0.0017098	1120.9	143.29	141.71	46.985	0.0016129	60.488	187.007	323.721	232.372	91.973	103.803	149.376	90.620	97.326	167.691	279.615	93.888	99.930	103.200	107.293	194.327	103.339	-8191	255	
1208.615	1	1	0	0	0.0564	0.19568	0.2016	0.45789	0.17845	0.211	0.22077	0.14368	0.089207	0.011403	0.19629	0.077006	0.19729	0.16603	0.051714	0.14256	-1.4042	-2.1479	-2.2396	-1.8854	-2.6792	-2.1292	-2.175	-2.4562	-1.8854	-2.5271	-2.4042	-1.9104	-2.675	-2.225	-2.0583	-2.8396	438.203	344.971	351.247	115.697	112.829	213.122	439.651	106.246	127.492	202.030	387.325	375.057	107.572	396.407	370.588	368.141	0.0005698	0.0028974	0.00062008	394.85	3.3384e-05	1.2905e-05	423.1	143.37	7.9621e-06	1.7197e-05	155.75	49.716	45.121	17.737	1.9656e-05	21.069	0.082295	0.15826	0.044194	893.62	0.0015064	0.001767	1000.8	324.57	0.0014885	0.0017315	1122.1	142.71	141.97	46.93	0.0015887	60.08	195.565	96.502	320.736	91.501	353.461	269.360	90.786	97.740	408.781	192.743	96.153	98.781	103.370	108.178	118.281	103.112	-8191	255	
1208.712	1	1	0	0	0.13441	0.20143	0.13639	0.13994	0.066743	0.16127	0.42121	0.17721	0.084832	0.23276	0.13894	0.1584	0.13196	0.28737	0.16961	0.24096	-1.3854	-2.3104	-2.475	-1.7979	-2.575	-2.3063	-2.0354	-2.5208	-1.9167	-2.3979	-2.5292	-2.0125	-2.5312	-2.2354	-2.1146	-2.6354	218.087	305.765	182.930	288.772	341.272	278.962	344.510	422.928	125.088	197.669	137.336	248.258	206.149	402.932	278.148	309.273	0.00068938	0.0021686	0.00020846	398.4	2.3766e-05	3.7449e-05	429.46	144.18	2.0949e-05	1.5084e-05	155.08	50.021	45.518	17.719	2.6467e-05	20.739	0.081908	0.15699	0.043751	892.51	0.0015245	0.0017966	1009.7	329.94	0.0015445	0.0017911	1152	146.48	146.16	48.075	0.0016241	61.192	234.924	215.275	218.280	91.825	256.910	413.089	91.021	97.585	218.363	260.619	95.215	100.276	102.244	107.411	350.410	103.562	-8191	255	
1208.808	1	1	0	0	0.22211	0.3086	0.14945	0.13726	0.19097	0.10988	0.28572	0.10154	0.17679	0.18006	0.1337	0.30048	0.1048	0.15005	0.10352	0.10522	-1.3729	-2.0417	-2.5042	-1.9333	-2.4833	-2.4292	-2.0458	-2.7146	-1.875	-2.1562	-2.5229	-1.9958	-2.3896	-2.2313	-1.875	-2.6083	298.112	135.657	163.506	129.653	203.136	297.121	355.037	90.269	91.263	186.884	277.604	416.754	374.478	169.271	163.694	391.508	0.00055133	0.0016855	0.00054518	397.1	9.5882e-06	6.8075e-06	424.46	144.67	3.2415e-05	3.6224e-05	152.47	50.466	45.432	17.907	2.4552e-05	21.289	0.084189	0.16027	0.044173	900.55	0.0015441	0.0017967	1007.2	331.74	0.0015617	0.0018016	1156.4	148.28	149.01	48.771	0.0016548	62.48	258.429	394.543	168.065	91.791	291.246	183.778	90.715	97.980	259.699	96.614	96.123	99.813	104.232	108.050	166.526	103.337	-8191	255	
1208.904	1	1	0	0	0.12182	0.05325	0.10437	0.15652	0.072262	0.12176	0.057218	0.054127	0.1376	0.17955	0.14161	0.15193	0.1463	0.14723	0.083205	0.1666	-1.675	-2.0667	-2.4104	-1.7896	-2.4188	-2.1979	-1.875	-2.8167	-2.1958	-2.1188	-2.65	-1.9125	-2.3667	-2.4729	-1.8438	-2.75	106.961	254.122	146.989	357.052	236.957	395.198	137.047	376.715	103.766	310.558	280.809	260.881	273.135	399.470	286.981	418.443	0.00024588	0.00095499	0.0016255	396.76	1.4911e-05	2.4697e-05	428.44	146.75	2.7258e-05	9.1935e-06	162.77	51.145	45.53	18.208	1.3133e-05	21.552	0.086816	0.16364	0.045029	913.82	0.0015819	0.0018211	1013.6	336.06	0.0015813	0.0018029	1162.6	150.57	150.03	48.799	0.0016579	63.191	337.507	428.932	146.270	91.719	255.404	319.941	90.991	97.489	355.560	249.712	95.948	100.036	103.349	108.074	322.231	103.964	-8191	255	
1209.000	1	1	0	0	0.13847	0.30238	0.19026	0.15259	0.24697	0.26706	0.287	0.31315	0.12682	0.17149	0.21366	0.12639	0.13919	0.18802	0.19236	0.090061	-1.9625	-1.9271	-2.4208	-1.9042	-2.2021	-2.4771	-1.7938	-2.5979	-2.0542	-1.8438	-2.6708	-1.8771	-2.0958	-2.5208	-1.6646	-2.5812	435.674	279.428	112.384	207.633	272.838	195.635	355.666	349.414	337.072	158.726	439.569	359.413	198.976	392.816	361.943	199.834	0.00037235	0.0026627	0.00086267	402.54	3.4168e-05	2.0873e-05	430.23	145.92	1.3437e-05	3.8423e-05	158.68	50.057	45.555	17.828	3.2726e-05	20.844	0.087095	0.16315	0.045038	919.55	0.0015615	0.0017711	1002.5	330.46	0.0015106	0.0016999	1106.9	144.02	142.08	46.31	0.0015548	60.416	201.806	146.429	99.117	91.576	170.220	177.463	91.139	97.912	181.715	409.054	94.780	99.635	103.675	107.613	395.617	103.477	-8191	255	
1209.096	1	1	0	0	0.22098	0.23456	0.075705	0.32983	0.16914	0.14179	0.087364	0.30326	0.095505	0.063267	0.22036	0.18874	0.17899	0.1779	0.11735	0.19756	-1.7938	-1.725	-2.8187	-2.0146	-2.0438	-2.7313	-1.9771	-2.6646	-2.4562	-1.9458	-2.7125	-2.1917	-2.0771	-2.5771	-1.9208	-2.5417	137.131	117.844	195.592	213.038	347.605	149.092	412.940	356.933	397.941	381.243	185.046	249.951	294.332	435.069	273.864	121.065	0.00014552	0.0028405	0.00048576	398.68	1.1615e-05	1.3485e-05	427.99	144.9	9.7941e-06	2.8665e-05	156.55	49.82	44.55	17.683	2.697e-05	20.673	0.081841	0.15332	0.043088	899.47	0.001503	0.0017178	990.19	327.1	0.0014869	0.0016781	1104.8	142.4	140.67	45.76	0.001546	59.467	221.347	291.185	132.952	91.650	409.597	363.227	91.058	97.751	184.206	199.867	94.887	100.129	103.098	108.009	198.656	103.732	-8191	255	
1209.192	1	1	0	0	0.068249	0.2334	0.22017	0.21621	0.16758	0.11099	0.16126	0.093344	0.088003	0.14585	0.092664	0.35362	0.01754	0.16949	0.21533	0.13353	-1.9188	-1.8021	-2.6333	-2.0875	-2.1	-2.7708	-1.9604	-2.3417	-2.6583	-1.8438	-2.4354	-2.1125	-1.9	-2.7833	-1.95	-2.5	103.434	273.390	86.551	248.153	191.788	294.057	271.126	99.342	118.837	179.639	350.137	138.113	254.979	154.843	232.210	280.752	0.00046506	0.0033673	0.00043844	398.07	2e-05	1.742e-05	426.37	145.2	2.3154e-05	4.86e-05	159.46	49.908	45.272	17.943	1.4446e-05	21.153	0.079279	0.14846	0.042112	880.68	0.001446	0.0016674	979.14	323.53	0.0014499	0.0016573	1102.7	142.16	139.24	45.896	0.0015286	59.073	264.258	83.902	161.180	91.726	151.941	217.953	90.682	97.804	144.216	320.469	95.560	100.259	103.310	107.408	201.692	103.568	-8191	255	
1209.313	1	1	0	0	0.088501	0.23687	0.15962	0.20561	0.16867	0.067392	0.056532	0.18797	0.27	0.11284	0.22537	0.082694	0.16548	0.095424	0.075326	0.19735	-2.1562	-1.8896	-2.5792	-2.4688	-2.15	-2.6417	-2.0521	-2.3708	-2.4417	-1.875	-2.6208	-2.4021	-1.75	-2.6396	-2.0833	-2.3417	109.018	258.222	192.095	421.364	378.985	367.544	128.037	340.733	122.006	222.872	257.137	336.291	118.550	429.796	251.185	124.000	0.00035916	0.003523	0.00039537	394.62	3.7971e-05	4.4903e-05	431.16	145.12	2.1307e-05	6.2283e-06	156.99	51.608	46.14	18.258	2.2356e-05	21.646	0.076812	0.14464	0.04092	858.85	0.0013745	0.0015949	956.38	314.5	0.0013707	0.0015848	1066.6	139.89	136.66	45.784	0.0015178	59.268	282.222	178.873	117.705	91.852	364.831	229.222	91.212	97.973	214.136	170.070	93.800	100.258	103.752	107.915	150.709	103.296	-8191	255	
1209.409	1	1	0	0	0.12122	0.051659	0.28742	0.05901	0.20209	0.21709	0.12516	0.07125	0.064742	0.15469	0.13929	0.092858	0.18689	0.13658	0.13292	0.25375	-2.1167	-1.7812	-2.3458	-2.2417	-2.0125	-2.4458	-2.0896	-2.4062	-2.6625	-1.7771	-2.6771	-2.4958	-1.9833	-2.7313	-2.1646	-2.0479	83.781	119.170	98.267	363.009	404.724	100.832	337.927	306.637	361.885	255.302	407.065	130.745	283.096	98.985	174.365	315.446	0.00032485	0.00059602	0.0013119	400.93	2.3435e-05	5.0457e-05	430.02	145.4	8.8179e-06	3.7439e-05	157.21	49.747	44.792	17.901	2.8166e-05	20.392	0.077137	0.14724	0.041733	874.45	0.0014168	0.0016642	976.51	320.3	0.0014184	0.0016501	1090.3	139.75	138.15	46.021	0.0015425	58.69	239.696	110.884	410.239	92.063	152.237	225.368	90.432	97.493	165.857	217.595	95.181	100.151	103.221	107.905	96.954	103.977	-8191	255	
1209.505	1	1	0	0	0.26452	0.35679	0.16871	0.15367	0.072993	0.24	0.075667	0.16559	0.16152	0.16667	0.11902	0.09277	0.21467	0.29178	0.14955	0.10786	-2.1979	-1.8792	-2.425	-2.4625	-1.7271	-2.6396	-2.3208	-1.9813	-2.6	-2.0583	-2.3917	-2.5917	-1.9333	-2.6708	-2.2625	-1.9937	127.012	290.651	120.018	400.830	270.969	370.445	212.241	83.545	364.730	432.085	84.169	376.742	197.273	434.413	87.897	83.189	0.00053762	0.0042719	0.00028989	402.74	2.218e-05	2.9643e-05	429.05	143.68	8.9657e-06	4.5262e-06	159.58	48.514	44.605	17.757	2.4203e-05	20.47	0.079005	0.15198	0.042637	883.81	0.0014548	0.0017108	985.07	320.53	0.0014474	0.0016778	1091.6	138	137.17	45.432	0.0015133	57.432	254.482	183.396	370.247	92.219	233.086	179.290	90.870	97.480	317.393	357.047	92.958	99.243	102.889	108.021	295.511	103.835	-8191	255	
1209.601	1	1	0	0	0.15367	0.088812	0.18009	0.15961	0.40656	0.062789	0.16262	0.10926	0.059662	0.083457	0.15078	0.15359	0.16241	0.28993	0.11675	0.12962	-2.2542	-1.9021	-2.0917	-2.7	-1.7417	-2.5563	-2.3375	-1.775	-2.7021	-2.2792	-2.3667	-2.5146	-1.8917	-2.7333	-2.45	-1.9479	410.605	289.671	378.172	145.658	126.776	340.505	379.905	88.636	326.624	329.582	169.214	94.826	324.461	289.652	270.819	82.529	0.00034644	0.0030437	0.00060635	402.29	6.663e-06	2.4387e-05	431.76	144.79	4.5794e-06	6.1629e-05	154.27	48.706	44.635	17.383	1.6535e-05	20.446	0.077128	0.14757	0.041032	865.89	0.001418	0.0016689	969.7	316.56	0.0014377	0.0016595	1082.6	138.64	138.63	45.85	0.0015266	58.196	234.290	123.192	363.231	91.550	410.962	429.633	90.879	97.801	406.416	86.084	95.925	100.200	103.043	108.287	159.279	103.992	-8191	255	
1209.696	1	1	0	0	0.29212	0.14191	0.19292	0.11686	0.078317	0.30565	0.12112	0.21848	0.050889	0.17061	0.14973	0.017179	0.19629	0.18976	0.012833	0.18022	-2.2292	-1.9333	-2.1604	-2.8083	-1.8854	-2.5	-2.4271	-1.8646	-2.5979	-2.2438	-2.0604	-2.7667	-1.8687	-2.2854	-2.5375	-1.8521	175.687	320.785	410.267	192.023	257.414	322.343	323.636	411.448	165.088	102.565	369.625	248.800	319.151	86.539	247.252	80.523	0.00058101	0.0024809	0.00097878	408.58	1.2613e-05	2.8801e-05	432.95	143.22	1.4599e-05	2.746e-05	161.41	48.98	44.306	17.61	5.0402e-05	20.631	0.07986	0.15132	0.041879	882.23	0.001459	0.0016941	976.76	319.1	0.0014555	0.0016655	1080	138.92	139.49	45.849	0.0015207	58.723	275.069	100.789	142.743	91.927	373.206	373.095	90.674	97.671	269.908	310.516	94.343	100.654	102.994	108.460	409.653	103.947	-8191	255	
1209.794	1	1	0	0	0.28511	0.10081	0.071361	0.29868	0.031468	0.2083	0.1583	0.073695	0.19171	0.15651	0.11211	0.2107	0.16475	0.13716	0.22984	0.064436	-2.1875	-2.1792	-2.0312	-2.7917	-1.9979	-2.3583	-2.5729	-1.8042	-2.6854	-2.3125	-1.9438	-2.7458	-2.0208	-2.2958	-2.3958	-2.0333	327.615	307.807	254.228	106.431	129.146	236.137	88.170	127.278	385.669	368.359	320.991	134.848	433.721	430.188	85.608	316.813	0.0002234	0.0057366	0.00039574	406.6	3.2316e-05	1.8088e-05	431.94	144	2.9689e-05	2.8572e-05	151.62	48.677	45.163	17.262	2.5696e-05	20.655	0.080656	0.15223	0.041981	890.52	0.0014906	0.0017244	987.96	325.76	0.0015068	0.0017201	1110.4	143.35	143	46.536	0.0015717	60.169	259.959	317.969	150.769	91.768	335.144	340.793	90.903	97.691	283.429	286.845	96.026	100.205	102.763	108.122	270.303	103.685	-8191	255	
1209.913	1	1	0	0	0.077269	0.17191	0.11528	0.16684	0.24357	0.092878	0.07437	0.11936	0.16178	0.18192	0.086217	0.16051	0.30257	0.24132	0.35753	0.22243	-2.0521	-2.2125	-1.9333	-2.7958	-1.8875	-2.2146	-2.5875	-1.8438	-2.4313	-2.3354	-1.925	-2.8042	-1.9667	-2.2125	-2.4938	-1.875	317.260	282.682	357.495	390.784	157.566	164.360	230.104	383.930	319.110	229.755	298.070	373.727	315.851	385.533	312.110	82.158	0.00014408	0.0015863	0.0013357	407.53	1.3369e-05	2.1267e-06	428.21	143.4	1.706e-05	9.5241e-06	156.89	48.945	45.088	17.726	6.7919e-06	20.723	0.082493	0.1546	0.042978	903.04	0.0015119	0.0017298	992.79	328.79	0.0015175	0.0017176	1117.6	144.55	143.18	46.573	0.0015724	60.378	174.317	236.197	175.475	91.515	409.716	260.827	90.758	97.727	182.822	208.343	96.529	99.454	103.772	108.046	423.160	103.936	-8191	255	
1210.009	1	1	0	0	0.15661	0.060567	0.037932	0.25715	0.12397	0.084221	0.2621	0.20315	0.32528	0.12409	0.20762	0.16056	0.09597	0.18564	0.1439	0.33217	-1.9813	-2.4021	-1.7375	-2.7625	-2.1063	-2.175	-2.75	-1.7979	-2.3812	-2.3521	-1.6854	-2.7083	-2.2188	-1.8417	-2.6625	-1.9958	384.919	357.878	412.985	303.665	386.660	301.459	282.923	392.982	103.654	362.427	236.491	359.359	359.941	405.230	439.852	391.609	0.00065298	0.0026351	0.00079017	406.57	1.6605e-05	2.3533e-05	430.64	145.58	2.0086e-05	2.9197e-05	162.05	49.682	45.605	17.759	2.6137e-05	20.768	0.082142	0.15353	0.043013	905.63	0.0015071	0.00172	999.6	330.86	0.0015192	0.0017174	1135.5	146.85	144.85	47.165	0.001637	61.926	268.440	178.530	140.703	91.663	266.771	209.386	90.798	98.257	382.707	94.182	95.721	100.252	103.679	107.673	175.637	102.292	-8191	255	
1210.105	1	1	0	0	0.03558	0.22577	0.28014	0.018682	0.2008	0.061212	0.3349	0.32944	0.22309	0.14689	0.22555	0.081406	0.10699	0.1801	0.25667	0.094638	-1.9125	-2.4333	-1.7146	-2.6437	-2.2521	-2.0417	-2.6354	-2	-2.2896	-2.7042	-2.0104	-2.6208	-2.3271	-1.9396	-2.7396	-2.1417	187.464	255.044	288.111	296.883	134.825	95.322	186.302	430.065	209.207	379.584	407.771	335.929	183.096	402.242	277.848	107.702	0.0002964	0.00081979	0.0011841	409.72	1.6827e-05	2.9692e-05	434.73	145.7	2.3605e-05	3.8624e-05	164.79	50.311	45.244	17.766	7.3518e-06	21.157	0.084518	0.15868	0.045048	926.43	0.0015497	0.0017843	1020	334.15	0.0015176	0.0017231	1130.3	145.01	141.41	46.302	0.0015691	59.99	264.387	289.651	101.420	91.638	268.043	224.254	91.269	97.806	148.985	389.364	95.355	100.764	103.357	107.968	201.105	103.769	-8191	255	
1210.177	1	1	0	0	0.15474	0.05695	0.12001	0.18939	0.25746	0.21613	0.070738	0.27166	0.27336	0.26769	0.12115	0.094778	0.3251	0.11716	0.010039	0.22581	-1.8667	-2.6375	-1.7958	-2.5333	-2.3708	-1.7792	-2.6354	-2.2729	-2.1896	-2.625	-1.825	-2.3583	-2.4292	-1.8438	-2.625	-2.1333	303.429	205.580	235.664	400.653	98.272	299.843	328.017	103.375	153.494	172.870	394.752	379.725	436.935	413.481	350.629	395.578	0.00017578	0.0032428	0.00095906	402.27	2.6326e-05	2.6891e-05	428.44	147.48	4.2096e-06	5.6219e-05	155.38	50.961	45.933	18.361	1.2608e-05	21.519	0.079186	0.15016	0.042802	894.89	0.0014688	0.0017141	1003.2	331.34	0.0015035	0.0017428	1154	148.2	145.57	48.249	0.0016542	62.108	426.374	406.326	158.517	91.856	298.729	103.245	90.991	98.040	221.135	166.859	95.764	99.735	102.334	107.513	437.161	102.886	-8191	255	
1210.297	1	1	0	0	0.19066	0.1578	0.087139	0.064363	0.18172	0.19017	0.23347	0.085212	0.09601	0.22046	0.23649	0.050479	0.15334	0.20881	0.27319	0.059065	-1.3875	-2.6854	-1.8729	-2.2271	-2.5542	-1.7958	-2.6604	-2.0563	-1.8667	-2.7062	-1.7708	-2.175	-2.5146	-1.7563	-2.5854	-2.075	343.545	406.508	102.423	357.096	303.991	257.872	151.211	164.465	140.448	393.269	248.544	411.203	424.207	80.568	228.181	325.214	0.00055121	0.0011454	6.4165e-05	403.77	1.4658e-05	3.1184e-05	432.91	147.86	2.0562e-05	1.2549e-05	160.91	53.197	47.639	18.785	4.4334e-05	22.263	0.083034	0.1587	0.044725	907.24	0.0015054	0.0017669	1011.2	332.42	0.0014945	0.0017434	1144.7	147.76	144.6	48.45	0.0016197	61.945	244.434	238.551	183.744	92.438	169.184	193.553	90.764	97.733	210.500	83.745	94.643	99.537	103.236	107.432	217.121	103.403	-8191	255	
1210.393	1	1	0	0	0.11312	0.18446	0.03354	0.26126	0.11414	0.23106	0.075576	0.25219	0.058943	0.02086	0.3159	0.21112	0.23534	0.15984	0.11826	0.15201	-1.3062	-2.6542	-1.925	-2.3979	-2.5417	-1.5958	-2.6813	-2.5354	-1.7188	-2.6646	-1.9646	-2.2229	-2.7354	-1.7333	-2.5687	-2.5	332.817	147.478	304.014	252.660	362.141	285.096	119.107	98.858	410.283	298.282	228.845	301.382	339.046	167.664	240.763	316.127	3.0734e-05	0.00073474	0.0011296	395.19	8.8724e-06	2.6511e-05	427.42	148.28	2.3263e-05	3.6801e-05	164.26	53.768	47.862	18.958	4.4609e-05	22.525	0.082127	0.15773	0.044088	891.41	0.0014942	0.0017618	1005.2	329.99	0.0014913	0.0017394	1139.1	147.39	145.14	48.474	0.0015962	61.64	256.232	220.077	384.653	91.653	239.542	287.993	90.879	98.392	278.179	315.278	94.245	99.828	103.643	107.080	320.331	103.613	-8191	255	
1210.489	1	1	0	0	0.079268	0.12054	0.043006	0.34018	0.15748	0.20111	0.25787	0.070927	0.15552	0.19861	0.057397	0.03155	0.17057	0.37101	0.20652	0.19768	-1.4396	-2.4917	-2.1104	-2.0875	-2.5938	-1.9438	-2.3021	-2.4146	-1.6083	-2.6104	-2.1542	-1.9979	-2.6833	-1.8292	-2.3917	-2.3208	137.403	315.844	120.453	421.463	234.643	355.050	325.376	422.192	383.128	248.322	247.981	91.309	289.850	152.456	140.449	256.960	0.00024693	0.00076668	0.0012041	397.96	3.0314e-05	7.7791e-06	432.58	148.41	1.9005e-05	1.6342e-05	164.09	54.396	48.739	19.195	2.3165e-05	22.759	0.081862	0.15634	0.043256	882.29	0.001477	0.0017183	985.44	324.23	0.001448	0.0016728	1089.9	143.29	140.8	46.965	0.0014918	59.179	253.532	82.831	218.643	92.018	353.586	145.937	91.365	97.718	167.793	423.633	94.309	99.982	103.485	107.694	348.248	103.201	-8191	255	
1210.586	1	1	0	0	0.13119	0.28246	0.13787	0.10329	0.089512	0.2302	0.17604	0.030935	0.082654	0.13494	0.085051	0.090226	0.074247	0.44738	0.14793	0.062088	-1.2938	-2.3792	-2.0833	-2.0187	-2.6625	-1.8833	-2.4188	-2.5687	-1.7833	-2.4604	-2.3104	-1.875	-2.6979	-2.025	-2.0833	-2.3875	363.712	118.664	227.649	193.139	133.140	427.923	305.974	318.862	395.142	410.599	161.389	268.293	99.521	140.048	324.107	401.452	9.6924e-05	0.001993	0.00072992	392.18	3.8133e-05	1.7383e-05	425.87	147.32	2.2068e-05	4.3993e-05	161.25	52.843	47.149	18.731	1.6247e-05	22.259	0.077065	0.1459	0.040107	849.43	0.0014013	0.0016199	947.21	313.56	0.0013862	0.0015825	1033.6	137.86	136.15	45.051	0.0014067	56.961	209.622	206.132	339.499	92.060	309.554	283.399	90.893	97.146	312.395	224.392	95.929	99.816	103.795	107.121	376.969	104.409	-8191	255	
1210.705	1	1	0	0	0.30297	0.17106	0.46121	0.090367	0.2842	0.16009	0.13989	0.18637	0.29004	0.17795	0.11569	0.04117	0.055985	0.15241	0.17213	0.15168	-1.3208	-2.2833	-2.2583	-1.8083	-2.5104	-2.0646	-2.1104	-2.5854	-1.7521	-2.3354	-2.3958	-1.9667	-2.5687	-1.9937	-2.1417	-2.6104	397.420	354.588	428.166	423.198	397.385	248.299	413.916	407.078	141.547	229.308	116.196	342.598	153.734	366.354	398.987	245.978	0.00041691	0.0031156	0.0002424	398.92	4.3542e-05	3.2566e-05	425.38	147.21	2.0629e-05	7.9446e-06	156.14	52.358	46.941	18.602	1.7228e-05	21.713	0.073398	0.13794	0.037662	828.79	0.001326	0.0015235	916.28	305.89	0.0013258	0.0015118	996.61	135.58	133.8	44.338	0.0013924	56.973	246.664	301.179	221.488	92.067	296.190	101.029	90.199	98.204	275.435	202.179	96.422	100.473	103.121	108.170	406.684	103.323	-8191	255	
1210.801	1	1	0	0	0.24951	0.0096156	0.31442	0.25162	0.027346	0.071939	0.12096	0.090046	0.14031	0.1461	0.14768	0.34398	0.19249	0.080117	0.13248	0.23572	-1.3583	-2.4188	-2.3063	-1.8771	-2.4979	-2.2313	-2.1104	-2.6875	-1.9312	-2.5646	-2.4542	-1.9042	-2.7	-2.175	-1.7917	-2.5563	172.937	181.992	99.905	248.659	373.006	343.527	199.404	175.948	331.536	376.189	368.763	384.086	427.623	427.598	144.890	321.158	0.00025582	0.00076417	0.0001288	404.18	1.7941e-05	2.7689e-05	429.85	146.7	1.952e-05	1.0946e-05	156.68	50.693	46.709	18.029	1.53e-05	21.617	0.073768	0.13853	0.038316	847.53	0.001355	0.0015565	937.49	313.04	0.0013737	0.0015655	1035.7	138.41	136.89	44.881	0.001461	58.271	262.956	415.110	299.346	91.581	235.311	212.245	90.700	98.060	290.524	322.797	94.964	100.203	103.492	108.153	381.978	104.011	-8191	255	
#DATA ENDS
