BOXY.EXE: ISS Imagent and Oximeter Data Acquisition Program Version 0.80
Ascii Record File

#ACQ INFORMATION
2  Detector Channels 
16  External MUX Channels 
1  Auxiliary Channels 
5000  Waveform (CCF) Frequency (Hz)
1  Waveforms Skipped 
30  Waveforms Averaged 
1  Cycles Averaged 
16  Acquisitions per Waveform 
10.0806  Updata Rate (Hz) 

#FILE INFORMATION
TRUE -- External MUX Channel results are PARSED.
FALSE -- AC DC and Phase are NOT grouped.
TRUE -- Companion Program Settings File CREATED.
FALSE -- AC data not excluded
FALSE -- DC data not excluded
FALSE -- Phase data not excluded
FALSE -- Auxillary Chn. data not excluded
Tab delimiters

#CALIBRATION STATE
TRUE -- Waveform Calibration Values APPLIED.


#AUX CALIBRATION VALUES
Val Type	aux-1	

Term	1.0000e+00	
Factor	0.0000e+00	


#WF CALIBRATION VALUES
A = Detector Channel
Val Type	A-AC1	A-AC2	A-AC3	A-AC4	A-AC5	A-AC6	A-AC7	A-AC8	A-AC9	A-AC10	A-AC11	A-AC12	A-AC13	A-AC14	A-AC15	A-AC16	A-DC1	A-DC2	A-DC3	A-DC4	A-DC5	A-DC6	A-DC7	A-DC8	A-DC9	A-DC10	A-DC11	A-DC12	A-DC13	A-DC14	A-DC15	A-DC16	A-Ph1	A-Ph2	A-Ph3	A-Ph4	A-Ph5	A-Ph6	A-Ph7	A-Ph8	A-Ph9	A-Ph10	A-Ph11	A-Ph12	A-Ph13	A-Ph14	A-Ph15	A-Ph16	

Term	0.00000e+00	0.00000e+00	0.00000e+00	0.00000e+00	0.00000e+00	0.00000e+00	0.00000e+00	0.00000e+00	0.00000e+00	0.00000e+00	0.00000e+00	0.00000e+00	0.00000e+00	0.00000e+00	0.00000e+00	0.00000e+00	0.00000e+00	0.00000e+00	0.00000e+00	0.00000e+00	0.00000e+00	0.00000e+00	0.00000e+00	0.00000e+00	0.00000e+00	0.00000e+00	0.00000e+00	0.00000e+00	0.00000e+00	0.00000e+00	0.00000e+00	0.00000e+00	0.00000e+00	0.00000e+00	0.00000e+00	0.00000e+00	0.00000e+00	0.00000e+00	0.00000e+00	0.00000e+00	0.00000e+00	0.00000e+00	0.00000e+00	0.00000e+00	0.00000e+00	0.00000e+00	0.00000e+00	0.00000e+00	
Factor	1.00000e+00	1.00000e+00	1.00000e+00	1.00000e+00	1.00000e+00	1.00000e+00	1.00000e+00	1.00000e+00	1.00000e+00	1.00000e+00	1.00000e+00	1.00000e+00	1.00000e+00	1.00000e+00	1.00000e+00	1.00000e+00	1.00000e+00	1.00000e+00	1.00000e+00	1.00000e+00	1.00000e+00	1.00000e+00	1.00000e+00	1.00000e+00	1.00000e+00	1.00000e+00	1.00000e+00	1.00000e+00	1.00000e+00	1.00000e+00	1.00000e+00	1.00000e+00	X	X	X	X	X	X	X	X	X	X	X	X	X	X	X	X	

B = Detector Channel
Val Type	B-AC1	B-AC2	B-AC3	B-AC4	B-AC5	B-AC6	B-AC7	B-AC8	B-AC9	B-AC10	B-AC11	B-AC12	B-AC13	B-AC14	B-AC15	B-AC16	B-DC1	B-DC2	B-DC3	B-DC4	B-DC5	B-DC6	B-DC7	B-DC8	B-DC9	B-DC10	B-DC11	B-DC12	B-DC13	B-DC14	B-DC15	B-DC16	B-Ph1	B-Ph2	B-Ph3	B-Ph4	B-Ph5	B-Ph6	B-Ph7	B-Ph8	B-Ph9	B-Ph10	B-Ph11	B-Ph12	B-Ph13	B-Ph14	B-Ph15	B-Ph16	

Term	0.00000e+00	0.00000e+00	0.00000e+00	0.00000e+00	0.00000e+00	0.00000e+00	0.00000e+00	0.00000e+00	0.00000e+00	0.00000e+00	0.00000e+00	0.00000e+00	0.00000e+00	0.00000e+00	0.00000e+00	0.00000e+00	0.00000e+00	0.00000e+00	0.00000e+00	0.00000e+00	0.00000e+00	0.00000e+00	0.00000e+00	0.00000e+00	0.00000e+00	0.00000e+00	0.00000e+00	0.00000e+00	0.00000e+00	0.00000e+00	0.00000e+00	0.00000e+00	-2.48330e+02	-1.42001e+02	-1.28918e+02	-1.82543e+02	-9.10688e+01	-6.49576e+01	-1.59484e+02	-1.62015e+02	-1.00181e+02	-6.41897e+01	-1.73451e+02	-1.69948e+02	-1.80549e+02	-1.77176e+02	-8.75784e+01	-1.49574e+02	
Factor	5.96916e-05	1.28151e-04	4.06723e-05	1.85368e-01	1.60694e-06	1.57342e-06	1.66390e-01	4.98697e-02	1.84472e-06	1.64029e-06	1.16195e-01	2.94105e-02	3.75885e-02	8.90816e-03	1.48073e-06	1.26652e-02	2.18147e-06	2.27945e-06	6.35774e-07	9.79401e-02	2.48019e-08	2.50556e-08	8.24126e-02	2.63979e-02	2.47667e-08	2.50275e-08	5.87102e-02	1.49757e-02	1.97217e-02	4.72932e-03	2.48310e-08	6.48694e-03	X	X	X	X	X	X	X	X	X	X	X	X	X	X	X	X	



#DISTANCE SETTINGS
A = Detector Channel
A-1	A-2	A-3	A-4	A-5	A-6	A-7	A-8	A-9	A-10	A-11	A-12	A-13	A-14	A-15	A-16	

2.5000e+00	3.0000e+00	2.5000e+00	3.0000e+00	2.0000e+00	3.0000e+00	1.5000e+00	3.0000e+00	3.0000e+00	3.0000e+00	3.0000e+00	3.0000e+00	3.0000e+00	3.0000e+00	1.5000e+00	3.0000e+00	

B = Detector Channel
B-1	B-2	B-3	B-4	B-5	B-6	B-7	B-8	B-9	B-10	B-11	B-12	B-13	B-14	B-15	B-16	

1.0000e+01	1.0000e+01	1.0000e+01	1.4400e+00	1.0000e+01	1.0000e+01	1.5100e+00	1.9400e+00	1.0000e+01	1.0000e+01	1.9900e+00	2.4900e+00	2.4100e+00	2.9000e+00	1.0000e+01	2.9800e+00	




#DATA BEGINS
time	group	step	mark	flag	A-AC1	A-AC2	A-AC3	A-AC4	A-AC5	A-AC6	A-AC7	A-AC8	A-AC9	A-AC10	A-AC11	A-AC12	A-AC13	A-AC14	A-AC15	A-AC16	A-DC1	A-DC2	A-DC3	A-DC4	A-DC5	A-DC6	A-DC7	A-DC8	A-DC9	A-DC10	A-DC11	A-DC12	A-DC13	A-DC14	A-DC15	A-DC16	A-Ph1	A-Ph2	A-Ph3	A-Ph4	A-Ph5	A-Ph6	A-Ph7	A-Ph8	A-Ph9	A-Ph10	A-Ph11	A-Ph12	A-Ph13	A-Ph14	A-Ph15	A-Ph16	B-AC1	B-AC2	B-AC3	B-AC4	B-AC5	B-AC6	B-AC7	B-AC8	B-AC9	B-AC10	B-AC11	B-AC12	B-AC13	B-AC14	B-AC15	B-AC16	B-DC1	B-DC2	B-DC3	B-DC4	B-DC5	B-DC6	B-DC7	B-DC8	B-DC9	B-DC10	B-DC11	B-DC12	B-DC13	B-DC14	B-DC15	B-DC16	B-Ph1	B-Ph2	B-Ph3	B-Ph4	B-Ph5	B-Ph6	B-Ph7	B-Ph8	B-Ph9	B-Ph10	B-Ph11	B-Ph12	B-Ph13	B-Ph14	B-Ph15	B-Ph16	aux-1	digaux	

3418.747	1	1	0	768	0.27395	0.30229	0.12249	0.18686	0.22892	0.22585	0.27761	0.24426	0.10412	0.23839	0.054927	0.1579	0.1543	0.095776	0.048298	0.29436	-1.5708	-1.1	-1.9646	-1.5417	-1.4292	-2.1188	-1.5042	-1.925	-2.0042	-1.3292	-2.1854	-1.7271	-1.4312	-2.3	-1.2896	-2.1	208.113	337.426	371.022	351.567	273.640	182.036	367.696	314.325	313.216	41.471	209.300	286.955	190.791	355.508	194.040	326.781	0.0014243	0.0027021	8.6214e-05	399.9	1.2216e-05	3.2253e-05	564.47	164.94	1.891e-05	1.4735e-05	278.13	151.05	92.35	45.66	3.1243e-05	80.767	0.0059568	0.0061876	0.0017415	634.42	6.7216e-05	6.8462e-05	748.13	224.07	6.6902e-05	6.704e-05	413.03	179.82	136.46	55.312	6.6634e-05	92.567	47.670	93.934	128.695	26.723	290.701	264.998	25.388	31.622	367.832	131.958	28.465	32.437	35.319	38.443	195.862	35.690	-8191	255	
3418.844	1	1	0	0	0.18198	0.47946	0.27216	0.24638	0.097607	0.14217	0.19157	0.089672	0.21536	0.12843	0.05445	0.16205	0.051583	0.094591	0.09849	0.41922	-1.7104	-1.2833	-1.9646	-1.8833	-1.2625	-2.1708	-1.4708	-1.6229	-2.1354	-1.1812	-2.0417	-1.9354	-1.4562	-2.1292	-1.3917	-1.5917	113.395	148.289	192.464	22.018	206.378	128.814	255.675	113.818	39.773	186.493	45.540	37.928	367.399	156.709	353.366	327.780	0.0020771	0.0022204	0.00014967	404.71	1.6395e-05	2.1172e-05	574.4	164.77	2.3748e-05	2.7347e-05	282.55	152.26	92.044	46.184	2.2237e-05	81.765	0.0058786	0.0060745	0.0017019	631.91	6.5382e-05	6.6611e-05	747.18	222.68	6.4439e-05	6.489e-05	410.62	180.05	134.56	55.192	6.2186e-05	92.356	32.747	148.800	359.542	26.223	317.601	61.647	25.170	31.125	71.115	95.429	28.503	32.220	35.272	37.867	225.767	35.204	-8191	255	
3418.940	1	1	0	0	0.26575	0.066315	0.27151	0.1229	0.1778	0.017038	0.053802	0.075407	0.054287	0.17019	0.17113	0.0076746	0.12361	0.14692	0.34273	0.24105	-1.6583	-1.4417	-1.8333	-1.825	-1.1833	-2.0417	-1.5063	-1.5417	-2.1104	-1.3438	-2.0458	-2.0854	-1.2354	-2.1271	-1.5979	-1.7396	228.960	20.991	313.752	64.552	361.247	19.200	315.051	171.898	270.159	112.447	48.034	114.686	250.273	310.928	72.448	24.626	0.0017623	0.0023885	0.00017218	405.46	2.7804e-05	1.4584e-05	576.5	166.38	1.0381e-05	3.6849e-05	282.7	154.24	93.542	46.708	1.8631e-05	82.548	0.0054796	0.0056144	0.0015618	614.66	5.9923e-05	6.0808e-05	732.08	217.98	5.9015e-05	5.886e-05	399.06	178.05	131.25	54.567	5.72e-05	91.817	25.235	78.195	311.928	27.110	85.299	27.870	25.394	32.175	130.928	155.895	28.639	32.390	34.772	37.994	133.773	35.525	-8191	255	
3419.036	1	1	0	0	0.15371	0.15434	0.26612	0.14071	0.089987	0.18229	0.37998	0.11354	0.059148	0.31051	0.090907	0.22704	0.19965	0.13607	0.25231	0.53035	-1.7208	-1.1583	-1.8375	-2.0021	-1.0938	-1.9083	-1.5208	-1.3146	-2.2542	-1.3167	-1.8917	-2.0625	-1.3646	-2.1729	-1.5396	-1.3563	107.206	234.785	277.460	19.895	277.409	111.141	281.516	51.891	258.413	286.169	60.326	280.375	92.990	329.791	204.104	271.926	0.0020795	0.00109	0.00017334	410.54	2.4383e-05	1.6779e-05	577.89	167.04	2.3243e-05	1.9709e-05	286.41	154.54	93.199	47.038	2.436e-05	82.233	0.0050574	0.0052036	0.0014503	600.16	5.6061e-05	5.739e-05	725.24	215.25	5.7039e-05	5.7319e-05	395.61	178.12	130.57	54.625	5.6571e-05	91.216	14.621	74.015	159.739	26.204	227.267	133.100	25.555	32.087	192.642	294.666	28.614	32.698	34.241	38.128	77.979	35.284	-8191	255	
3419.132	1	1	0	0	0.10113	0.16545	0.14892	0.079335	0.2097	0.19181	0.23917	0.15562	0.14614	0.15866	0.055875	0.20674	0.23993	0.33231	0.14024	0.12642	-1.6437	-1.3521	-1.5354	-2.1542	-1.0688	-1.7958	-1.7188	-1.2021	-2.0146	-1.4542	-1.8	-2.0812	-1.1708	-1.9417	-1.9833	-1.4188	231.270	232.922	26.204	128.801	259.573	350.342	274.257	329.128	158.675	368.266	238.430	302.803	301.722	325.415	140.359	261.142	0.0021595	0.0007429	0.0004547	401.47	5.4382e-06	7.6354e-06	579.16	167.6	1.5032e-05	8.9642e-06	286.1	155.55	94.413	47.436	1.5735e-05	83.962	0.0050453	0.0051447	0.0014404	595.53	5.5646e-05	5.6661e-05	721.69	214.79	5.5652e-05	5.5254e-05	392.69	177.31	129.43	54.376	5.4021e-05	91.681	21.836	134.625	56.548	26.745	311.868	317.998	25.538	32.073	203.308	310.372	29.377	32.546	35.387	38.320	163.209	35.730	-8191	255	
3419.228	1	1	0	0	0.055463	0.22343	0.16046	0.083341	0.0085644	0.11717	0.12531	0.17068	0.17981	0.15037	0.27955	0.337	0.36992	0.1341	0.27469	0.08636	-1.6396	-1.4417	-1.4958	-2.025	-1.1646	-1.9354	-1.9042	-1.15	-2.0167	-1.5396	-1.4375	-2.0792	-1.1979	-1.7	-1.9833	-1.1396	215.698	163.609	298.173	259.707	325.705	285.599	263.480	96.634	42.072	94.856	317.647	293.552	370.490	317.711	46.990	155.884	0.0006387	0.00086817	0.00036314	417.02	2.892e-05	1.8527e-05	586.13	168.84	1.5053e-05	1.8437e-05	288.97	156.41	94.704	47.226	2.408e-05	84.095	0.0048727	0.0049892	0.001397	600.69	5.5458e-05	5.6446e-05	728.46	216.77	5.6736e-05	5.7029e-05	399.49	180.02	132.39	55.09	5.7721e-05	92.715	368.065	324.857	181.839	26.663	147.755	82.741	25.230	31.439	243.568	174.547	29.416	32.705	35.341	38.412	147.931	35.890	-8191	255	
3419.349	1	1	0	0	0.31244	0.37619	0.068993	0.20319	0.057296	0.19527	0.097942	0.20752	0.034411	0.15174	0.10215	0.19873	0.16905	0.043401	0.057586	0.18967	-1.7042	-1.6229	-1.2812	-2.1958	-1.3708	-1.6625	-2.1354	-1.4542	-1.9604	-1.8021	-1.2771	-2.2375	-1.625	-1.7021	-2.0604	-1.6042	260.804	113.565	297.375	156.640	86.012	82.010	302.213	307.662	309.006	148.809	229.908	343.341	238.225	206.458	85.254	360.642	0.0016724	0.00059543	0.00040706	411.45	1.2743e-05	9.7733e-06	587.51	168.18	8.4315e-06	2.5463e-05	288.59	156.22	95.178	47.274	9.2794e-06	83.145	0.0050902	0.0052531	0.0014688	611.22	5.7881e-05	5.8664e-05	738.54	220.22	5.9949e-05	6.041e-05	404.83	181.36	133.92	55.379	5.9847e-05	92.916	39.550	23.735	43.081	26.519	119.213	256.706	25.556	31.823	81.722	159.944	28.824	32.369	35.434	38.534	120.077	35.569	-8191	255	
3419.443	1	1	0	0	0.31131	0.13659	0.041749	0.1747	0.1343	0.08472	0.026542	0.16432	0.28006	0.17705	0.18614	0.16752	0.14616	0.20526	0.099196	0.23904	-1.625	-1.7479	-1.1812	-2.1437	-1.3354	-1.5542	-2.1271	-1.3188	-1.8083	-1.85	-1.2188	-2.1667	-1.5396	-1.5458	-2.0542	-1.3604	32.469	342.430	19.561	44.831	276.317	58.336	61.713	122.732	259.643	318.835	283.603	298.753	182.392	346.158	137.050	288.127	0.001384	0.00034681	0.00019129	409.99	8.4102e-06	1.0576e-05	583.89	169.07	2.9105e-05	1.7908e-05	282.79	155.15	93.488	46.942	2.8821e-05	82.233	0.0053016	0.0054782	0.0015274	618.28	5.974e-05	6.0726e-05	739.24	219.97	5.9709e-05	5.9938e-05	400.76	179.86	132.88	54.964	5.9942e-05	92.147	369.128	22.265	221.214	27.181	178.908	310.494	26.009	31.915	191.903	218.699	28.976	33.074	35.215	38.683	93.991	36.356	-8191	255	
3419.541	1	1	0	0	0.28898	0.19791	0.09871	0.21821	0.27908	0.15831	0.11183	0.19183	0.19892	0.15499	0.20573	0.22757	0.12798	0.11762	0.036192	0.21646	-1.4604	-1.9021	-1.2104	-2.1333	-1.3917	-1.4479	-1.9688	-1.2854	-1.85	-1.8813	-1.4792	-2.325	-1.6375	-1.5083	-2.4313	-1.5521	213.457	361.859	206.507	279.014	354.908	145.381	238.603	207.390	325.064	227.958	171.941	26.888	34.066	71.550	114.366	298.034	0.0013208	0.0023404	0.00036155	408.84	2.5507e-05	1.5042e-05	576.44	167.18	2.0725e-05	1.5619e-05	282.71	153.12	92.981	46.348	4.3369e-05	81.529	0.0053285	0.0055227	0.0015441	617.66	5.9841e-05	6.1162e-05	736.28	220	6.1196e-05	6.1878e-05	404.03	179.77	134.96	55.16	6.2243e-05	91.974	38.223	82.096	269.484	27.141	203.361	198.680	26.039	32.470	121.916	109.640	29.020	32.955	35.612	38.793	196.678	35.948	-8191	255	
3419.637	1	1	0	0	0.11052	0.23272	0.13946	0.19125	0.12887	0.14021	0.22624	0.084386	0.11889	0.17112	0.10038	0.11464	0.22391	0.14337	0.34421	0.33614	-1.1625	-2.0438	-1.325	-2.0021	-1.7687	-1.1708	-2.2125	-1.6292	-1.7146	-2.1729	-1.4312	-2.0583	-1.8896	-1.4479	-2.3292	-1.6083	15.080	353.314	80.065	234.382	258.511	244.372	245.279	260.580	262.590	73.412	207.530	268.663	33.086	345.768	269.655	302.794	0.0018179	0.00037102	0.00031325	402.96	1.0288e-05	1.3694e-05	576.38	167.78	1.5239e-05	2.1531e-05	286.63	154.05	93.467	46.75	1.3988e-05	82.245	0.0055167	0.005719	0.0015937	623.69	6.2051e-05	6.2418e-05	740.13	221.03	6.1493e-05	6.2065e-05	405.8	180.14	134.31	55.31	6.1846e-05	92.326	366.302	147.371	336.215	27.310	244.296	240.314	25.949	32.056	175.801	117.334	29.346	33.315	35.565	38.796	350.022	36.012	-8191	255	
3419.732	1	1	0	0	0.22816	0.38111	0.15371	0.11558	0.34436	0.25876	0.062613	0.28909	0.0063539	0.28608	0.12407	0.16112	0.20305	0.33044	0.14955	0.06025	-1.2313	-2.075	-1.4625	-1.8458	-1.9229	-1.3271	-2.2375	-1.7896	-1.5646	-2.0542	-1.4562	-1.7667	-2.2188	-1.3375	-2.2083	-1.925	64.456	219.479	334.344	281.993	337.122	43.522	315.495	274.076	272.434	181.978	165.984	338.842	140.122	368.683	229.512	338.851	0.0016538	0.0019325	0.0010634	407.32	1.6577e-05	1.8131e-05	580.22	168.92	2.465e-05	4.2289e-06	285.71	156.81	94.393	47.165	2.4199e-05	83.04	0.0054182	0.0056736	0.0015676	621.83	6.1131e-05	6.1453e-05	742.53	221.56	6.1065e-05	6.213e-05	407.75	181.57	135.13	55.625	6.189e-05	93.29	20.335	75.417	207.299	27.664	172.223	181.366	25.904	32.049	128.415	197.189	29.416	33.187	35.385	38.890	111.421	36.253	-8191	255	
3419.828	1	1	0	0	0.090615	0.26479	0.095361	0.23781	0.16515	0.17516	0.22284	0.21945	0.10274	0.144	0.063011	0.14507	0.18547	0.030645	0.10737	0.15788	-1.2437	-2.1667	-1.2729	-1.7042	-2.1542	-1.1187	-2.1458	-1.6208	-1.2375	-2.0667	-1.3	-1.6896	-2.0896	-1.1708	-1.9979	-2.025	84.110	303.135	179.464	312.733	146.891	168.987	227.028	96.377	316.971	28.231	14.496	79.543	289.128	220.569	335.279	275.775	0.00034627	0.0011258	0.00043976	410.7	1.7305e-05	1.4788e-05	586.62	169.59	2.3418e-05	2.0578e-05	285.29	156.23	93.767	46.915	7.7349e-06	82.619	0.0054214	0.0056448	0.0015625	625.63	6.1368e-05	6.2121e-05	749.13	222.84	6.1996e-05	6.2958e-05	409.8	182.46	135.79	55.71	6.3503e-05	93.358	23.669	63.852	124.056	26.965	264.932	338.536	26.213	31.845	239.052	138.392	29.607	33.235	35.686	38.615	58.166	36.327	-8191	255	
3419.924	1	1	0	0	0.14481	0.15887	0.028563	0.26134	0.15451	0.096099	0.20154	0.068242	0.18751	0.07142	0.28164	0.21065	0.20754	0.25734	0.089859	0.19071	-0.78542	-2.0583	-1.4667	-1.6354	-1.9396	-0.92083	-1.8438	-1.5646	-1.1917	-2.0708	-1.65	-1.3458	-2.0875	-1.5	-1.7125	-2.1188	258.599	213.151	85.787	286.980	281.765	222.443	30.433	278.221	127.059	329.563	347.042	307.880	228.574	363.819	119.625	310.278	0.0016515	0.0017687	0.00060982	410.03	1.2827e-05	2.2926e-05	577.11	166.32	1.5552e-05	2.3862e-05	282.89	152.84	92.603	45.795	2.3391e-05	81.054	0.0056641	0.0059095	0.001637	629.19	6.4251e-05	6.458e-05	748.58	223.61	6.4058e-05	6.5487e-05	412.18	181.16	136.68	55.492	6.5977e-05	92.366	25.276	125.658	366.999	27.374	244.906	135.832	25.655	31.828	64.654	149.666	28.941	33.003	35.538	38.634	167.325	35.850	-8191	255	
3420.045	1	1	0	0	0.16803	0.234	0.075615	0.089698	0.13161	0.13584	0.20425	0.063623	0.16358	0.012307	0.079241	0.17006	0.30134	0.28924	0.14457	0.050013	-0.86458	-1.8646	-1.4042	-1.4958	-1.9312	-1.3167	-1.8771	-2.2313	-1.4021	-2.0271	-1.6354	-1.3479	-2.2479	-1.3583	-1.8188	-2.1417	113.669	268.010	170.350	235.024	230.255	292.023	274.884	144.303	106.554	135.422	226.884	220.547	342.443	340.926	251.610	305.070	0.0012944	0.00024678	0.00033502	401.65	1.4995e-05	1.9365e-05	565.11	165.24	1.9014e-05	1.487e-05	279.61	149.84	92.48	45.709	4.5271e-05	80.059	0.005836	0.0061364	0.0017019	639.28	6.7326e-05	6.7907e-05	751.45	226.24	6.7471e-05	6.88e-05	412.88	179.86	137.7	55.22	6.6299e-05	91.827	358.468	143.160	230.148	26.630	154.675	212.232	25.923	32.011	148.586	308.584	29.669	33.543	35.370	38.747	127.170	36.234	-8191	255	
3420.141	1	1	0	0	0.28178	0.22602	0.1291	0.064331	0.17703	0.14635	0.34222	0.30404	0.14681	0.13285	0.10016	0.078272	0.1647	0.2089	0.24479	0.41869	-0.83333	-1.9271	-1.8271	-1.2396	-1.9813	-1.4438	-1.5583	-2.0646	-1.2167	-2.1	-1.8125	-1.2938	-2.2896	-1.5646	-1.4729	-2.1542	163.794	236.809	24.930	227.010	220.213	111.595	284.829	315.688	267.697	108.438	269.848	304.599	277.872	329.479	309.618	319.252	0.0016641	0.00046443	0.00061767	404.03	2.4291e-05	4.4725e-06	565.46	165.02	1.0464e-05	1.3757e-05	276.51	150.53	92.155	45.322	2.5791e-05	80.486	0.0058618	0.0061213	0.0016954	638.49	6.7046e-05	6.7087e-05	748.6	225.58	6.7591e-05	6.8902e-05	417.33	181.27	139.62	55.732	6.9725e-05	93.137	18.485	167.676	28.084	26.615	142.732	242.253	25.856	31.564	184.205	372.562	29.297	33.183	34.934	38.884	156.939	36.229	-8191	255	
3420.237	1	1	0	0	0.069056	0.22986	0.17601	0.35576	0.22954	0.10788	0.17547	0.28533	0.32486	0.3062	0.1717	0.24263	0.15989	0.044368	0.43937	0.13822	-0.85	-2.0604	-1.7146	-1.2625	-2.2687	-1.5187	-1.6104	-2.2896	-1.2521	-1.8604	-1.8583	-1.3687	-2.1958	-1.7479	-1.3354	-2.2396	280.342	290.813	92.984	291.249	288.644	114.141	139.284	282.612	87.381	122.559	196.056	300.856	278.818	294.355	248.048	302.823	0.0032358	0.0030466	0.00047911	403.73	9.1338e-06	5.9272e-06	569.89	165.92	3.0267e-05	6.8697e-06	279.67	152.85	93.974	45.633	1.1281e-05	81.116	0.0062066	0.006482	0.0018059	653.54	7.1149e-05	7.1435e-05	762.67	230.62	7.0414e-05	7.1639e-05	424.4	184.29	141.75	56.187	7.1178e-05	94.284	42.103	372.907	130.660	27.118	108.086	105.886	26.114	32.034	124.639	230.433	30.343	33.236	35.544	38.663	87.173	35.530	-8191	255	
3420.309	1	1	0	0	0.36974	0.18096	0.15997	0.029886	0.33756	0.21183	0.21767	0.086387	0.11607	0.098451	0.075295	0.1649	0.071296	0.13707	0.16714	0.20591	-0.85417	-1.7458	-1.9729	-1.1187	-1.9	-1.4875	-1.4521	-1.9937	-1.3312	-1.7771	-1.9417	-1.4083	-2.0771	-1.8958	-1.375	-2.25	158.122	139.934	288.058	205.414	27.849	163.855	294.113	219.472	319.633	64.788	188.035	260.686	302.440	336.171	219.460	173.353	0.0010199	0.0019013	0.00043231	403.24	4.1248e-05	2.1741e-05	571.34	165.41	3.2426e-05	2.7667e-06	280.28	152.08	92.517	45.855	1.641e-05	80.847	0.0062801	0.0066025	0.0018527	658.98	7.2747e-05	7.317e-05	770.29	232.75	7.1753e-05	7.3377e-05	430.45	184.82	142.07	56.44	7.2214e-05	94.067	369.625	338.742	98.775	26.087	125.678	96.368	25.029	31.311	290.210	183.238	28.052	32.351	34.552	38.187	110.676	35.198	-8191	255	
3420.429	1	1	0	0	0.055205	0.24318	0.085435	0.21551	0.16865	0.2266	0.18597	0.22359	0.26008	0.16979	0.19341	0.24342	0.070279	0.32375	0.23386	0.20082	-0.79167	-1.5917	-1.8729	-1.3563	-2.1188	-1.6688	-1.3917	-2.1979	-1.4188	-1.5646	-2.1875	-1.2687	-1.8458	-2.1417	-1.2313	-2.0479	332.869	94.155	214.827	151.575	173.374	177.158	345.870	288.909	297.776	127.134	265.963	266.253	351.740	343.777	302.706	310.988	0.0022644	0.00088032	0.00018551	401.34	2.609e-05	1.3533e-05	562.5	165.9	2.7563e-05	1.5886e-05	274.54	149.03	91.923	45.056	9.9813e-06	79.062	0.0063544	0.0067067	0.0018822	661.97	7.4043e-05	7.4189e-05	769.65	232.58	7.3454e-05	7.4519e-05	429.28	183.03	142.9	56.368	7.4906e-05	93.36	44.157	186.932	61.148	27.346	158.937	80.818	25.897	32.529	145.784	141.630	29.000	32.784	35.712	38.356	207.988	35.594	-8191	255	
3420.524	1	1	0	0	0.075474	0.18534	0.030784	0.22265	0.19067	0.32767	0.31216	0.18987	0.21724	0.42424	0.18033	0.2482	0.27819	0.35823	0.34808	0.24101	-1.1812	-1.2729	-2.05	-1.2917	-1.8542	-1.9312	-1.3937	-2.2333	-1.6187	-1.7437	-2.2708	-1.3292	-1.625	-2.0729	-1.2083	-2.1208	44.773	45.710	361.368	257.785	90.364	51.153	322.809	361.521	256.243	256.512	251.832	319.639	283.081	21.541	63.351	252.045	0.0010985	0.00077365	0.00085493	394.83	2.0318e-05	1.6176e-05	555.64	162.81	2.0706e-05	1.0315e-05	272.18	148.03	91.093	44.926	2.1589e-05	78.616	0.0066587	0.0069663	0.0019527	669.77	7.642e-05	7.739e-05	774.86	235	7.7595e-05	7.9192e-05	439.48	184.72	145.28	56.855	7.822e-05	93.863	19.097	127.009	320.998	25.896	116.442	321.699	25.454	31.533	306.730	270.181	27.996	32.273	34.432	37.780	90.720	35.209	-8191	255	
3420.622	1	1	0	0	0.30139	0.12957	0.025381	0.1013	0.15492	0.20083	0.27308	0.10939	0.23812	0.083277	0.11984	0.28854	0.10273	0.44699	0.22023	0.10001	-1.3646	-1.3375	-2.0875	-1.2875	-1.4896	-2.0792	-1.2479	-1.9375	-1.5708	-1.3542	-2.1417	-1.4646	-1.5812	-2.1979	-1.4	-2.2625	292.657	329.977	243.688	136.359	152.219	200.951	278.901	347.063	231.989	344.822	166.674	324.609	274.709	360.125	324.036	330.065	0.0019195	0.00032141	0.00079648	396.94	3.7362e-05	1.6654e-05	562	165.81	1.2058e-05	3.7962e-06	277.49	147.69	90.43	44.477	2.208e-05	78.369	0.006886	0.0071618	0.0020022	672.96	7.7346e-05	7.7963e-05	775.83	235.61	7.7956e-05	7.9682e-05	443.48	185.75	147.59	57.478	8.2282e-05	95.114	25.741	217.253	25.506	25.539	178.220	47.473	25.189	31.281	171.122	264.937	28.423	32.121	34.503	37.902	32.134	35.400	-8191	255	
3420.740	1	1	0	0	0.078947	0.031423	0.13422	0.11647	0.21129	0.15558	0.069435	0.30367	0.17123	0.34932	0.30445	0.1025	0.43327	0.074231	0.17266	0.39923	-1.3708	-1.3563	-1.9958	-1.3375	-1.5562	-2.2521	-1.3146	-1.9458	-1.7083	-1.1313	-2.0187	-1.4813	-1.5688	-2.3146	-1.2542	-1.8417	61.572	307.137	194.901	48.063	31.324	89.612	330.636	315.183	45.316	140.337	278.047	153.467	333.444	87.802	145.407	255.987	0.0013946	0.0030213	0.00046004	398.35	2.1114e-05	1.4376e-05	560.01	162.79	2.6983e-05	1.6873e-05	274.09	146.85	90.65	44.585	3.5304e-05	78.461	0.0074123	0.0077397	0.0021801	700.98	8.5626e-05	8.663e-05	801.08	243.29	8.5103e-05	8.5793e-05	455.12	188.41	150.64	58.017	8.5665e-05	96.048	354.381	117.705	333.300	25.976	42.008	325.814	24.288	31.314	127.159	201.127	28.410	32.217	33.945	38.021	147.488	35.311	-8191	255	
3420.837	1	1	0	0	0.45056	0.28365	0.17181	0.29496	0.14652	0.14055	0.027419	0.20672	0.17795	0.24995	0.20651	0.24384	0.26053	0.18995	0.20772	0.22839	-1.5271	-1.25	-1.9688	-1.6479	-1.3354	-2.0104	-1.5479	-1.8125	-1.9875	-1.2062	-2.0479	-1.8271	-1.5167	-2.4333	-1.5042	-1.9104	303.844	114.045	311.720	264.861	338.531	369.541	99.377	337.565	79.915	304.901	310.449	24.619	34.842	52.306	154.505	346.148	0.0016137	0.0003598	0.00065502	396.13	2.3045e-05	1.8413e-05	553	162.41	8.9102e-06	1.3062e-05	274.37	147.43	91.212	44.353	1.1822e-05	78.59	0.0076807	0.0080177	0.0022645	713.23	8.7769e-05	8.9038e-05	807.03	244.87	8.7236e-05	8.7323e-05	458.17	188.79	150.38	57.684	8.3565e-05	95.023	330.518	239.989	61.835	26.218	220.617	154.179	25.131	31.106	192.280	67.204	29.651	32.351	34.798	38.469	213.607	35.786	-8191	255	
3420.908	1	1	0	0	0.26276	0.21959	0.2204	0.28326	0.13075	0.092204	0.22314	0.30776	0.16251	0.19381	0.12924	0.30344	0.19658	0.10874	0.12268	0.20384	-1.5042	-1.4167	-2.1042	-1.7833	-1.2083	-2.1021	-1.6812	-1.7229	-2.025	-1.2625	-1.9458	-1.8729	-1.1583	-2.2375	-1.4146	-1.5729	175.562	293.427	342.586	276.768	58.852	114.241	361.718	360.283	67.316	17.601	50.529	303.668	39.207	130.790	323.280	352.053	0.0015574	0.0017559	5.7335e-05	398.04	5.7263e-06	2.4873e-05	558.36	162.88	1.4228e-05	4.9916e-05	276.68	147.92	90.001	44.469	2.6678e-05	78.03	0.0073668	0.0075487	0.0021026	694.57	8.1941e-05	8.3721e-05	788.99	240.34	8.2753e-05	8.3513e-05	447.9	186.89	148.08	57.465	8.293e-05	94.649	64.939	85.245	112.901	26.323	332.078	207.874	25.564	32.234	253.311	154.588	29.349	32.150	34.554	38.157	132.466	35.309	-8191	255	
3421.029	1	1	0	0	0.21667	0.20722	0.32744	0.19595	0.35304	0.2158	0.097419	0.13947	0.16754	0.19108	0.28936	0.32454	0.14631	0.27522	0.13619	0.159	-1.7313	-1.3375	-1.9292	-1.7896	-1.1417	-2.1333	-1.6708	-1.4917	-2.0521	-1.2396	-1.9708	-1.7958	-1.3042	-2.1625	-1.5917	-1.4688	53.985	167.096	323.502	335.024	109.728	331.023	299.022	219.315	64.162	154.845	257.744	372.535	106.923	348.121	316.797	311.661	0.0017887	0.0021121	0.00021527	395.59	2.977e-05	3.3273e-05	553.96	163	2.1506e-05	3.9874e-05	274.11	147.22	90.8	44.432	2.9514e-05	78.367	0.0073728	0.0075582	0.0021406	692.66	8.2404e-05	8.353e-05	787.4	238.35	8.167e-05	8.1615e-05	441.6	184.91	145.73	56.822	7.9253e-05	93.699	28.909	143.338	63.276	25.689	132.185	66.517	24.944	31.451	199.209	172.993	29.137	32.541	34.705	37.977	168.647	35.415	-8191	255	
3421.125	1	1	0	0	0.066468	0.019658	0.20606	0.32361	0.1652	0.27316	0.16738	0.22428	0.26644	0.05079	0.2202	0.11079	0.21171	0.12579	0.13938	0.1629	-1.8312	-1.3396	-1.7979	-2.1479	-1.1583	-2.1042	-1.7042	-1.3146	-2.0146	-1.3896	-1.7229	-2.1104	-1.4229	-2.2	-1.6396	-1.4604	46.397	154.070	184.090	164.463	156.169	329.347	239.075	196.315	87.255	154.575	29.526	361.288	321.331	332.057	17.202	344.715	0.0019806	0.00089455	0.00012189	400.99	1.5327e-06	3.2515e-05	557.8	164.66	2.4366e-05	3.2869e-05	278.05	151.02	91.593	45.411	6.5342e-06	80.653	0.0070065	0.0071743	0.0020141	680.3	7.8001e-05	7.8923e-05	778.72	235.49	7.7005e-05	7.6819e-05	436.65	185.84	143.29	56.842	7.514e-05	94.422	364.315	68.843	202.481	26.489	348.654	194.846	26.012	31.610	298.014	193.206	29.293	32.520	34.298	38.240	310.340	35.392	-8191	255	
3421.221	1	1	0	0	0.27461	0.17377	0.099115	0.26445	0.25435	0.36326	0.1626	0.2671	0.13876	0.28201	0.1928	0.33118	0.16999	0.10761	0.17187	0.14817	-1.6	-1.5792	-1.6354	-1.9021	-1.3625	-1.8979	-1.8937	-1.375	-1.9438	-1.4167	-1.3	-2.2125	-1.2313	-1.8625	-1.9292	-1.3292	80.974	228.316	190.865	118.066	27.860	109.140	30.849	309.834	14.904	115.875	260.229	360.716	251.308	301.540	142.874	298.424	0.0020871	0.00080331	0.00039337	405.52	2.9366e-05	1.3986e-05	570.86	165.32	1.4393e-05	2.3735e-05	281.96	152.42	92.676	45.916	1.7332e-05	80.958	0.0066857	0.0068694	0.0019324	670.93	7.4808e-05	7.5778e-05	777.33	233.91	7.4908e-05	7.5011e-05	435.61	186.73	143.21	57.067	7.5459e-05	94.863	30.762	348.683	215.792	27.189	248.082	354.680	25.157	32.150	146.013	144.663	29.136	32.362	34.793	38.696	207.705	35.659	-8191	255	
3421.342	1	1	0	0	0.25274	0.0886	0.017292	0.32782	0.43324	0.25058	0.17868	0.25987	0.10621	0.085823	0.12347	0.14073	0.13651	0.36489	0.11658	0.28228	-1.7563	-1.4042	-1.4813	-2.2625	-1.2542	-1.7583	-1.9937	-1.2417	-1.9875	-1.5021	-1.6146	-2.0625	-1.3625	-1.8188	-1.9125	-1.2771	96.570	76.068	231.337	320.640	213.513	222.585	245.342	351.945	141.097	225.657	30.964	214.476	281.420	332.018	154.596	310.711	0.0017314	0.0021538	0.00044096	399.99	4.1282e-06	2.164e-05	568.57	164.85	1.2336e-05	6.7286e-06	280.38	151.48	92.147	45.347	1.3241e-05	79.408	0.0066939	0.0069556	0.0019479	672.56	7.4757e-05	7.6009e-05	773.89	232.75	7.411e-05	7.3979e-05	430.88	184.22	141.92	56.269	7.3853e-05	93.083	60.836	125.638	58.950	26.332	309.869	97.297	25.490	31.887	81.977	305.154	30.068	32.423	34.545	38.221	70.695	35.748	-8191	255	
3421.438	1	1	0	0	0.16966	0.14104	0.15971	0.1194	0.13554	0.087807	0.18368	0.24067	0.14208	0.10089	0.1591	0.24488	0.24303	0.21403	0.25372	0.15618	-1.6125	-1.6833	-1.2771	-2.1437	-1.2938	-1.55	-2.1562	-1.2604	-1.8375	-1.6875	-1.4375	-2.2771	-1.4438	-1.6688	-2.0083	-1.2083	114.119	312.494	222.080	166.181	332.120	351.516	250.487	277.915	196.930	53.538	18.366	336.581	70.741	364.125	28.906	306.655	0.0014032	0.0011355	0.00056499	404.3	2.0159e-05	2.1276e-05	558.55	165.18	2.8129e-05	2.0911e-05	276.85	148.51	90.005	44.878	2.1822e-05	78.528	0.0065338	0.0067392	0.0018978	666.98	7.4158e-05	7.4992e-05	766.93	232	7.4378e-05	7.544e-05	428.99	183.44	142.48	56.318	7.5697e-05	92.699	362.659	61.471	74.704	26.922	223.737	108.313	25.781	31.369	349.774	102.419	29.105	33.040	34.231	37.748	130.641	35.188	-8191	255	
3421.532	1	1	0	0	0.25589	0.3546	0.13623	0.22109	0.19168	0.051369	0.040728	0.13582	0.083125	0.058697	0.14796	0.2661	0.20448	0.080784	0.14045	0.097346	-1.5229	-1.8521	-1.2583	-2.0479	-1.4229	-1.5063	-2.1437	-1.3708	-1.7833	-1.9104	-1.4208	-1.9479	-1.65	-1.4083	-1.8771	-1.4229	115.919	197.233	60.035	204.458	79.360	322.796	363.093	57.771	38.721	360.083	160.692	315.522	317.238	294.418	280.017	209.745	0.0019046	0.0014909	0.0002018	395.14	1.9486e-05	1.9108e-05	551.2	163.93	2.4882e-05	1.0025e-05	274.64	146.87	90.943	44.563	7.7029e-06	78.61	0.0066921	0.0069132	0.0019293	666.37	7.5398e-05	7.6529e-05	768.61	232.69	7.5712e-05	7.6352e-05	429.66	182.65	142.03	56.184	7.5909e-05	92.721	341.149	362.710	251.062	26.168	26.368	163.173	25.094	30.763	229.508	300.132	28.485	32.139	34.229	37.518	344.421	35.033	-8191	255	
3421.606	1	1	0	0	0.25825	0.13455	0.14025	0.17718	0.093881	0.25251	0.2676	0.29731	0.15138	0.20291	0.13808	0.22939	0.4135	0.20734	0.14255	0.21175	-1.3875	-1.9729	-1.3646	-1.9375	-1.4979	-1.2979	-2.1583	-1.3542	-1.7396	-1.8729	-1.3312	-2.0771	-1.7146	-1.2417	-2.1646	-1.4854	236.615	350.284	172.359	290.656	60.911	301.594	138.291	290.441	168.881	27.652	77.833	328.715	41.092	266.578	77.307	335.231	0.0016151	0.0026609	0.00073997	397.51	4.4275e-06	4.3501e-06	558.73	163.19	9.4913e-06	3.226e-05	275.46	148.39	91.121	44.929	1.0952e-05	78.761	0.0067406	0.0069966	0.0019548	674.6	7.6982e-05	7.8062e-05	776.02	234.11	7.8038e-05	7.889e-05	435.6	184.93	145.56	56.865	7.8905e-05	94.035	24.125	320.541	138.296	25.364	367.103	160.792	24.755	30.678	92.986	250.570	28.528	32.231	34.331	37.864	283.241	34.828	-8191	255	
3421.725	1	1	0	0	0.3013	0.076463	0.091744	0.15501	0.14858	0.1081	0.18557	0.20037	0.21948	0.22677	0.26455	0.1802	0.13217	0.051873	0.19259	0.22657	-1.1479	-1.9375	-1.1833	-1.8333	-1.6604	-1.2687	-2.1562	-1.425	-1.5312	-2.0458	-1.3021	-1.8229	-1.7271	-1.225	-2.0812	-1.6104	223.318	151.524	356.714	278.231	320.431	76.970	313.020	358.765	186.462	111.656	37.732	342.336	84.163	152.910	135.934	309.708	0.0015059	0.002817	0.00023821	403.98	1.8553e-05	2.078e-05	555.31	164.06	1.0729e-05	3.2202e-05	272.32	149.46	91.793	45.271	3.3368e-05	79.178	0.0069245	0.00716	0.0019836	682.01	7.7795e-05	7.8384e-05	779.28	235.4	7.779e-05	7.8583e-05	437.48	186.72	145.79	57.017	7.8202e-05	94.212	40.576	100.151	263.549	26.038	101.018	93.246	25.180	31.259	331.927	247.318	28.249	31.985	33.788	37.480	129.165	34.958	-8191	255	
3421.821	1	1	0	0	0.12627	0.2802	0.057786	0.058399	0.1353	0.0783	0.16915	0.24284	0.23174	0.17726	0.056426	0.42522	0.13721	0.124	0.109	0.2798	-0.92708	-2.1271	-1.1625	-1.8417	-1.7917	-1.1437	-2.1042	-1.6146	-1.5167	-2.1813	-1.2687	-1.7062	-1.9	-1.2167	-2	-1.7229	251.789	59.526	144.381	272.909	16.879	257.699	59.210	53.883	227.359	119.444	325.231	334.858	172.288	184.270	364.858	326.635	0.0031816	0.001254	0.00015192	400.78	9.4408e-06	1.9025e-05	562.4	163.67	2.3142e-05	2.3226e-05	276.28	149.37	90.785	44.81	1.1199e-05	78.96	0.0068672	0.0071637	0.0019813	677.33	7.7726e-05	7.8074e-05	781.2	234.57	7.7049e-05	7.8429e-05	435.9	185.17	144.21	56.53	7.6558e-05	93.464	33.649	142.467	323.688	25.588	96.225	285.346	24.646	30.907	213.059	193.035	28.524	31.597	33.637	37.832	68.470	34.738	-8191	255	
3421.917	1	1	0	0	0.043572	0.057307	0.19762	0.15582	0.13635	0.24428	0.06471	0.19868	0.19042	0.26862	0.1364	0.096571	0.19658	0.10003	0.1287	0.08411	-0.92917	-2.0417	-1.2771	-1.7958	-2.0896	-1.3479	-1.9917	-1.8542	-1.1292	-2.1604	-1.5875	-1.7833	-1.875	-1.25	-1.8937	-1.9	280.605	335.763	300.637	109.281	93.673	272.842	335.545	317.369	168.539	261.004	125.984	27.476	15.896	41.902	161.550	87.634	0.0022133	0.0017399	0.00024452	397.34	8.2985e-06	1.9303e-05	557.74	162.15	1.8825e-05	2.1983e-05	272.3	147.61	90.73	43.938	1.7331e-05	77.336	0.0067456	0.0070683	0.0019421	674.97	7.6664e-05	7.7262e-05	771.06	232.73	7.6909e-05	7.8405e-05	432.59	183.2	144.5	56.233	7.8939e-05	92.937	14.641	96.664	46.374	25.871	160.638	284.447	25.053	30.766	107.603	349.992	27.687	31.648	33.967	37.531	177.724	35.015	-8191	255	
3422.013	1	1	0	0	0.21959	0.17448	0.078213	0.2288	0.13398	0.17569	0.035149	0.11716	0.32046	0.12615	0.1637	0.11963	0.20676	0.26927	0.062642	0.068853	-0.75833	-2.0896	-1.5396	-1.6375	-2.1167	-1.1812	-1.9042	-1.8312	-1.1396	-2.3208	-1.4688	-1.5604	-2.2188	-1.3813	-1.6187	-1.9083	93.738	92.980	227.076	314.090	197.086	340.761	229.789	102.252	271.158	38.524	70.931	304.133	225.929	333.844	168.685	105.680	0.001418	0.00080169	0.00020201	395.31	1.4115e-05	6.9992e-06	550.36	160.54	2.529e-05	6.5179e-06	269.43	146.51	90.008	44.328	2.4072e-05	78.285	0.0069384	0.0073012	0.0020289	680.58	7.9705e-05	7.9799e-05	777.88	235.52	7.9402e-05	8.0921e-05	435.93	183.77	145.35	56.174	7.8479e-05	93.367	18.353	76.483	168.726	26.220	64.175	167.640	24.604	30.562	329.498	148.741	27.844	31.607	34.230	37.407	316.958	35.012	-8191	255	
3422.134	1	1	0	0	0.060071	0.1705	0.043578	0.23843	0.21131	0.29774	0.17096	0.29742	0.2502	0.13345	0.22905	0.10007	0.16389	0.095415	0.1126	0.23107	-0.71875	-2.1396	-1.4312	-1.4417	-2.2208	-1.3687	-1.8167	-1.9667	-1.1979	-2.0479	-1.5042	-1.6417	-2.1813	-1.2875	-1.6104	-2.0646	190.491	36.958	72.991	19.530	348.589	34.920	164.171	75.450	74.559	276.563	41.684	168.278	369.145	92.085	312.583	332.234	0.0032881	0.0023131	0.00048276	400.5	1.9718e-05	3.8881e-05	557.34	164.48	1.3296e-05	1.9027e-05	272.57	148.44	90.906	44.917	1.4673e-05	79.201	0.0068204	0.0071211	0.0019787	675.62	7.7652e-05	7.7537e-05	775.21	235.41	7.779e-05	7.9463e-05	440.23	185.8	146.23	56.978	7.9961e-05	94.742	14.420	47.858	182.409	25.967	127.121	190.998	24.512	30.886	153.864	154.491	27.873	31.937	34.291	37.748	357.437	34.704	-8191	255	
3422.205	1	1	0	0	0.16291	0.11159	0.016679	0.30715	0.19393	0.36069	0.25518	0.17206	0.1108	0.10602	0.13679	0.32041	0.17717	0.30572	0.35559	0.17195	-0.8	-1.9333	-1.6646	-1.3604	-2.0854	-1.4813	-1.6458	-2.0917	-1.0333	-1.8687	-1.7917	-1.4125	-2.0354	-1.5854	-1.5646	-2.2458	235.186	119.603	233.803	348.760	331.398	111.881	199.329	136.848	174.865	272.630	168.815	337.389	331.978	362.130	298.712	367.354	0.0019557	0.0019582	0.00059498	397.56	1.9455e-05	1.4305e-05	556.77	165.15	4.0289e-06	2.8902e-05	276.45	150.94	91.215	44.445	3.2975e-05	78.981	0.007042	0.0074036	0.0020579	685.38	7.9545e-05	7.9813e-05	785.06	236.5	7.7578e-05	7.9076e-05	438.12	186.13	145	56.599	7.8398e-05	94.443	24.894	198.456	49.210	25.956	56.157	192.436	24.742	31.073	248.544	158.967	27.777	32.103	34.004	37.626	266.809	34.890	-8191	255	
3422.302	1	1	0	0	0.28896	0.19417	0.14144	0.075145	0.10881	0.040198	0.25144	0.034467	0.21858	0.13546	0.28992	0.13612	0.3648	0.096793	0.18735	0.12158	-0.95	-1.8854	-1.7521	-1.2333	-2.0354	-1.4479	-1.4833	-2.1167	-1.3854	-1.7708	-1.8542	-1.1688	-1.9312	-1.6313	-1.2708	-2.3063	139.339	300.452	53.033	190.139	65.486	194.095	325.343	28.888	33.882	23.395	23.437	337.178	33.251	333.947	178.790	313.865	0.0011644	0.0017227	0.00057226	398.42	5.539e-06	2.8936e-05	560.17	164.04	1.1339e-05	1.1143e-05	275.31	148.49	91.571	45.015	2.0357e-05	78.408	0.0068915	0.0072687	0.0020164	678.15	7.8558e-05	7.888e-05	777.23	234.54	7.6014e-05	7.7177e-05	432.76	183.64	143.68	56.337	7.5504e-05	93.155	358.241	124.984	184.987	25.762	278.009	227.755	24.854	30.721	341.230	265.555	28.427	32.047	34.159	37.530	134.344	35.109	-8191	255	
3422.422	1	1	0	0	0.13797	0.21272	0.23257	0.16475	0.035094	0.18579	0.22734	0.1901	0.090087	0.23275	0.12899	0.20842	0.21732	0.35294	0.24933	0.21404	-0.89792	-1.6208	-2.1312	-1.3188	-2.0104	-1.725	-1.3979	-2.1708	-1.3188	-1.6896	-1.9875	-1.3312	-2.1604	-1.7396	-1.2292	-2.2583	201.908	179.757	278.026	322.413	79.522	49.969	311.840	61.225	309.944	21.999	229.577	221.609	99.073	35.137	222.302	125.590	0.0012049	0.0011553	0.00055713	399.22	2.5618e-05	2.492e-05	558.45	162.92	1.5562e-05	2.068e-05	271.19	147.99	89.073	44.735	2.1178e-05	79.289	0.0066038	0.006944	0.001927	664.76	7.5326e-05	7.6164e-05	766.39	232.72	7.4828e-05	7.6684e-05	429.33	183.31	143.56	56.353	7.6257e-05	93.506	36.093	286.044	62.411	25.499	331.731	354.529	24.493	30.623	201.524	198.674	27.692	31.780	34.016	37.524	127.708	34.691	-8191	255	
3422.517	1	1	0	0	0.24132	0.20513	0.17779	0.20178	0.30181	0.15193	0.11735	0.064942	0.29466	0.26418	0.14548	0.35876	0.24165	0.34991	0.23917	0.32601	-1.0812	-1.5958	-1.925	-1.2812	-1.8479	-1.7583	-1.4417	-2.0896	-1.4917	-1.4708	-2.1833	-1.4354	-1.8583	-1.9333	-1.325	-2.2208	365.446	209.773	221.263	244.320	370.629	13.359	35.600	85.206	289.260	258.354	336.777	264.369	21.243	307.351	332.484	300.305	0.0012223	0.0024888	0.00031734	396.77	3.275e-05	1.8941e-05	557.2	163.1	7.0973e-06	1.9142e-05	272.15	146.59	89.814	44.375	8.4065e-06	78.895	0.0067705	0.0070788	0.0019783	668.56	7.7452e-05	7.8202e-05	772.16	233.88	7.7407e-05	7.836e-05	433.28	182.99	143.5	56.165	7.6699e-05	93.44	36.164	16.935	314.845	26.004	193.549	259.923	24.485	30.710	193.493	18.431	28.549	31.774	33.744	37.421	353.277	35.063	-8191	255	
3422.613	1	1	0	0	0.091807	0.25166	0.071112	0.047043	0.11905	0.072006	0.40604	0.28919	0.14049	0.40235	0.12253	0.13583	0.13217	0.28754	0.13607	0.11724	-0.95417	-1.3833	-2.0271	-1.2792	-1.8937	-1.9708	-1.1917	-1.8813	-1.5771	-1.2979	-2.2542	-1.4896	-1.6938	-2.0646	-1.1333	-2.0979	95.016	311.435	174.425	367.806	265.641	360.586	328.857	281.738	320.395	22.039	106.652	15.482	23.287	350.141	132.591	47.230	0.0018658	0.0016718	0.001021	393.77	2.0264e-05	1.1248e-05	558.83	162.6	2.5214e-05	8.4188e-06	274.97	148.93	90.626	44.953	3.3642e-06	79.053	0.0068057	0.0071067	0.0019957	668.9	7.7875e-05	7.8561e-05	772.92	234.41	7.7469e-05	7.8126e-05	434.09	184.22	144.17	56.554	7.6704e-05	94.04	81.561	351.792	61.556	26.176	227.840	93.301	24.667	30.632	110.465	239.229	27.992	31.850	34.418	37.529	200.226	34.889	-8191	255	
3422.711	1	1	0	0	0.095812	0.28715	0.19496	0.36472	0.08976	0.072958	0.29903	0.31836	0.11469	0.19219	0.36753	0.10136	0.26689	0.14463	0.2682	0.31357	-1.3438	-1.3208	-1.8792	-1.5542	-1.4792	-1.9771	-1.2417	-2.0417	-1.7125	-1.4083	-2.1917	-1.4729	-1.4896	-2.2062	-1.2354	-2.0625	32.962	319.718	286.138	290.369	76.369	304.137	269.927	359.670	105.284	335.631	62.397	367.735	360.015	83.473	94.714	227.640	0.0012501	0.001001	0.00021367	398.24	3.1231e-05	6.4581e-06	561.37	163.28	4.1651e-05	2.1559e-05	274.91	149.48	90.402	44.579	1.9299e-05	78.956	0.0067705	0.0069962	0.0019554	668.42	7.5884e-05	7.621e-05	768.6	232.93	7.46e-05	7.5042e-05	429.25	183.74	142.18	56.032	7.4014e-05	93.338	14.639	162.234	144.681	25.925	25.346	312.274	24.956	30.948	24.759	126.993	28.250	32.023	33.717	37.300	62.995	35.133	-8191	255	
3422.805	1	1	0	0	0.14417	0.2916	0.27611	0.13609	0.087836	0.39873	0.10195	0.12495	0.21217	0.074344	0.22561	0.15643	0.098526	0.17641	0.025706	0.1852	-1.2021	-1.2708	-2.0208	-1.5375	-1.4604	-1.9688	-1.2521	-2.0062	-1.9646	-1.3771	-2.1312	-1.7979	-1.3417	-2.1375	-1.3854	-1.8229	227.874	209.487	55.530	262.210	59.071	319.306	116.546	53.088	205.550	260.388	353.206	151.551	35.168	84.390	220.951	264.892	0.00082005	0.0034557	0.0002594	398.62	1.0739e-05	3.6779e-05	554.62	163.75	3.074e-05	2.6888e-05	275.95	147.94	90.055	44.041	3.0773e-05	78.078	0.0066038	0.0068193	0.001915	660.98	7.3921e-05	7.4426e-05	758.64	229.73	7.2663e-05	7.3233e-05	426.09	181.34	140.86	55.448	7.4242e-05	92.225	25.660	22.265	233.299	25.633	176.968	101.498	25.473	31.228	279.932	153.813	27.512	32.210	34.261	37.429	208.011	35.006	-8191	255	
3422.901	1	1	0	0	0.11123	0.074445	0.080773	0.055518	0.068758	0.2385	0.071836	0.19235	0.44265	0.46538	0.06146	0.099343	0.067454	0.21922	0.14824	0.32879	-1.5771	-1.1417	-1.9917	-1.7188	-1.2521	-2.1229	-1.3625	-1.8354	-2.0021	-0.925	-1.9896	-1.6958	-1.1979	-2.1667	-1.4083	-1.6667	79.101	244.059	58.069	294.681	296.317	196.747	293.156	310.676	173.512	161.111	264.384	76.062	356.664	277.081	79.218	274.040	0.00080625	0.00237	2.0256e-05	391.67	1.0255e-05	2.6364e-05	550.08	159.92	1.0044e-05	3.2341e-05	268.23	145.35	89.211	43.802	6.2876e-06	77.61	0.0066553	0.0069071	0.001956	664.51	7.6276e-05	7.7132e-05	761.36	231.07	7.6637e-05	7.6799e-05	429.59	181.27	142.01	55.551	7.5988e-05	92.26	42.448	77.560	61.943	26.683	309.400	338.226	24.782	31.139	72.982	95.012	28.678	31.835	34.043	37.823	180.897	35.003	-8191	255	
3423.022	1	1	0	0	0.08759	0.16099	0.1246	0.23493	0.18587	0.23896	0.3348	0.1758	0.18575	0.16225	0.092574	0.059618	0.28394	0.21133	0.11953	0.28437	-1.5938	-1.1042	-1.9542	-1.6	-1.1292	-2.1229	-1.6562	-1.7333	-1.9917	-1.3021	-2.0208	-2.0146	-1.3188	-2.1042	-1.4542	-1.6292	346.841	328.153	27.376	175.482	149.723	162.803	299.107	331.722	316.950	37.473	318.480	82.861	321.483	282.667	166.602	348.693	0.0020168	0.00017949	0.00053023	387.26	5.6855e-06	6.1628e-06	545.41	159.11	2.2323e-05	1.4925e-05	274.73	148.87	89.929	44.677	7.5094e-06	79.254	0.0067132	0.0068945	0.0019469	659.44	7.5016e-05	7.6421e-05	759.34	229.32	7.4153e-05	7.4049e-05	425.06	181.64	139.25	55.52	7.1095e-05	92.709	17.172	21.848	51.539	25.381	256.024	221.065	24.869	30.345	153.071	111.023	28.840	32.150	34.891	37.722	305.745	34.609	-8191	255	
3423.118	1	1	0	0	0.050549	0.19834	0.085982	0.066535	0.20534	0.033705	0.070356	0.45137	0.21019	0.31798	0.13418	0.13233	0.10314	0.086687	0.083207	0.047769	-1.6854	-1.2333	-1.5208	-1.9188	-1.3417	-2.1875	-1.5146	-1.3667	-2.1188	-1.4	-1.7875	-2.0687	-1.3875	-1.9792	-1.5521	-1.4562	88.006	172.886	241.527	65.682	318.453	18.725	338.403	250.897	371.790	260.288	266.808	277.822	287.061	157.724	134.052	372.255	0.0015374	0.0027894	0.00042378	395.31	2.9669e-05	1.2368e-05	558.21	163.91	7.763e-06	6.1832e-06	275.83	150.78	90.476	45.047	1.0959e-05	79.876	0.0062904	0.0065305	0.0018404	648.09	6.9707e-05	7.173e-05	755.89	228.71	7.2405e-05	7.3469e-05	430.54	184.42	142.21	56.358	7.5019e-05	94.605	27.490	72.975	53.679	24.838	96.030	168.137	24.798	31.247	258.006	110.069	28.158	31.984	34.455	37.770	59.539	35.413	-8191	255	
3423.214	1	1	0	0	0.20561	0.15069	0.13254	0.32109	0.11478	0.28028	0.45253	0.089157	0.13891	0.2667	0.12991	0.18582	0.20152	0.10444	0.27287	0.21327	-1.775	-1.2687	-1.6292	-1.9021	-1.1042	-1.7625	-1.7188	-1.4542	-2.0896	-1.4542	-1.7583	-2.0958	-1.2896	-2.0187	-1.8042	-1.3771	257.606	20.031	33.470	258.849	292.167	334.001	266.129	311.742	52.673	134.781	313.965	39.480	321.264	265.503	214.288	347.085	0.001001	0.0008331	0.00018386	397.22	1.1318e-05	2.2389e-05	558.32	161.57	4.6045e-06	1.1327e-05	274.45	147.51	89.36	44.202	1.6383e-05	78.127	0.0067111	0.0069671	0.0019636	668.87	7.6547e-05	7.9017e-05	775.46	234.16	7.796e-05	7.9036e-05	437.3	184.84	144.32	56.393	7.8861e-05	93.565	372.772	157.370	335.206	25.369	248.519	58.671	25.095	31.138	78.379	151.259	28.384	31.552	34.226	37.407	187.570	35.123	-8191	255	
3423.310	1	1	0	0	0.071406	0.18501	0.12802	0.12306	0.22187	0.15215	0.073797	0.16225	0.1445	0.15746	0.1247	0.071807	0.26591	0.082612	0.3419	0.10065	-1.5792	-1.6042	-1.3	-2.0833	-1.3917	-1.9417	-1.9292	-1.2771	-2.1229	-1.4479	-1.3458	-2.0771	-1.0604	-1.6583	-1.8438	-1.2375	236.684	336.915	76.976	232.147	115.513	183.237	265.543	269.711	230.920	366.443	313.808	28.457	283.745	17.246	208.590	309.202	0.0017902	0.0021826	0.00033778	391.34	2.5159e-05	1.3688e-05	551.45	159.34	4.217e-05	1.9588e-05	270.88	146.71	88.673	43.516	1.0314e-05	77.169	0.0069907	0.0072496	0.0020265	672.95	7.7791e-05	7.9212e-05	768.42	231.23	7.7532e-05	7.8029e-05	433.03	182.42	142.63	55.804	7.801e-05	92.374	346.373	332.423	181.489	25.942	289.205	122.995	24.814	31.384	139.028	134.440	28.427	32.280	34.265	37.614	28.404	34.932	-8191	255	
3423.431	1	1	0	0	0.20971	0.23884	0.11912	0.107	0.16938	0.021794	0.18694	0.20358	0.16379	0.12862	0.068204	0.23359	0.28071	0.145	0.15992	0.20866	-1.5917	-1.4458	-1.2208	-2.0917	-1.4312	-1.6917	-1.85	-1.2896	-1.9792	-1.525	-1.5625	-2.0708	-1.3354	-1.6375	-1.9979	-1.3479	67.065	53.643	241.957	363.748	40.293	25.863	327.116	266.122	52.689	49.674	285.951	294.086	86.612	104.204	26.004	248.272	0.0012147	0.0016779	4.5641e-05	391.5	1.5322e-05	3.6755e-05	545.61	159.12	1.3919e-05	4.2099e-05	268.82	145.31	88.364	43.445	2.0388e-05	77.563	0.0069289	0.0071686	0.0019934	666.51	7.7402e-05	7.8734e-05	762.92	230.03	7.7442e-05	7.7754e-05	427.98	181.32	141.25	55.53	7.6739e-05	92.247	32.474	253.944	266.970	26.151	105.029	178.802	24.656	30.551	186.850	244.385	27.643	32.232	33.894	37.422	190.898	35.038	-8191	255	
3423.503	1	1	0	0	0.18208	0.18014	0.11048	0.27475	0.22586	0.20501	0.21373	0.076899	0.33883	0.28271	0.5838	0.16451	0.1138	0.2679	0.27627	0.45542	-1.5417	-1.6396	-1.1688	-2.1875	-1.3854	-1.5708	-2.3771	-1.3771	-1.8646	-1.7812	-1.4521	-2.2188	-1.5021	-1.4646	-2.0333	-1.4729	30.305	76.852	212.847	284.672	102.863	299.559	306.896	359.171	66.469	55.839	311.046	288.876	339.046	251.713	344.884	298.106	0.0013974	0.00024228	0.00060961	387.81	1.8798e-05	2.05e-05	552.89	160.66	2.3784e-06	3.036e-05	268.94	147.08	88.157	43.749	8.6526e-06	78.185	0.0068644	0.0070919	0.0019722	662	7.7059e-05	7.7794e-05	763.65	230.15	7.6709e-05	7.7244e-05	428.66	182.83	142.84	55.983	7.8794e-05	93.562	31.454	79.873	263.156	25.681	348.274	22.565	24.817	30.694	152.020	117.795	28.069	32.128	33.635	38.027	348.996	34.980	-8191	255	
3423.599	1	1	0	0	0.14479	0.075229	0.12556	0.13379	0.099855	0.23963	0.27158	0.1924	0.13477	0.13445	0.14217	0.15805	0.16455	0.099165	0.2243	0.23728	-1.3479	-1.8354	-1.2437	-1.9167	-1.5792	-1.3917	-2.0792	-1.3104	-1.8271	-1.8438	-1.3188	-2.1292	-1.5229	-1.5187	-2.1625	-1.5479	226.023	337.815	17.375	303.425	121.772	364.792	360.692	247.876	279.544	45.463	49.408	308.945	369.183	259.227	130.094	275.280	0.0016832	0.0022501	0.00041021	386.22	2.5021e-05	1.2644e-05	546.69	160.08	1.4181e-05	3.3194e-06	270.88	146.26	88.445	43.759	9.1224e-06	77.923	0.007076	0.0073547	0.0020409	679.45	8.1113e-05	8.1851e-05	780.3	235.3	8.2433e-05	8.3316e-05	443.06	186.48	147.12	56.812	8.3462e-05	94.478	13.418	27.109	289.938	25.949	355.238	110.443	24.488	31.029	362.195	283.739	28.608	32.341	34.748	37.566	98.802	35.108	-8191	255	
3423.693	1	1	0	0	0.24305	0.23378	0.1848	0.17197	0.12281	0.049497	0.15841	0.24069	0.01684	0.10991	0.15011	0.27965	0.33781	0.19297	0.194	0.25362	-1.1958	-2.0417	-1.1542	-2.05	-1.625	-1.3729	-2.0521	-1.4604	-1.7667	-2.0812	-1.0854	-1.9688	-1.7437	-1.5125	-2.2104	-1.4854	134.922	354.333	213.358	13.581	240.794	311.519	222.163	353.538	288.952	328.663	315.837	54.336	271.735	238.812	255.544	337.360	0.00063098	0.0010582	0.00018992	390.87	8.0215e-06	5.97e-06	550.02	160.83	1.1576e-05	1.8043e-05	268.78	146.22	88.602	43.699	3.34e-05	77.791	0.0073541	0.0076425	0.0021075	688.84	8.2635e-05	8.2674e-05	781.96	236.04	8.2424e-05	8.271e-05	441.06	185.8	146.39	56.326	8.2296e-05	93.872	23.290	106.522	47.448	25.811	171.015	264.827	25.070	31.123	16.828	244.988	28.147	32.353	34.157	37.832	156.002	35.209	-8191	255	
3423.814	1	1	0	0	0.09692	0.13959	0.20172	0.063535	0.11718	0.048622	0.11505	0.20474	0.10512	0.35447	0.086029	0.20627	0.72966	0.23786	0.15524	0.1935	-1.2021	-1.9583	-1.0333	-1.8479	-1.7062	-1.1708	-2.025	-1.65	-1.4188	-2.0292	-1.3271	-1.7792	-1.9354	-1.275	-2.0687	-1.6729	275.946	122.381	304.538	36.249	311.330	142.783	331.360	359.227	319.660	240.078	22.615	266.737	322.301	24.233	253.038	360.819	0.0017455	0.00102	0.0005877	387.2	3.7549e-06	1.7578e-05	544.02	159.06	2.2062e-05	2.5102e-05	266.71	145.87	89.543	43.477	2.479e-05	77.71	0.0072584	0.0075293	0.0020912	686.48	8.1726e-05	8.2338e-05	783.03	236.28	8.2569e-05	8.3336e-05	443.68	186.07	147.64	56.744	8.4672e-05	94.481	14.881	268.050	126.383	25.778	17.211	45.881	24.835	31.132	327.600	185.986	28.478	32.199	33.869	37.404	285.981	34.854	-8191	255	
3423.910	1	1	0	0	0.0098527	0.04882	0.15397	0.15703	0.20058	0.085348	0.028191	0.21734	0.14528	0.069173	0.19275	0.071674	0.24287	0.081977	0.2247	0.15786	-1.1021	-1.9979	-1.2208	-1.7563	-1.8833	-1.2417	-2.1063	-1.7021	-1.2104	-2.0979	-1.3229	-1.85	-2.0062	-1.1604	-2.0292	-1.7875	34.893	73.561	314.772	275.514	300.507	264.190	343.086	102.919	286.456	119.113	95.802	322.511	235.788	342.419	368.982	268.382	0.0015878	0.0017906	0.00079239	388.2	5.4014e-06	1.9009e-05	541.62	158.05	2.8497e-05	2.3036e-05	268.77	144.5	87.644	43.541	2.7442e-05	76.949	0.0075029	0.0078324	0.0021759	695.74	8.5414e-05	8.6365e-05	792.75	239.69	8.5714e-05	8.7516e-05	449.74	187.22	148.77	56.902	8.6245e-05	94.28	37.937	113.956	117.864	25.521	193.361	101.655	24.880	31.268	155.542	343.364	28.521	32.027	34.183	37.645	284.260	35.166	-8191	255	
3424.006	1	1	0	0	0.021422	0.16963	0.27843	0.21023	0.080492	0.063725	0.26138	0.23813	0.34527	0.32842	0.12363	0.36692	0.31347	0.055118	0.23712	0.10323	-0.94583	-2.0583	-1.4542	-1.5792	-1.8917	-1.2854	-2.0375	-1.8854	-1.2417	-2.1896	-1.3917	-1.4896	-2.1667	-1.3958	-2.0104	-1.8062	334.978	310.212	205.643	249.830	315.840	259.955	324.041	350.514	335.614	310.717	236.546	334.118	87.194	294.854	306.999	55.697	0.0014613	0.0019392	0.00030233	386.21	1.9263e-05	2.3743e-05	543.01	158.86	2.9073e-05	1.538e-05	268.95	145.46	88.407	44.054	1.8637e-05	78.314	0.0075634	0.0079171	0.0022	699.72	8.5511e-05	8.5855e-05	789.58	238.25	8.3495e-05	8.4385e-05	445.22	186.12	146.35	56.731	8.2336e-05	94.22	62.255	189.115	57.025	25.546	57.272	103.930	25.214	31.099	40.236	285.652	28.048	32.378	34.681	37.954	123.540	35.475	-8191	255	
3424.102	1	1	0	0	0.14162	0.090286	0.24846	0.030362	0.21826	0.25953	0.067036	0.17967	0.37099	0.16036	0.060589	0.12016	0.24801	0.29023	0.20696	0.18069	-0.84583	-1.9708	-1.3312	-1.7188	-2.0729	-1.2333	-1.8542	-1.8937	-1.2708	-2	-1.4542	-1.5229	-2.1458	-1.4542	-1.7812	-1.8813	257.426	127.137	168.489	346.792	252.008	18.179	163.857	56.100	248.228	249.053	70.643	313.625	148.384	355.905	119.232	314.181	0.0014176	0.0014683	0.00025298	393.77	2.4966e-05	4.4582e-06	552.33	161.78	2.7859e-05	9.1076e-06	273.58	148.12	89.48	44.29	1.9644e-05	78.769	0.0071766	0.0075091	0.0020796	683.48	8.1405e-05	8.1791e-05	785.57	236.4	8.0617e-05	8.3063e-05	444.07	187.31	146.58	56.997	8.1729e-05	95.272	372.762	216.824	22.929	26.023	182.187	366.167	24.726	30.944	305.586	210.147	28.149	32.248	34.305	37.691	130.756	34.739	-8191	255	
3424.198	1	1	0	0	0.079067	0.099903	0.14548	0.15681	0.3341	0.22983	0.071717	0.22107	0.35352	0.21865	0.20388	0.44292	0.40821	0.11551	0.21768	0.33047	-0.88125	-2	-1.5979	-1.3375	-2.0312	-1.1854	-1.6021	-2.125	-1.1875	-1.75	-1.7583	-1.325	-2.2687	-1.4729	-1.4813	-2.0729	146.550	70.445	325.825	260.403	261.427	224.323	61.506	302.368	154.845	210.973	253.870	346.018	317.781	320.601	370.669	300.990	0.0016228	0.0018143	0.00024793	393.72	5.993e-06	3.3182e-05	557.93	160.96	2.2327e-05	1.9975e-06	272.52	148.47	90.48	44.309	1.193e-05	78.625	0.0071657	0.0075598	0.0020865	683.59	8.1512e-05	8.1911e-05	786.18	235.97	8.0437e-05	8.1959e-05	440.05	185.55	145.35	56.389	7.8466e-05	93.713	358.239	307.458	250.180	26.305	34.696	71.488	24.861	30.955	249.274	300.286	28.102	32.192	34.132	37.971	296.225	35.216	-8191	255	
3424.294	1	1	0	0	0.037953	0.08482	0.27855	0.27063	0.11453	0.1118	0.16198	0.056468	0.079742	0.33729	0.28669	0.30745	0.39423	0.17423	0.14289	0.27254	-0.83125	-1.9333	-1.6979	-1.05	-2.15	-1.4562	-1.5229	-2.175	-1.3229	-1.95	-1.675	-1.2583	-1.9813	-1.3937	-1.4229	-2.1125	48.936	27.428	71.596	326.270	33.507	320.516	312.493	207.111	348.658	89.285	300.182	359.281	103.319	279.168	245.699	352.116	0.0028325	0.0017981	0.00093105	389.39	1.0345e-05	1.9354e-05	554.25	161.51	1.0847e-05	1.8821e-05	270.08	146.94	88.929	43.828	8.9133e-06	78.425	0.0068587	0.0072051	0.0020021	670.63	7.8522e-05	7.9112e-05	771.77	233.23	7.7069e-05	7.8799e-05	431.56	183.15	144.03	55.88	7.8769e-05	93.225	39.864	97.153	103.382	26.614	103.022	40.265	24.826	30.892	150.201	266.953	28.205	32.154	34.730	37.582	242.440	35.008	-8191	255	
3424.391	1	1	0	0	0.24043	0.07817	0.16305	0.046003	0.081713	0.01923	0.10678	0.15596	0.15613	0.2748	0.211	0.2615	0.29901	0.14359	0.23216	0.042906	-1.0521	-1.7792	-1.7042	-1.0833	-1.8292	-1.6083	-1.3188	-1.9333	-1.2417	-1.6458	-1.9333	-1.2313	-2.0812	-1.7958	-1.2146	-2.4979	54.978	281.001	98.438	170.116	266.695	344.414	292.144	23.117	286.737	287.448	349.153	68.762	24.702	215.727	179.656	165.629	0.0015423	0.0012806	0.00023599	392.39	2.5945e-05	1.9655e-05	545.24	162.03	1.501e-05	1.0802e-05	270.96	144.76	88.883	43.684	8.4053e-06	78.46	0.0069849	0.007363	0.0020434	674.1	8.0047e-05	8.0002e-05	771.13	234.18	7.9681e-05	8.1195e-05	437.94	183.67	145.76	56.342	8.0189e-05	93.967	41.597	167.467	126.053	25.908	92.945	223.708	24.926	31.444	171.830	181.118	28.700	32.327	34.355	37.548	13.811	35.130	-8191	255	
3424.509	1	1	0	0	0.16893	0.11998	0.07402	0.18432	0.060096	0.070125	0.29327	0.15158	0.057261	0.089831	0.11024	0.26369	0.38514	0.17739	0.20699	0.28244	-0.9125	-1.5083	-2.0875	-1.1417	-1.8458	-1.7542	-1.4458	-2.1	-1.3896	-1.45	-2.0875	-1.2188	-1.9438	-1.9667	-1.0938	-2.2021	186.522	38.829	246.859	223.743	233.934	184.106	284.829	231.714	298.989	203.968	92.762	174.447	144.804	86.982	104.123	47.077	0.0014122	0.0018841	0.00062752	388.45	2.8654e-05	2.135e-05	549.98	161.13	2.2323e-05	1.5346e-05	268.07	146.43	88.937	43.812	9.4411e-06	78.056	0.0070398	0.0073821	0.0020389	674.02	8.0303e-05	8.0451e-05	775.34	234.92	8.012e-05	8.1781e-05	439.72	185.09	146.45	56.662	8.1353e-05	94.473	39.743	58.115	70.882	26.069	97.458	118.842	24.679	30.811	66.835	69.988	28.052	32.135	34.085	37.872	32.094	35.223	-8191	255	
3424.606	1	1	0	0	0.11373	0.12529	0.27124	0.19367	0.088112	0.13841	0.37188	0.18611	0.12883	0.30478	0.19174	0.099911	0.23161	0.26005	0.15133	0.03994	-0.88958	-1.4396	-1.9562	-1.15	-1.8271	-1.6896	-1.2812	-1.9813	-1.4583	-1.3667	-2.0146	-1.3458	-1.7146	-2.0542	-1.2	-2.225	272.614	252.686	262.304	307.741	228.042	182.095	98.999	277.167	180.710	219.447	69.262	318.040	14.770	336.718	68.488	327.177	0.0011036	0.0010344	0.00029633	388.28	3.3012e-05	2.1114e-05	548.82	158.98	7.2608e-06	1.3395e-05	268.79	146.21	88.745	43.522	2.1256e-05	77.429	0.0072223	0.0075233	0.0020945	684.1	8.2778e-05	8.3374e-05	785.56	238.46	8.3857e-05	8.5487e-05	447.53	185.94	147.73	56.671	8.2958e-05	94.165	42.038	345.708	347.005	26.399	164.494	219.593	25.046	30.944	319.969	118.547	28.176	31.950	33.925	37.651	238.930	35.041	-8191	255	
3424.702	1	1	0	0	0.19851	0.15519	0.14611	0.28213	0.10255	0.079349	0.29592	0.11178	0.18335	0.17703	0.27044	0.31327	0.09579	0.27764	0.15738	0.13621	-1.1333	-1.3062	-2	-1.4083	-1.6646	-1.9625	-1.2333	-1.9771	-1.6688	-1.5625	-1.9958	-1.2917	-1.6417	-2.225	-0.94375	-2.0354	340.722	111.239	253.797	266.500	49.742	104.861	142.240	72.167	99.138	224.000	17.882	326.326	320.201	320.348	224.720	280.930	0.0014314	0.0011449	0.0006973	383.96	5.4158e-06	2.1936e-05	545.99	160.37	2.8775e-05	2.132e-05	266.9	144.35	87.816	43.21	3.7918e-05	76.936	0.007352	0.0076134	0.0021456	688.6	8.2613e-05	8.3186e-05	780.88	236.47	8.1478e-05	8.2669e-05	440.73	184.18	146.3	56.385	8.3309e-05	93.661	17.127	182.098	176.274	25.927	325.480	102.650	25.289	30.685	189.753	190.624	28.782	32.694	34.180	37.939	155.265	35.039	-8191	255	
3424.798	1	1	0	0	0.40866	0.25448	0.12691	0.18322	0.27765	0.31024	0.079624	0.18425	0.12251	0.11456	0.19161	0.038442	0.21512	0.24677	0.30044	0.36194	-1.1562	-1.2229	-2.1542	-1.5417	-1.6187	-2.1	-1.4667	-1.7896	-1.6708	-1.2771	-2.0292	-1.5	-1.2938	-2.0271	-1.1396	-1.9312	68.990	20.814	16.726	369.435	272.998	126.501	287.042	314.634	315.838	136.949	78.593	180.859	277.552	270.339	122.785	321.373	0.0014397	0.001545	0.00050216	389.37	1.3499e-05	1.3284e-05	543.15	158.2	2.9265e-05	3.0564e-05	267.72	143.55	86.052	42.923	4.3958e-06	76.29	0.0073854	0.0076764	0.0021554	688.77	8.3775e-05	8.5079e-05	782.79	238.57	8.4608e-05	8.5101e-05	445.61	184.4	146.92	56.3	8.4781e-05	93.537	49.829	254.300	158.762	26.328	348.116	155.009	24.661	31.283	112.199	76.873	28.044	31.965	34.750	37.871	99.537	35.109	-8191	255	
3424.894	1	1	0	0	0.042148	0.14346	0.1094	0.26822	0.1503	0.19453	0.17499	0.14712	0.2195	0.053322	0.099671	0.31882	0.27121	0.23216	0.19798	0.21336	-1.3896	-1.0833	-2.0792	-1.3687	-1.3479	-1.9583	-1.0271	-1.85	-1.7854	-1.3417	-2.2083	-1.6458	-1.4167	-2.2375	-1.3521	-1.9375	267.166	127.627	254.887	45.864	86.933	175.157	56.056	313.457	325.338	182.938	22.421	43.064	268.851	42.589	155.652	27.222	0.0017156	0.0010279	0.00023885	380	8.9141e-06	2.1848e-05	536.97	156.5	2.2339e-05	1.5569e-05	264.92	142.7	87.009	42.789	1.9645e-05	76.447	0.0075325	0.0078324	0.0022187	693.37	8.6084e-05	8.7407e-05	784.67	237.86	8.5149e-05	8.551e-05	445.89	184.14	147.42	56.57	8.5974e-05	93.922	373.160	85.019	158.801	25.949	333.026	210.971	25.031	31.407	87.789	268.977	28.879	32.070	34.596	38.019	48.400	35.732	-8191	255	
3424.990	1	1	0	0	0.27543	0.23712	0.17694	0.22546	0.026749	0.24916	0.22737	0.29676	0.038765	0.034808	0.032903	0.302	0.30556	0.10551	0.17137	0.070283	-1.65	-1.0875	-1.8167	-1.8458	-1.2396	-1.9312	-1.5042	-1.7729	-1.9646	-1.2021	-2.0979	-1.6812	-1.4729	-2.1813	-1.3021	-1.7104	341.337	116.702	72.534	191.547	188.511	234.876	154.462	295.629	151.347	314.802	88.057	299.976	73.447	341.077	268.978	323.828	0.0015601	0.0024447	0.00012068	386.8	2.1121e-05	1.2549e-05	541.68	156.79	3.673e-05	2.4006e-05	263.38	144.3	87.058	43.247	5.4395e-06	76.763	0.0075863	0.0078799	0.002213	695.62	8.5463e-05	8.7339e-05	788.09	239.65	8.69e-05	8.7793e-05	453.14	186.75	148.97	57.097	8.7363e-05	94.898	367.659	124.055	31.868	25.890	184.468	48.483	24.752	31.618	86.212	183.946	29.238	32.101	34.210	38.628	56.800	35.297	-8191	255	
3425.111	1	1	0	0	0.21355	0.30609	0.063416	0.17403	0.10181	0.091004	0.18798	0.25354	0.2925	0.05938	0.15669	0.1882	0.19291	0.3745	0.22212	0.26498	-1.9	-1.1896	-1.7604	-1.6688	-1.0646	-2.2021	-1.5104	-1.4104	-1.875	-1.1313	-1.8833	-1.8438	-1.1688	-2.1417	-1.6	-1.55	54.869	31.074	142.263	304.100	289.639	157.625	234.156	278.149	130.455	192.022	15.228	310.679	344.885	357.419	314.072	315.093	0.00093677	0.0007071	0.00037834	386.54	1.3637e-05	1.4621e-05	542.39	157.51	1.3115e-05	1.0365e-05	263.72	143.42	86.489	42.974	1.0397e-05	76.638	0.0077706	0.0080762	0.0022851	709.15	8.8707e-05	9.1052e-05	798.18	241.5	8.9091e-05	8.9464e-05	454.62	186.58	149.44	57.104	8.7064e-05	94.101	337.950	232.929	32.018	25.967	338.494	261.293	25.390	31.009	194.243	134.357	28.424	32.505	35.169	37.822	235.126	35.434	-8191	255	
3425.207	1	1	0	0	0.2748	0.28636	0.13876	0.074034	0.26503	0.1957	0.36635	0.37221	0.10616	0.14442	0.24391	0.073027	0.089972	0.38354	0.28783	0.23926	-1.6792	-1.2812	-1.65	-2.0062	-1.2229	-1.9542	-1.8396	-1.4792	-2.1146	-1.4771	-1.5542	-2.0583	-1.2542	-2.0042	-1.5063	-1.3	90.435	122.478	329.934	304.544	97.925	232.904	323.229	253.324	358.577	280.426	167.154	273.616	24.259	331.548	44.535	328.075	0.00092249	0.0019075	0.00028567	382.39	6.308e-06	2.6043e-05	539.24	158.25	3.0068e-05	1.0784e-05	265.37	142.63	86.637	42.816	1.1204e-05	76.317	0.0076875	0.0079165	0.0022123	695.44	8.5459e-05	8.7101e-05	786.33	237.6	8.5754e-05	8.6184e-05	443.83	183.74	146.44	56.335	8.4808e-05	92.951	357.928	253.762	169.930	25.332	184.681	202.062	24.918	31.280	113.260	247.003	28.684	32.394	34.547	38.039	109.167	35.367	-8191	255	
3425.303	1	1	0	0	0.10749	0.26757	0.24487	0.094118	0.20729	0.17868	0.0056065	0.15586	0.23588	0.14014	0.097411	0.21721	0.26143	0.32514	0.12725	0.32973	-1.8375	-1.1833	-1.6063	-2.0438	-1.1208	-1.8854	-1.7188	-1.2229	-2.0792	-1.3208	-1.5396	-2.1229	-1.175	-1.9708	-1.7437	-1.3	265.770	291.081	245.394	299.218	205.248	310.483	62.631	253.934	276.672	333.291	331.372	16.871	282.270	327.260	212.178	355.845	0.0025183	0.0010679	0.00030995	383.83	2.1001e-05	1.304e-05	535.89	156.88	3.763e-06	3.3509e-05	266.36	142.77	86.606	43.014	1.9907e-05	75.525	0.0075209	0.0077821	0.0021711	690.58	8.4094e-05	8.4616e-05	775.22	234.56	8.3581e-05	8.4073e-05	438.5	182.15	145.01	55.922	8.2939e-05	92.443	17.328	289.443	63.044	25.820	32.998	238.740	24.909	31.160	38.053	269.359	28.891	32.204	34.108	37.807	80.654	35.524	-8191	255	
3425.375	1	1	0	0	0.14241	0.13274	0.18596	0.20443	0.097807	0.18436	0.16536	0.12015	0.22938	0.32735	0.078933	0.16999	0.1313	0.16067	0.18285	0.20305	-1.6021	-1.5042	-1.6229	-2.0083	-1.4104	-2.0187	-1.9771	-1.325	-2.0021	-1.4667	-1.4312	-2.125	-1.2313	-1.7229	-1.9479	-1.6083	292.839	349.152	359.143	235.958	132.630	50.196	87.689	273.514	137.524	206.962	252.664	215.462	293.111	196.935	56.202	217.981	0.0022438	0.0012652	0.00083897	385.69	3.7152e-05	1.9125e-05	537.72	158.69	2.7342e-05	2.2798e-05	264.33	142.68	86.076	42.847	9.3592e-06	76.186	0.0073815	0.0076566	0.0021209	686.51	8.2422e-05	8.4085e-05	777.79	234.94	8.2895e-05	8.2778e-05	437.46	182.34	144.42	55.698	8.112e-05	92.185	367.704	87.475	71.343	25.847	100.664	80.255	24.847	31.471	118.595	43.763	28.299	32.416	34.499	37.822	114.070	35.111	-8191	255	
3425.471	1	1	0	0	0.072453	0.1486	0.20232	0.27975	0.12562	0.41884	0.29491	0.053911	0.3427	0.28169	0.17145	0.15584	0.073504	0.10291	0.14358	0.15002	-1.7812	-1.4729	-1.3792	-2.1771	-1.4208	-1.6542	-2.1375	-1.375	-2.1583	-1.5854	-1.4396	-2.2146	-1.3625	-1.5979	-2.0292	-1.5083	307.057	165.789	56.836	173.924	232.126	260.147	259.199	50.786	70.542	242.543	315.387	331.128	262.188	367.022	66.118	290.518	0.0011647	0.0011172	0.00038794	389.95	1.6511e-05	6.7563e-06	548.38	159.51	7.5236e-06	1.928e-05	264.62	142.25	86.491	42.763	1.4663e-05	75.991	0.0072042	0.0074456	0.0020834	684.55	8.1268e-05	8.2521e-05	779.53	233.37	8.0989e-05	8.0548e-05	431.54	180.09	142.1	54.735	7.7903e-05	90.976	368.582	56.991	14.186	26.318	41.284	301.202	25.045	30.829	159.143	171.461	28.719	32.473	34.371	37.892	337.747	35.462	-8191	255	
3425.590	1	1	0	0	0.10231	0.099364	0.18165	0.11417	0.1637	0.13676	0.14002	0.38398	0.32103	0.13245	0.16971	0.28898	0.033313	0.20308	0.018021	0.20953	-1.6479	-1.7417	-1.1375	-1.9917	-1.5042	-1.3604	-2.1542	-1.3417	-1.7604	-1.8708	-1.3229	-2.0792	-1.4542	-1.5063	-2.125	-1.5187	286.559	316.686	190.761	51.313	17.653	69.701	289.119	71.341	57.054	245.524	328.685	298.775	111.465	314.208	203.123	342.566	0.00095447	0.0021007	0.00016402	397.32	2.6187e-05	3.1377e-05	562.73	159.9	9.9706e-06	3.3131e-05	266.92	141.72	85.622	42.294	1.9182e-05	75.19	0.0068236	0.006977	0.0019188	665.46	7.3925e-05	7.3764e-05	759.23	224.79	6.9982e-05	6.9488e-05	405.47	171.78	130.15	51.562	6.2842e-05	86.316	30.452	95.958	135.177	26.127	259.139	163.655	24.958	31.258	42.540	220.974	28.998	32.572	34.693	38.493	79.612	35.371	-8191	255	
3425.686	1	1	0	0	0.15989	0.055487	0.24889	0.073788	0.40184	0.048485	0.32994	0.10807	0.061876	0.17017	0.1097	0.20415	0.16979	0.15591	0.44042	0.17265	-1.4062	-1.9354	-1.2229	-2.1896	-1.4937	-1.4396	-2.1792	-1.2687	-1.8	-1.875	-1.375	-1.9458	-1.5938	-1.3229	-1.875	-1.475	247.977	297.561	222.545	188.841	138.036	14.162	348.102	293.204	120.493	88.792	311.812	230.977	347.738	261.007	359.930	67.657	0.0015296	0.0021778	0.00033371	401.4	1.7257e-05	1.4767e-05	573.04	163.4	6.2205e-06	1.4026e-05	271.48	140.14	86.46	42.225	1.4818e-05	74.764	0.0053728	0.0055549	0.0015184	611.48	5.9002e-05	5.9057e-05	725.99	213.22	5.7436e-05	5.7367e-05	382.1	164.24	122.62	49.777	5.5097e-05	83.589	45.537	36.454	130.719	25.915	205.621	166.305	25.025	31.493	195.387	151.765	29.020	32.725	34.682	38.310	40.015	35.316	-8191	255	
3425.784	1	1	0	0	0.036421	0.15761	0.17728	0.17538	0.31438	0.1567	0.13599	0.13431	0.33739	0.10473	0.22333	0.37708	0.36038	0.23109	0.21613	0.34096	-1.2208	-1.9104	-1.2729	-2.0396	-1.7229	-1.2042	-2.2313	-1.3083	-1.3875	-2.1208	-1.3104	-1.9521	-1.775	-1.3438	-2.0667	-1.5479	311.418	60.977	273.146	88.288	365.052	213.601	319.673	201.450	169.989	51.763	17.184	323.095	255.513	361.961	348.644	314.556	0.0012996	0.0042527	0.00026102	415.01	3.1952e-05	2.5377e-05	576.41	166.04	1.1275e-05	3.2926e-05	277.19	138.76	85.253	41.659	1.755e-05	73.472	0.0048269	0.0049876	0.0013871	594.17	5.3261e-05	5.3928e-05	712.94	211.6	5.3315e-05	5.4231e-05	377.86	160.92	119.79	48.777	5.2891e-05	81.919	353.716	31.464	277.158	26.388	29.604	349.598	25.119	31.388	250.210	162.441	29.093	32.766	34.692	38.025	184.090	35.882	-8191	255	
3425.903	1	1	0	0	0.15406	0.1731	0.1899	0.16181	0.066052	0.23079	0.20702	0.13182	0.119	0.21715	0.1461	0.28198	0.12814	0.23137	0.20315	0.10362	-1.0625	-1.9458	-1.2271	-1.8521	-1.7458	-1.2083	-2.0542	-1.6771	-1.4208	-2.05	-1.3542	-2.0104	-2.0083	-1.425	-2.025	-1.5354	335.188	122.947	29.045	119.628	196.484	356.753	268.841	46.054	160.796	265.132	301.253	331.825	125.712	331.624	33.356	162.568	0.0018315	0.0013956	0.00066605	411.95	1.2657e-05	3.0208e-05	583.78	172.24	1.6224e-05	1.931e-05	283.25	138.8	85.378	41.293	2.4594e-05	72.79	0.0045609	0.0047286	0.0013076	584.8	5.0451e-05	5.101e-05	716.4	214.05	5.0809e-05	5.2003e-05	379.37	159.57	118.08	48.094	5.1715e-05	81.22	25.266	157.218	126.740	26.235	148.760	161.977	25.367	31.023	229.227	150.475	28.567	32.716	34.697	38.739	136.248	35.535	-8191	255	
3425.974	1	1	0	0	0.23695	0.17656	0.063176	0.15802	0.30487	0.1459	0.04366	0.060631	0.22141	0.22344	0.17829	0.22103	0.10821	0.12838	0.12836	0.21431	-0.75417	-2.0062	-1.2938	-1.4625	-1.9042	-1.0958	-2.0854	-1.675	-1.1521	-2.1021	-1.2354	-1.7042	-1.9729	-1.3792	-1.9833	-1.7146	35.708	35.091	316.945	144.772	141.183	243.951	372.102	120.178	23.148	243.286	313.511	18.797	208.212	304.320	21.997	352.326	0.00035502	0.0027773	0.0005616	415.64	6.3947e-06	1.6702e-05	599.23	171.18	3.7713e-05	4.9385e-06	281.66	136.3	82.648	39.934	1.6011e-05	71.033	0.0045972	0.0048441	0.0013463	591.93	5.33e-05	5.409e-05	734.01	217.18	5.4016e-05	5.527e-05	388.42	159.43	119.32	47.782	5.5537e-05	80.399	14.351	264.836	83.571	26.971	221.021	359.416	25.121	31.002	157.794	229.451	28.602	33.174	35.255	38.496	334.382	35.869	-8191	255	
3426.071	1	1	0	0	0.16007	0.11412	0.30911	0.19655	0.11567	0.14877	0.24008	0.065344	0.16494	0.14991	0.1526	0.10203	0.16723	0.23707	0.22181	0.16415	-0.8	-1.9104	-1.3042	-1.3771	-1.9917	-1.2146	-1.9292	-1.8708	-1.2917	-2.0833	-1.5771	-1.6167	-2.0438	-1.2792	-1.8396	-2.0542	332.505	371.893	319.550	323.595	367.048	293.878	321.895	36.670	310.581	294.662	179.005	326.557	257.299	298.051	330.780	271.575	0.00074741	0.00060819	0.00068867	403.6	3.6632e-05	1.6405e-05	595.59	167.94	1.8938e-05	1.2153e-05	277.37	132.33	80.399	38.537	5.9968e-06	68.605	0.0049311	0.0052306	0.001445	601.7	5.7574e-05	5.8138e-05	742.57	218.77	5.7972e-05	5.9225e-05	392.98	158.1	120.79	47.31	6.012e-05	79.166	49.342	310.670	182.619	26.376	139.123	310.096	24.873	31.414	261.446	123.982	29.136	32.831	34.979	38.780	243.622	35.737	-8191	255	
3426.191	1	1	0	0	0.14796	0.083806	0.069279	0.29165	0.40216	0.2112	0.081179	0.18421	0.21255	0.30173	0.18447	0.40015	0.10132	0.25754	0.19848	0.087795	-0.775	-2.1125	-1.4208	-1.6354	-2.2125	-1.4021	-1.7771	-1.9937	-1.2854	-2.125	-1.6812	-1.3167	-1.9646	-1.1333	-1.7292	-2.0896	186.918	316.873	54.678	306.990	236.949	341.801	125.035	128.488	68.876	340.453	67.255	271.952	157.913	290.848	189.400	264.317	0.0011789	0.00034423	0.00049957	399.82	2.5199e-05	4.4001e-06	575.07	164.89	1.7751e-05	1.7752e-05	272.1	129.61	79.54	38.071	1.4696e-05	67.438	0.0052799	0.0055888	0.0015532	609.78	6.1834e-05	6.2637e-05	740.72	220.62	6.2338e-05	6.425e-05	397.93	158.15	123.52	47.775	6.4801e-05	79.547	369.686	95.662	257.113	26.474	39.970	155.129	25.268	31.500	157.728	321.892	29.082	32.919	35.064	38.449	107.926	35.818	-8191	255	
3426.287	1	1	0	0	0.19744	0.33941	0.057484	0.088402	0.14937	0.17771	0.27681	0.21211	0.083736	0.035638	0.12378	0.14275	0.16867	0.18895	0.14039	0.17541	-0.8875	-2.0292	-1.6458	-1.3438	-2.1125	-1.4479	-1.7104	-1.9375	-1.2292	-1.8542	-1.8417	-1.4979	-2.1604	-1.4208	-1.4542	-2.0604	36.664	324.400	317.374	95.076	18.222	246.691	331.421	27.695	143.113	283.970	263.445	297.177	41.546	321.205	368.329	274.827	0.0019127	0.00069302	0.00050976	395.09	1.5734e-05	4.1606e-06	574.27	167.25	1.2282e-05	9.5005e-06	272.04	131.42	79.567	38.423	1.9038e-05	68.23	0.0057333	0.0060564	0.0016648	625.32	6.5726e-05	6.6299e-05	747.28	224.16	6.5222e-05	6.629e-05	404.86	160.65	126.05	48.543	6.6887e-05	81.034	46.374	314.004	359.900	26.300	169.080	279.951	24.948	30.975	104.981	165.087	29.190	33.056	35.305	38.592	169.123	35.967	-8191	255	
3426.384	1	1	0	0	0.080403	0.18036	0.24001	0.18124	0.16904	0.1909	0.32917	0.13005	0.028291	0.12472	0.13373	0.13995	0.18957	0.26392	0.13345	0.13797	-0.66458	-2.0396	-1.8208	-1.0708	-2.0125	-1.4417	-1.5542	-1.9375	-1.2812	-1.8229	-1.9625	-1.2042	-2.1479	-1.5292	-1.425	-2.1146	256.337	133.488	97.846	42.950	71.557	70.333	243.911	215.464	320.923	352.534	65.655	270.824	370.453	39.769	112.445	16.093	0.0015168	0.00067207	0.00034949	398.03	1.2824e-05	1.7562e-05	580.47	167.59	8.5295e-06	9.0845e-06	273.06	130.38	80.041	38.468	2.5868e-05	68.256	0.0059472	0.0062792	0.0017428	637.66	6.903e-05	6.9555e-05	761.59	228.49	6.857e-05	6.962e-05	414.06	163.26	129.01	49.216	6.9357e-05	82.024	345.991	347.802	362.051	26.232	336.939	322.784	24.830	31.645	200.982	91.107	29.240	33.083	34.896	38.355	200.494	35.486	-8191	255	
3426.504	1	1	0	0	0.18695	0.047851	0.3059	0.060336	0.22138	0.083745	0.13396	0.25306	0.21202	0.15477	0.30811	0.17099	0.08913	0.16531	0.19278	0.10762	-0.75208	-1.8292	-1.9667	-1.2271	-1.9438	-1.7083	-1.4979	-2.1208	-1.4167	-1.8	-1.9438	-1.2854	-2.0167	-1.8354	-1.3521	-2.1729	180.857	105.179	351.715	20.115	203.378	293.503	276.021	258.187	326.203	269.776	42.680	325.632	289.345	358.687	166.267	188.488	0.0014705	0.0018132	0.0001118	400.03	1.3965e-05	1.7387e-05	583.93	166.94	1.8309e-05	1.3646e-05	275.47	132.32	80.218	38.749	2.5439e-05	68.971	0.0061456	0.0064023	0.0017843	645.46	7.0413e-05	7.0286e-05	768.98	229.97	6.9108e-05	6.9892e-05	415.59	163.82	128.46	49.143	6.8635e-05	81.974	351.051	116.579	59.266	26.018	314.560	272.815	24.982	31.292	152.648	248.461	29.352	33.229	35.289	38.300	352.877	35.710	-8191	255	
3426.600	1	1	0	0	0.1651	0.095166	0.14411	0.12329	0.10683	0.11105	0.38939	0.36696	0.15394	0.16655	0.26392	0.055733	0.13189	0.13552	0.27715	0.31319	-0.85417	-1.5646	-1.9813	-1.425	-1.9917	-1.7521	-1.2771	-2.1	-1.2042	-1.4792	-2.0187	-1.2021	-1.7479	-1.7479	-1.2292	-2.325	190.428	259.338	175.502	342.280	226.614	211.753	302.536	41.170	342.331	335.220	288.928	330.321	343.549	337.815	314.039	316.180	0.0010671	0.00068647	0.00084017	395.05	7.2243e-06	1.7191e-05	575.47	166.59	1.4573e-05	3.6394e-05	273.85	130.53	81.055	38.973	8.8302e-06	69.223	0.0060242	0.0062607	0.0017395	635.24	6.7883e-05	6.8525e-05	759.51	228.85	6.8209e-05	6.9221e-05	414.55	163.59	128.89	49.474	6.8888e-05	82.515	37.752	173.004	16.287	26.532	293.606	340.548	25.300	31.758	62.677	248.530	29.221	32.839	34.547	38.111	153.403	35.715	-8191	255	
3426.670	1	1	0	0	0.1225	0.23178	0.20224	0.078239	0.011684	0.21983	0.14814	0.3148	0.18527	0.1402	0.17124	0.1743	0.079016	0.11629	0.27325	0.24587	-0.99167	-1.3229	-2.05	-1.3833	-1.5063	-2.0271	-1.3979	-2.1188	-1.4875	-1.4438	-2.0292	-1.3458	-1.7917	-2.0583	-1.1458	-2.125	236.353	40.424	75.626	233.134	106.565	347.550	338.650	300.410	369.344	109.250	27.612	245.081	314.704	151.880	169.335	342.085	0.0011772	0.001251	0.00063578	398.6	2.6359e-05	1.7808e-05	574.48	168.26	2.2486e-05	8.6832e-06	275.79	133.17	81.775	39.4	1.1637e-05	70.375	0.0060386	0.0062742	0.0017488	634.77	6.773e-05	6.7621e-05	753.44	228.01	6.5473e-05	6.6609e-05	410.37	162.84	126.76	49.183	6.4007e-05	82.351	40.589	232.269	119.812	25.925	118.897	102.883	25.485	31.921	42.393	94.735	29.005	32.903	34.985	38.430	204.780	35.719	-8191	255	
3426.791	1	1	0	0	0.21954	0.12675	0.094692	0.083499	0.058269	0.24386	0.18819	0.043518	0.066059	0.060968	0.21083	0.24643	0.20935	0.14915	0.20932	0.20243	-1.1833	-1.3896	-2.1208	-1.4333	-1.4917	-1.9937	-1.1979	-2.0792	-1.5542	-1.2875	-2.2396	-1.325	-1.5125	-2.125	-1.1521	-1.9396	94.517	100.514	243.735	125.429	261.188	260.126	64.898	193.244	112.979	257.353	342.596	363.200	247.999	102.632	195.269	271.289	0.0014896	0.0023686	0.00044746	401.21	1.7934e-05	8.5608e-06	583.1	170.42	8.831e-06	1.0673e-05	282.98	136.37	84.019	40.561	4.2958e-06	72.37	0.0056567	0.0058974	0.001661	625.43	6.4918e-05	6.5792e-05	754.47	228.04	6.4233e-05	6.4602e-05	411.23	164.87	126.61	49.825	6.3017e-05	83.799	15.871	244.434	146.823	25.464	39.964	92.630	24.720	31.149	155.035	204.219	28.516	32.625	34.961	38.364	302.102	36.032	-8191	255	
3426.887	1	1	0	0	0.096679	0.2734	0.37953	0.13657	0.047758	0.10251	0.096653	0.039362	0.42824	0.088207	0.12792	0.1255	0.24433	0.29918	0.11801	0.30782	-1.2938	-1.3146	-2.0042	-1.5417	-1.3937	-2.1875	-1.4271	-1.9729	-1.8021	-1.15	-2.0187	-1.7	-1.425	-2.0771	-1.2125	-2.0667	98.180	208.652	228.338	41.146	346.552	223.279	333.805	55.046	48.714	347.988	156.617	357.800	361.361	363.028	150.964	310.551	0.002172	0.0014032	0.0002439	407.84	1.9364e-05	1.2614e-05	591.13	174.57	3.2933e-06	3.3292e-05	288.65	139.58	84.433	40.748	1.8549e-05	73.614	0.0055745	0.0058045	0.0016378	625.99	6.3629e-05	6.472e-05	761.56	230.38	6.3757e-05	6.4965e-05	419.16	168.38	129.42	50.878	6.6689e-05	85.824	371.299	227.240	113.646	25.873	119.573	105.150	25.251	30.978	22.535	131.835	28.914	33.009	35.348	38.296	223.216	35.860	-8191	255	
3426.983	1	1	0	0	0.06523	0.24849	0.25463	0.082589	0.18444	0.1476	0.13605	0.16619	0.21898	0.21482	0.11089	0.26034	0.10866	0.062073	0.069533	0.29892	-1.4813	-1.4	-2.1271	-1.4958	-1.3458	-2.0438	-1.3312	-1.6958	-1.9708	-1.2854	-1.9396	-1.6354	-1.4375	-2.2479	-1.3354	-1.8229	289.954	148.544	27.180	163.726	330.438	246.273	289.288	364.125	190.108	60.812	24.732	24.669	260.106	352.473	282.016	296.179	0.0015228	0.001409	0.00070209	404.28	1.6247e-05	2.5875e-05	592.22	172.89	3.4176e-05	2.916e-05	288.91	139.01	83.553	40.805	1.5481e-05	73.47	0.0060115	0.0062216	0.0017434	640.58	6.7574e-05	6.8756e-05	774.07	233.64	6.8014e-05	6.8624e-05	427.65	170.49	131.89	51.393	6.9438e-05	86.219	22.338	77.474	272.464	25.849	118.043	339.688	24.798	32.014	206.544	108.931	28.806	32.541	35.141	38.055	184.297	35.612	-8191	255	
3427.079	1	1	0	0	0.052328	0.032776	0.15672	0.22078	0.13697	0.33027	0.14995	0.12337	0.055795	0.23667	0.30375	0.381	0.30838	0.06032	0.22733	0.28418	-1.5438	-1.1083	-1.9646	-1.7583	-1.2208	-2.2479	-1.5708	-1.4521	-2.0187	-1.2375	-1.9771	-1.7854	-1.3438	-2.0604	-1.4792	-1.6146	94.661	289.140	155.508	258.344	80.347	191.265	322.456	118.087	359.210	73.211	156.954	336.660	100.598	217.767	143.929	102.010	0.0016776	0.0019756	0.00058327	401.99	1.4008e-05	2.2537e-06	582.83	171.97	5.4747e-05	2.3748e-05	281.8	137.95	84.905	40.5	1.5513e-05	72.667	0.0061671	0.0064348	0.0018028	649.16	7.0592e-05	7.2094e-05	778.03	235.98	7.2746e-05	7.2626e-05	431.91	171.51	134.62	51.952	7.2506e-05	86.43	51.971	174.563	125.638	26.482	339.267	167.268	25.206	31.479	171.484	189.945	29.059	32.851	34.889	38.325	370.781	35.872	-8191	255	
3427.175	1	1	0	0	0.091216	0.093203	0.22377	0.24274	0.21982	0.13594	0.26204	0.14417	0.11785	0.13725	0.25084	0.20249	0.17992	0.097995	0.24958	0.2129	-1.5167	-1.0708	-1.8708	-1.8958	-1.2417	-1.9792	-1.4479	-1.4958	-2.0438	-1.3125	-1.8167	-1.9188	-1.125	-2.1896	-1.5833	-1.4354	355.302	52.121	297.576	161.485	230.124	296.901	322.519	33.639	155.080	210.044	44.510	344.977	41.488	23.441	139.636	306.549	0.0010019	0.00062251	0.00049195	395.12	1.6318e-05	2.2014e-05	579.36	169.78	2.2573e-05	3.2548e-05	283.34	136.32	83.033	40.456	1.4012e-05	71.719	0.0064296	0.0067174	0.0018826	660.85	7.442e-05	7.6585e-05	788.19	240.97	7.8636e-05	7.9384e-05	445.81	175.06	138.93	53.073	8.0249e-05	88.108	345.725	175.640	102.227	26.708	365.977	136.222	25.384	31.704	109.375	270.984	28.820	32.292	34.622	38.249	215.025	35.632	-8191	255	
3427.272	1	1	0	0	0.26496	0.17732	0.099561	0.23197	0.1494	0.2019	0.30351	0.26124	0.13645	0.15558	0.26851	0.1102	0.093773	0.14097	0.19013	0.36503	-1.5771	-1.3021	-1.8542	-1.9146	-0.95	-2.0938	-1.6646	-1.3396	-2.1646	-1.3479	-1.6604	-1.9604	-1.2396	-2.0146	-1.5521	-1.4	242.771	127.028	139.416	341.938	90.994	235.192	176.434	325.782	272.885	338.387	261.050	69.826	338.894	294.079	185.319	327.448	0.0012664	0.00046204	0.00053489	391.95	2.2123e-05	1.6231e-05	570.59	169.74	3.6919e-05	1.044e-05	283.24	137.96	83.591	40.698	2.2603e-05	72.089	0.0072002	0.0074741	0.0020981	687.86	8.1689e-05	8.2911e-05	805.94	244.83	8.2244e-05	8.2291e-05	453.91	177.25	141.03	53.611	8.2359e-05	89.037	52.616	368.591	256.677	26.196	296.409	195.837	24.942	32.020	251.873	278.788	29.108	32.960	35.221	38.231	63.498	35.995	-8191	255	
3427.368	1	1	0	0	0.22372	0.4188	0.17215	0.13631	0.3294	0.19018	0.12785	0.07659	0.15688	0.18382	0.085864	0.14939	0.167	0.352	0.26969	0.10824	-1.7583	-1.3687	-1.7313	-1.9771	-1.1896	-1.9562	-1.7604	-1.3167	-2.1833	-1.5979	-1.4771	-2.0208	-1.3208	-2.1708	-1.9521	-1.1292	22.074	92.160	174.813	371.801	128.029	108.608	320.150	342.984	323.785	91.195	325.433	83.952	93.589	318.339	197.286	26.893	0.0013799	0.00070729	0.0003001	395.04	1.3932e-05	1.0353e-05	581.71	172.6	1.0285e-05	7.1278e-06	287.75	138.8	84.277	40.969	2.2416e-05	72.906	0.0073373	0.0076458	0.0021293	695.34	8.2498e-05	8.4017e-05	813.26	247.75	8.2661e-05	8.2232e-05	457.99	178.85	140.99	53.79	8.1055e-05	89.593	358.341	98.973	55.635	26.025	118.448	109.639	25.253	32.001	170.847	280.166	29.402	32.708	34.671	39.092	238.298	35.859	-8191	255	
3427.464	1	1	0	0	0.11423	0.25106	0.19672	0.2443	0.070595	0.032823	0.084184	0.31628	0.14607	0.14774	0.12703	0.045113	0.16566	0.28212	0.082462	0.18109	-1.5521	-1.4312	-1.3292	-2.1937	-1.1917	-1.7229	-1.9833	-1.3583	-1.825	-1.6708	-1.3958	-2.0333	-1.4562	-1.7917	-1.9146	-1.4	117.915	328.260	98.122	356.917	323.301	21.194	60.384	317.824	209.419	216.828	325.262	183.898	292.390	20.463	197.407	295.962	0.0008836	0.0012023	0.00054442	394.61	5.6648e-06	1.4025e-05	581.06	172.37	1.9825e-05	9.2986e-06	286.62	138.85	83.8	40.907	1.2593e-05	72.975	0.0071682	0.0073646	0.0020526	687.11	7.9997e-05	8.1196e-05	808	244.72	8.0039e-05	7.9886e-05	451.27	177.28	139.85	53.488	7.9356e-05	88.659	87.744	47.096	210.393	27.067	332.487	70.289	25.463	31.944	277.410	82.129	29.011	33.004	35.046	38.563	100.928	35.861	-8191	255	
3427.585	1	1	0	0	0.11484	0.22711	0.15823	0.12506	0.17768	0.11167	0.19219	0.18146	0.085647	0.17809	0.10576	0.22127	0.2438	0.24707	0.099826	0.19846	-1.5812	-1.8125	-1.3208	-2.1667	-1.35	-1.6604	-2.0563	-1.3937	-1.8667	-1.8229	-1.1771	-2.1021	-1.4	-1.6333	-2.0125	-1.4188	138.130	108.074	26.157	133.681	50.861	315.856	358.800	192.523	278.682	122.923	357.140	319.540	36.137	210.697	368.801	327.656	0.00061775	0.0010754	0.00049033	396.86	2.0992e-05	7.7968e-06	580	172.04	2.2878e-05	4.4094e-06	285.65	138.96	84.886	41.07	1.722e-05	73.444	0.0070304	0.007218	0.0020045	675.82	7.7208e-05	7.7899e-05	795.11	240.89	7.6399e-05	7.6765e-05	443.78	175.88	138.08	52.978	7.7678e-05	88.444	328.618	149.280	24.255	26.381	130.668	120.590	25.219	31.942	94.612	117.644	28.736	32.935	35.064	38.280	323.341	36.127	-8191	255	
3427.679	1	1	0	0	0.22705	0.19304	0.19541	0.099648	0.22356	0.14971	0.26386	0.28078	0.077656	0.23815	0.24512	0.049747	0.20339	0.13984	0.13801	0.19127	-1.6125	-1.8333	-1.3896	-2.0125	-1.4292	-1.4562	-2.1042	-1.3021	-1.75	-1.9292	-1.3188	-2.2125	-1.6562	-1.6771	-2.1417	-1.5667	122.705	13.882	327.599	357.105	196.058	65.952	361.337	14.556	133.738	182.368	287.593	245.502	54.321	341.355	312.093	236.178	0.00044173	0.0034628	0.000203	396.25	2.1064e-05	1.8257e-05	576.72	170.63	2.2612e-05	3.3445e-05	286.86	139.16	84.929	41.182	4.9463e-06	73.643	0.006856	0.0071311	0.00199	676.04	7.8295e-05	7.9957e-05	802.54	242.47	7.8933e-05	7.9424e-05	446.44	176.49	138.42	53.042	7.589e-05	88.386	261.066	327.196	166.462	27.173	114.876	33.473	24.866	31.576	88.960	286.106	29.242	32.843	34.419	38.374	193.259	35.518	-8191	255	
3427.775	1	1	0	0	0.096373	0.041872	0.13515	0.15815	0.17662	0.21677	0.026611	0.083589	0.13526	0.26658	0.20641	0.18604	0.25838	0.28535	0.20516	0.22432	-1.4604	-1.9083	-1.0521	-1.9333	-1.4438	-1.2917	-2.2458	-1.4333	-1.6875	-2.0208	-1.0562	-1.9833	-1.8021	-1.45	-2.1479	-1.6375	371.682	322.201	200.664	109.840	166.636	165.098	70.490	293.235	274.532	293.169	89.499	170.706	96.932	325.534	297.527	337.397	0.0011699	0.0029612	0.00058592	397.52	1.2991e-05	1.7782e-05	586	171.35	9.5608e-06	2.4353e-05	290.2	142.22	85.223	41.469	1.9795e-05	74.807	0.0065982	0.0068463	0.0018923	662.62	7.3856e-05	7.4958e-05	794.08	239.51	7.5148e-05	7.613e-05	444.14	177.39	138.43	53.161	7.6478e-05	89.385	53.174	114.459	200.696	26.488	186.506	152.969	25.288	31.240	292.252	109.902	29.224	32.914	35.317	38.486	306.411	36.046	-8191	255	
3427.871	1	1	0	0	0.11244	0.23905	0.15374	0.32581	0.29693	0.33903	0.091869	0.2258	0.21726	0.2401	0.23506	0.090565	0.019185	0.34766	0.18319	0.32223	-1.2896	-2.0021	-1.3646	-1.7292	-1.825	-1.425	-2.2521	-1.5375	-1.775	-1.9312	-1.3396	-1.8271	-1.7146	-1.4417	-2	-1.5562	227.866	207.078	354.103	372.299	134.376	111.905	262.323	245.981	228.787	222.731	319.791	307.521	283.339	251.515	308.486	258.430	0.0023813	0.0018021	0.00057158	396.34	1.9657e-05	1.6164e-05	590.76	172.05	3.1326e-05	1.3823e-05	291.68	142.35	85.115	41.617	1.7682e-05	75.186	0.0067787	0.0070855	0.0019736	673.49	7.7608e-05	7.8452e-05	809.26	243.32	7.7643e-05	7.9365e-05	450.88	179.2	140.09	53.717	7.9249e-05	90.127	34.565	291.516	57.934	26.746	373.459	349.643	25.195	31.581	158.838	111.839	28.583	33.113	35.085	38.332	276.168	35.726	-8191	255	
3427.967	1	1	0	0	0.025017	0.24501	0.2783	0.24624	0.2247	0.13623	0.1791	0.10153	0.15649	0.20487	0.13355	0.19769	0.25168	0.080584	0.23897	0.084671	-1.2854	-2.0938	-1.1063	-1.8167	-1.8312	-1.2083	-2.1188	-1.5438	-1.4896	-2.1188	-1.4188	-1.8667	-1.8146	-1.2729	-2.0563	-1.6938	285.548	337.965	197.720	307.463	186.259	191.445	70.597	331.792	256.833	161.368	148.275	187.544	32.342	16.366	169.055	155.162	0.0019694	0.0025958	0.00022178	397.32	1.2874e-05	1.1487e-05	584.51	172.8	6.7084e-06	5.1996e-06	289.13	142.35	84.072	41.769	1.0652e-05	74.63	0.0069247	0.0072158	0.0019844	674.75	7.6902e-05	7.7352e-05	798.93	241.15	7.5011e-05	7.6484e-05	442.45	176.85	137.55	53.161	7.4761e-05	88.723	26.945	112.471	52.952	26.609	249.986	280.974	25.280	31.425	192.582	252.286	28.683	32.855	35.415	38.188	341.242	36.165	-8191	255	
3428.064	1	1	0	0	0.098125	0.34553	0.19045	0.079665	0.24015	0.16588	0.29631	0.21558	0.062472	0.2128	0.17617	0.12744	0.066849	0.23244	0.10012	0.15717	-0.94167	-2.2229	-1.3396	-1.425	-1.9042	-1.275	-2.1042	-1.775	-1.2188	-2.2833	-1.3896	-1.6042	-1.9292	-1.3604	-2.0958	-1.6458	62.345	149.240	23.790	61.686	337.000	116.735	319.848	51.885	183.441	124.361	335.996	306.559	293.204	275.731	30.801	165.860	0.002363	0.0014985	0.00026519	398.18	1.4381e-05	2.034e-05	585.92	173.09	2.1895e-05	3.7714e-06	288.42	143.41	85.537	42.056	1.4571e-05	75.415	0.0065275	0.0067701	0.0018633	657.48	7.3223e-05	7.2798e-05	786.67	238.86	7.2559e-05	7.413e-05	438.32	177.03	136.93	53.178	7.3795e-05	89.292	21.441	70.360	112.034	26.326	230.018	323.779	26.125	31.703	300.019	178.558	29.156	33.469	35.033	38.631	128.890	36.012	-8191	255	
3428.184	1	1	0	0	0.18828	0.23062	0.18967	0.22145	0.36418	0.15259	0.069773	0.146	0.097539	0.24834	0.27398	0.23841	0.11278	0.11896	0.25789	0.40834	-0.84792	-1.9167	-1.4833	-1.3625	-2.0271	-1.3625	-2.0062	-1.8292	-1.2979	-2.2021	-1.35	-1.4708	-2.1188	-1.2042	-1.6979	-1.7292	54.325	331.480	290.500	245.583	72.024	328.707	339.827	175.405	213.213	25.822	352.123	269.090	218.750	202.479	176.102	184.292	0.0016194	0.0018999	0.00019403	399.06	2.4372e-05	1.7152e-05	586.17	173.94	2.1126e-05	1.6883e-05	291.99	143.5	87.002	42.238	1.0955e-05	75.54	0.0065206	0.0068226	0.0018868	661.84	7.4371e-05	7.4614e-05	793.6	240.38	7.313e-05	7.4835e-05	441.29	178.34	138.37	53.551	7.4305e-05	90.242	20.826	238.424	358.517	26.310	343.163	74.495	25.463	31.814	362.301	143.568	28.917	32.635	35.595	38.578	192.393	35.719	-8191	255	
3428.280	1	1	0	0	0.093711	0.16578	0.21092	0.12224	0.039056	0.16271	0.21708	0.20841	0.15184	0.065081	0.21482	0.26456	0.21382	0.24928	0.13135	0.050757	-0.86458	-1.9292	-1.5271	-1.4688	-2.1333	-1.2146	-1.8271	-2.0271	-1.1875	-2.0792	-1.5354	-1.3479	-2.1167	-1.4625	-1.7583	-2.1604	38.278	272.069	43.510	15.706	212.089	320.537	349.302	298.453	59.052	357.323	225.975	214.635	232.508	313.181	256.527	228.433	0.00056484	0.00067443	0.00047634	399.62	1.1431e-05	7.7504e-06	599.42	175.5	5.5371e-06	2.4207e-05	293.29	144.12	87.649	42.653	1.3898e-05	76.796	0.0066199	0.0069641	0.0019115	666.07	7.4933e-05	7.4721e-05	801.53	241.42	7.332e-05	7.5051e-05	445.37	179.53	139.41	53.873	7.461e-05	90.918	23.341	188.172	187.914	27.166	266.921	294.781	25.724	31.790	256.907	297.677	29.456	33.028	35.314	38.493	237.205	35.815	-8191	255	
3428.376	1	1	0	0	0.36135	0.092423	0.15201	0.11831	0.12695	0.20295	0.30005	0.17209	0.30659	0.08643	0.098097	0.24998	0.024604	0.38709	0.35947	0.25527	-0.7875	-1.8188	-1.6292	-1.4167	-2.1021	-1.4375	-1.8083	-1.9375	-1.2271	-1.8917	-1.875	-1.4042	-2.1375	-1.5938	-1.4312	-2.2396	208.288	104.511	211.102	197.020	222.757	348.094	321.970	299.039	44.115	208.411	14.851	344.380	109.014	349.887	336.419	294.573	0.0015316	0.0014056	0.00050002	406.31	3.5709e-05	9.2699e-06	599.72	176.01	2.2285e-05	3.4489e-05	295.69	147.02	87.904	43.071	1.3042e-05	77.65	0.0065108	0.0067747	0.0018683	663.23	7.3363e-05	7.3311e-05	800.4	241.28	7.1665e-05	7.2832e-05	442.01	179.11	137.85	53.747	7.2111e-05	90.777	36.330	93.527	117.311	25.795	233.995	137.113	25.916	31.901	42.071	298.133	29.629	33.102	35.216	38.598	144.733	35.691	-8191	255	
3428.473	1	1	0	0	0.14488	0.13706	0.10607	0.056072	0.21476	0.18534	0.037263	0.17227	0.18831	0.36547	0.22704	0.1871	0.14736	0.058648	0.1757	0.11507	-0.90208	-1.8042	-1.7167	-1.2188	-1.9562	-1.4104	-1.5229	-2.1271	-1.4146	-1.7125	-1.9688	-1.1833	-2.0625	-1.7833	-1.4729	-2.1417	39.691	271.088	160.068	40.937	316.846	319.467	93.693	363.194	133.242	302.161	285.183	322.590	366.167	120.029	246.086	305.524	0.001317	0.0011692	0.00017573	399.28	2.6356e-05	1.8383e-05	594.6	174.41	1.1449e-05	1.8645e-05	290.79	144.56	86.52	42.829	1.9895e-05	77.054	0.0063274	0.0066385	0.0018394	654.32	7.1797e-05	7.153e-05	791.98	238.19	7.0356e-05	7.2438e-05	436.79	177.45	136.33	53.402	7.1292e-05	89.821	30.739	120.520	27.298	26.145	144.741	82.567	25.787	31.845	47.418	210.956	29.188	32.868	35.220	38.535	190.365	35.958	-8191	255	
3428.567	1	1	0	0	0.23601	0.017798	0.22676	0.064164	0.30998	0.21698	0.12052	0.045676	0.1098	0.13971	0.15085	0.24133	0.26076	0.28892	0.051538	0.14643	-1.0354	-1.7625	-1.8896	-1.1292	-1.9646	-1.5542	-1.4396	-2.2521	-1.2667	-1.6313	-2.1625	-1.2833	-1.8917	-1.5646	-1.2917	-2.2771	111.109	322.568	357.166	180.651	59.578	306.873	328.530	201.898	280.724	222.093	277.508	224.192	196.079	322.617	199.622	334.760	0.0017501	0.0016753	0.0001573	400.98	1.1043e-05	2.231e-05	590.69	172.43	2.4905e-05	2.4338e-05	289.72	144.01	86.991	42.391	2.9475e-05	76.199	0.00617	0.0064987	0.0018057	646.97	7.0358e-05	7.0811e-05	782.5	235.61	7.0101e-05	7.1404e-05	432.74	176.28	135.94	53.2	7.0728e-05	89.49	20.101	25.030	252.256	26.476	217.993	188.544	25.901	32.268	178.463	94.449	29.874	32.986	35.612	38.840	240.371	35.958	-8191	255	
#DATA ENDS
