BOXY.EXE: ISS Imagent and Oximeter Data Acquisition Program Version 0.80
Ascii Record File

#ACQ INFORMATION
2  Detector Channels 
16  External MUX Channels 
1  Auxiliary Channels 
5000  Waveform (CCF) Frequency (Hz)
1  Waveforms Skipped 
30  Waveforms Averaged 
1  Cycles Averaged 
16  Acquisitions per Waveform 
10.0806  Updata Rate (Hz) 

#FILE INFORMATION
TRUE -- External MUX Channel results are PARSED.
FALSE -- AC DC and Phase are NOT grouped.
TRUE -- Companion Program Settings File CREATED.
FALSE -- AC data not excluded
FALSE -- DC data not excluded
FALSE -- Phase data not excluded
FALSE -- Auxillary Chn. data not excluded
Tab delimiters

#CALIBRATION STATE
TRUE -- Waveform Calibration Values APPLIED.


#AUX CALIBRATION VALUES
Val Type	aux-1	

Term	1.0000e+00	
Factor	0.0000e+00	


#WF CALIBRATION VALUES
A = Detector Channel
Val Type	A-AC1	A-AC2	A-AC3	A-AC4	A-AC5	A-AC6	A-AC7	A-AC8	A-AC9	A-AC10	A-AC11	A-AC12	A-AC13	A-AC14	A-AC15	A-AC16	A-DC1	A-DC2	A-DC3	A-DC4	A-DC5	A-DC6	A-DC7	A-DC8	A-DC9	A-DC10	A-DC11	A-DC12	A-DC13	A-DC14	A-DC15	A-DC16	A-Ph1	A-Ph2	A-Ph3	A-Ph4	A-Ph5	A-Ph6	A-Ph7	A-Ph8	A-Ph9	A-Ph10	A-Ph11	A-Ph12	A-Ph13	A-Ph14	A-Ph15	A-Ph16	

Term	0.00000e+00	0.00000e+00	0.00000e+00	0.00000e+00	0.00000e+00	0.00000e+00	0.00000e+00	0.00000e+00	0.00000e+00	0.00000e+00	0.00000e+00	0.00000e+00	0.00000e+00	0.00000e+00	0.00000e+00	0.00000e+00	0.00000e+00	0.00000e+00	0.00000e+00	0.00000e+00	0.00000e+00	0.00000e+00	0.00000e+00	0.00000e+00	0.00000e+00	0.00000e+00	0.00000e+00	0.00000e+00	0.00000e+00	0.00000e+00	0.00000e+00	0.00000e+00	0.00000e+00	0.00000e+00	0.00000e+00	0.00000e+00	0.00000e+00	0.00000e+00	0.00000e+00	0.00000e+00	0.00000e+00	0.00000e+00	0.00000e+00	0.00000e+00	0.00000e+00	0.00000e+00	0.00000e+00	0.00000e+00	
Factor	1.00000e+00	1.00000e+00	1.00000e+00	1.00000e+00	1.00000e+00	1.00000e+00	1.00000e+00	1.00000e+00	1.00000e+00	1.00000e+00	1.00000e+00	1.00000e+00	1.00000e+00	1.00000e+00	1.00000e+00	1.00000e+00	1.00000e+00	1.00000e+00	1.00000e+00	1.00000e+00	1.00000e+00	1.00000e+00	1.00000e+00	1.00000e+00	1.00000e+00	1.00000e+00	1.00000e+00	1.00000e+00	1.00000e+00	1.00000e+00	1.00000e+00	1.00000e+00	X	X	X	X	X	X	X	X	X	X	X	X	X	X	X	X	

B = Detector Channel
Val Type	B-AC1	B-AC2	B-AC3	B-AC4	B-AC5	B-AC6	B-AC7	B-AC8	B-AC9	B-AC10	B-AC11	B-AC12	B-AC13	B-AC14	B-AC15	B-AC16	B-DC1	B-DC2	B-DC3	B-DC4	B-DC5	B-DC6	B-DC7	B-DC8	B-DC9	B-DC10	B-DC11	B-DC12	B-DC13	B-DC14	B-DC15	B-DC16	B-Ph1	B-Ph2	B-Ph3	B-Ph4	B-Ph5	B-Ph6	B-Ph7	B-Ph8	B-Ph9	B-Ph10	B-Ph11	B-Ph12	B-Ph13	B-Ph14	B-Ph15	B-Ph16	

Term	0.00000e+00	0.00000e+00	0.00000e+00	0.00000e+00	0.00000e+00	0.00000e+00	0.00000e+00	0.00000e+00	0.00000e+00	0.00000e+00	0.00000e+00	0.00000e+00	0.00000e+00	0.00000e+00	0.00000e+00	0.00000e+00	0.00000e+00	0.00000e+00	0.00000e+00	0.00000e+00	0.00000e+00	0.00000e+00	0.00000e+00	0.00000e+00	0.00000e+00	0.00000e+00	0.00000e+00	0.00000e+00	0.00000e+00	0.00000e+00	0.00000e+00	0.00000e+00	-1.60646e+02	-1.31022e+02	-1.25289e+02	-1.86209e+02	-7.18792e+01	-6.66958e+01	-1.58474e+02	-1.62015e+02	-7.97830e+01	-6.76213e+01	-1.72128e+02	-1.71386e+02	-1.83279e+02	-1.77394e+02	-7.09845e+01	-1.49699e+02	
Factor	2.28142e-05	1.35801e-04	4.02598e-05	2.77733e-01	1.31646e-06	1.49048e-06	1.53129e-01	4.67114e-02	1.21370e-06	1.46712e-06	7.52218e-02	2.47388e-02	3.57489e-02	7.91092e-03	1.34422e-06	1.11941e-02	1.85564e-05	4.45642e-05	1.25709e-05	1.49093e-01	4.45853e-07	5.11453e-07	7.76909e-02	2.52998e-02	4.01722e-07	5.10017e-07	3.95400e-02	1.30392e-02	1.96821e-02	4.33613e-03	4.36568e-07	5.95756e-03	X	X	X	X	X	X	X	X	X	X	X	X	X	X	X	X	



#DISTANCE SETTINGS
A = Detector Channel
A-1	A-2	A-3	A-4	A-5	A-6	A-7	A-8	A-9	A-10	A-11	A-12	A-13	A-14	A-15	A-16	

2.5000e+00	3.0000e+00	2.5000e+00	3.0000e+00	2.0000e+00	3.0000e+00	1.5000e+00	3.0000e+00	3.0000e+00	3.0000e+00	3.0000e+00	3.0000e+00	3.0000e+00	3.0000e+00	1.5000e+00	3.0000e+00	

B = Detector Channel
B-1	B-2	B-3	B-4	B-5	B-6	B-7	B-8	B-9	B-10	B-11	B-12	B-13	B-14	B-15	B-16	

1.0000e+01	1.0000e+01	1.0000e+01	1.4400e+00	1.0000e+01	1.0000e+01	1.5100e+00	1.9400e+00	1.0000e+01	1.0000e+01	1.9900e+00	2.4900e+00	2.4100e+00	2.9000e+00	1.0000e+01	2.9800e+00	




#DATA BEGINS
time	group	step	mark	flag	A-AC1	A-AC2	A-AC3	A-AC4	A-AC5	A-AC6	A-AC7	A-AC8	A-AC9	A-AC10	A-AC11	A-AC12	A-AC13	A-AC14	A-AC15	A-AC16	A-DC1	A-DC2	A-DC3	A-DC4	A-DC5	A-DC6	A-DC7	A-DC8	A-DC9	A-DC10	A-DC11	A-DC12	A-DC13	A-DC14	A-DC15	A-DC16	A-Ph1	A-Ph2	A-Ph3	A-Ph4	A-Ph5	A-Ph6	A-Ph7	A-Ph8	A-Ph9	A-Ph10	A-Ph11	A-Ph12	A-Ph13	A-Ph14	A-Ph15	A-Ph16	B-AC1	B-AC2	B-AC3	B-AC4	B-AC5	B-AC6	B-AC7	B-AC8	B-AC9	B-AC10	B-AC11	B-AC12	B-AC13	B-AC14	B-AC15	B-AC16	B-DC1	B-DC2	B-DC3	B-DC4	B-DC5	B-DC6	B-DC7	B-DC8	B-DC9	B-DC10	B-DC11	B-DC12	B-DC13	B-DC14	B-DC15	B-DC16	B-Ph1	B-Ph2	B-Ph3	B-Ph4	B-Ph5	B-Ph6	B-Ph7	B-Ph8	B-Ph9	B-Ph10	B-Ph11	B-Ph12	B-Ph13	B-Ph14	B-Ph15	B-Ph16	aux-1	digaux	

35642.035	1	1	0	256	0.10382	0.14539	0.22598	0.19172	0.1295	0.14033	0.36883	0.074152	0.14532	0.063931	0.33204	0.13922	0.20699	0.31339	0.031136	0.21296	-2.4813	-1.9833	-2.3542	-2.7188	-1.8917	-2.6646	-2.7104	-1.9896	-2.7896	-2.2646	-2.3229	-2.7104	-2.0062	-2.65	-2.6167	-1.9937	244.599	278.437	121.191	126.992	396.733	331.978	336.697	386.971	400.902	251.190	333.510	133.658	158.795	256.792	401.851	238.997	0.00032183	0.00015945	0.00010399	1042.4	2.892e-06	4.0884e-06	1134.7	214.8	1.8284e-06	1.8629e-06	272.85	76.572	59.538	17.248	2.2604e-06	24.527	0.00047006	0.00074543	0.00020616	1040.3	8.0189e-06	8.0884e-06	1136	216.7	6.9908e-06	7.9084e-06	275.26	77.9	60.958	17.777	6.5922e-06	25.096	137.603	163.615	151.318	80.219	215.030	227.226	80.087	87.685	197.577	178.567	87.316	93.966	94.374	101.701	204.105	101.367	-8191	255	
35642.129	1	1	0	0	0.16681	0.22742	0.14383	0.19174	0.34292	0.060229	0.29733	0.13393	0.021807	0.09554	0.30381	0.14443	0.15646	0.090226	0.18222	0.12274	-2.2917	-2.1625	-2.1375	-2.8604	-2.0271	-2.5396	-2.8937	-2.0542	-2.7104	-2.4417	-2.1125	-2.7833	-2.1354	-2.4604	-2.7354	-2.1375	282.620	321.609	180.026	253.992	273.184	345.390	325.364	429.223	156.503	267.858	429.295	376.799	103.685	289.254	242.966	377.008	0.0003173	0.00033553	7.1818e-05	1043	3.1956e-06	1.8569e-06	1131.7	214.3	3.3661e-06	1.611e-06	272.01	76.114	60.122	17.231	1.8459e-06	24.012	0.00046534	0.00072203	0.00020331	1042.1	7.7941e-06	7.7229e-06	1137.1	216.46	6.7807e-06	7.2529e-06	275.87	77.839	60.979	17.81	6.7732e-06	24.989	134.927	146.850	150.234	80.073	215.084	230.556	80.080	87.641	209.943	212.500	87.117	93.861	94.635	101.733	235.393	101.059	-8191	255	
35642.227	1	1	0	0	0.17279	0.22466	0.024897	0.016678	0.069444	0.18158	0.19441	0.24096	0.17733	0.12465	0.17794	0.19114	0.21658	0.15199	0.04717	0.18138	-2.4083	-2.3708	-1.9979	-2.8792	-2.1229	-2.2313	-2.8958	-1.9646	-2.6312	-2.3229	-2.0396	-3.1083	-2.3292	-2.3667	-2.6979	-2.0417	140.387	398.397	232.928	368.110	109.724	368.780	384.066	349.616	245.316	110.380	375.006	417.596	110.017	99.195	222.238	382.432	0.00034208	0.00023239	0.00010128	1038.9	3.9565e-06	4.1794e-06	1133.9	213.86	2.6704e-06	2.8285e-06	270.14	76.144	60.041	17.335	3.0861e-06	24.306	0.00046797	0.0006875	0.00020137	1039.8	7.3668e-06	8.1875e-06	1137.1	216.6	6.6569e-06	7.6386e-06	275.29	77.725	60.961	17.796	6.7477e-06	25.002	136.833	148.777	156.214	80.369	239.770	215.863	80.188	87.595	207.660	192.153	87.139	94.176	94.528	101.855	207.667	101.159	-8191	255	
35642.320	1	1	0	0	0.11254	0.2007	0.079995	0.14584	0.20531	0.11107	0.27826	0.27455	0.21585	0.036785	0.28314	0.13994	0.054235	0.094679	0.052474	0.039386	-2.2125	-2.3292	-2.0542	-2.9104	-2.0729	-2.15	-2.9229	-2.1312	-2.4042	-2.5667	-2.0729	-2.6604	-2.3125	-2.2771	-2.875	-2.1458	363.535	218.769	350.068	234.399	107.177	288.814	388.585	389.939	416.142	323.273	120.108	384.195	164.621	183.276	181.567	104.492	0.0003482	0.00040847	7.4072e-05	1040.1	4.0248e-06	3.92e-06	1134.3	214.55	4.1396e-06	3.5388e-06	270.47	76.642	60.319	17.236	3.3802e-06	24.08	0.00047075	0.00066837	0.00019265	1039.6	7.338e-06	8.0799e-06	1138	216.42	6.7858e-06	7.4707e-06	275.19	78.04	61.079	17.793	6.473e-06	24.968	138.943	151.717	144.390	80.171	208.806	231.677	80.297	87.888	226.724	232.898	87.571	93.943	94.634	102.007	218.471	101.213	-8191	255	
35642.418	1	1	0	0	0.24736	0.064739	0.2495	0.25175	0.12342	0.13587	0.11837	0.14714	0.2735	0.06236	0.18977	0.23732	0.13839	0.27672	0.064306	0.08652	-1.9417	-2.5417	-1.8917	-2.7729	-2.3729	-2.2521	-2.9604	-1.95	-2.4437	-2.6271	-2.1375	-2.5167	-2.4146	-2.1292	-2.7812	-2.2479	153.190	248.349	387.127	331.786	108.794	99.559	423.895	72.929	341.367	288.281	369.152	143.472	294.862	350.876	385.780	383.156	0.000322	0.00027905	8.561e-05	1044.8	1.7506e-06	2.0647e-06	1130.4	213.79	3.6871e-06	1.4559e-06	270.19	76.335	60.099	17.226	2.4806e-06	24.299	0.00048181	0.00063458	0.00019066	1043.4	7.3278e-06	7.8306e-06	1136.2	216.33	6.579e-06	7.7193e-06	275.21	77.995	61.059	17.753	6.7777e-06	25.034	134.048	175.278	162.491	80.266	237.253	222.600	79.919	87.781	192.779	279.583	87.402	94.160	94.533	101.709	275.523	101.555	-8191	255	
35642.516	1	1	0	0	0.063005	0.043895	0.17657	0.18534	0.19309	0.209	0.45609	0.25781	0.14559	0.11651	0.10492	0.12328	0.081839	0.036406	0.24415	0.15887	-1.8979	-2.75	-2.0021	-2.7062	-2.4313	-1.9937	-2.8896	-2.2958	-2.2458	-3.0104	-2.1063	-2.5521	-2.4771	-2.0396	-2.7417	-2.1792	175.420	340.980	159.528	98.312	336.912	341.013	343.089	96.037	306.757	111.972	295.191	211.921	210.745	103.610	77.870	109.376	0.00032881	0.00038117	7.7197e-05	1041.6	2.9868e-06	3.5364e-06	1122.8	212.95	3.7547e-06	2.5447e-06	270.85	76.52	59.41	17.195	4.7243e-06	24.254	0.00048873	0.00065593	0.00018977	1041.7	7.0928e-06	8.13e-06	1135.8	215.63	6.6828e-06	7.4218e-06	274.72	78.001	60.853	17.738	6.3712e-06	25.043	137.583	171.556	158.174	80.065	224.039	206.023	80.042	87.769	192.660	212.401	86.870	94.492	94.677	101.849	213.328	101.579	-8191	255	
35642.633	1	1	0	0	0.31476	0.10469	0.35285	0.1546	0.14224	0.087498	0.33205	0.068552	0.049633	0.067735	0.10065	0.092246	0.35205	0.16608	0.089059	0.47958	-1.9042	-2.8521	-2.0229	-2.6937	-2.5167	-2.275	-2.8833	-2.4854	-2.1958	-2.8542	-2.0333	-2.4542	-2.55	-2.0958	-2.7188	-2.3292	209.944	312.832	190.172	88.685	199.595	128.462	403.018	367.742	136.819	118.957	170.812	319.319	96.189	242.313	364.319	369.593	0.00033172	0.00028298	9.1551e-05	1031.1	1.8901e-06	2.145e-06	1128.3	213.06	3.2086e-06	1.7795e-06	270.35	76.084	60.448	17.313	3.0805e-06	24.208	0.00046383	0.00066104	0.00019647	1038.8	7.3008e-06	8.0074e-06	1136.3	215.8	7.1448e-06	7.4027e-06	274.68	77.9	61.255	17.789	7.2925e-06	25.007	138.535	166.773	144.783	80.403	226.746	150.734	80.252	87.777	231.361	220.879	87.232	94.384	94.776	101.923	228.399	101.349	-8191	255	
35642.730	1	1	0	0	0.23952	0.35738	0.23782	0.27004	0.13991	0.051932	0.24663	0.36884	0.088418	0.026597	0.096559	0.14093	0.14659	0.12823	0.15918	0.055273	-1.8229	-2.7625	-2.0792	-2.4458	-2.8063	-2.0042	-2.8354	-2.2313	-2.1208	-2.8583	-2.1396	-2.4396	-2.7125	-1.9854	-2.4979	-2.3854	133.391	153.962	227.493	344.474	249.069	363.074	79.843	71.360	264.485	245.099	100.949	97.351	256.479	227.493	330.003	327.822	0.00035401	0.00012164	8.3395e-05	1043.5	2.3001e-06	3.0227e-06	1137.4	214.91	3.4471e-06	2.9769e-06	272.6	76.674	60.056	17.237	2.2054e-06	24.328	0.00049434	0.00070346	0.00019776	1044.6	7.0603e-06	7.6569e-06	1139.3	216.47	7.3222e-06	7.2369e-06	276	78.184	61.06	17.771	7.0915e-06	25.053	134.229	184.936	194.474	80.300	178.903	219.383	80.231	87.853	207.388	234.094	87.345	93.818	94.492	101.986	217.276	101.365	-8191	255	
35642.801	1	1	0	0	0.27433	0.12227	0.22059	0.15325	0.053149	0.043351	0.041385	0.21002	0.45048	0.109	0.33573	0.18826	0.066583	0.21203	0.074173	0.20119	-1.5833	-2.6917	-2.0146	-2.2188	-2.8833	-2.0542	-2.9208	-2.5854	-1.9833	-2.6896	-2.2104	-2.3125	-2.7812	-2.0854	-2.4021	-2.5958	97.060	332.644	247.031	369.065	161.318	226.599	361.441	309.742	214.182	246.993	73.309	350.509	256.278	343.261	147.829	352.309	0.00032833	0.00027889	9.872e-05	1037	2.634e-06	3.5101e-06	1137.1	214.79	3.9087e-06	1.8726e-06	272.35	76.349	59.61	17.254	2.9961e-06	24.221	0.00048571	0.00067905	0.00019495	1040.4	7.2721e-06	7.773e-06	1138.4	216.9	7.1582e-06	7.5992e-06	275.95	77.931	61.07	17.764	6.8932e-06	25.022	132.168	178.527	175.505	80.168	212.760	231.296	80.353	87.757	226.173	292.680	87.035	94.288	94.684	101.738	222.685	101.433	-8191	255	
35642.898	1	1	0	0	0.085078	0.1554	0.20371	0.05039	0.076474	0.070731	0.34077	0.19747	0.072053	0.076096	0.24303	0.35568	0.17488	0.18139	0.1862	0.14228	-1.6208	-2.7021	-2.0646	-2.2208	-2.6646	-2.1208	-2.5229	-2.7125	-1.9979	-2.6854	-2.45	-1.95	-2.9646	-1.9333	-2.2333	-2.6625	341.373	113.128	91.502	340.818	126.598	147.066	310.757	260.879	168.151	180.513	425.014	407.055	287.016	413.104	360.311	316.171	0.00030384	0.00023824	6.7287e-05	1042	2.9447e-06	3.3351e-06	1125	214.31	2.6017e-06	2.1901e-06	270.42	76.055	60.039	17.186	1.9136e-06	24.138	0.00048073	0.0006823	0.00019621	1041.2	7.2145e-06	7.919e-06	1136.1	216.76	6.882e-06	7.5472e-06	275.6	77.885	61.086	17.779	7.0851e-06	24.978	136.573	140.512	127.971	80.631	226.293	237.093	80.239	87.549	205.658	215.761	87.269	94.332	94.618	101.246	226.718	101.260	-8191	255	
35643.020	1	1	0	0	0.043103	0.1513	0.015611	0.22621	0.25656	0.079667	0.39454	0.0482	0.061443	0.22058	0.26139	0.19727	0.075393	0.19608	0.24787	0.036369	-1.5896	-2.4188	-2.3208	-2.1125	-2.8292	-2.025	-2.5646	-2.8042	-1.9271	-2.6604	-2.5354	-1.7604	-2.8458	-2.25	-2.2917	-2.9229	81.374	254.772	292.169	360.595	369.594	367.158	370.945	365.719	158.061	151.884	338.664	133.357	139.356	102.766	160.551	215.192	0.00032951	0.00030572	4.3384e-05	1031	3.9524e-06	2.1938e-06	1135.5	214.9	2.4394e-06	2.3516e-06	272.96	76.212	60.039	17.213	1.8219e-06	24.053	0.00047972	0.00068712	0.0001866	1039.1	7.1206e-06	7.6526e-06	1138.9	216.66	6.9071e-06	7.5674e-06	276.07	78.144	61.139	17.789	6.7131e-06	24.958	132.562	174.157	179.287	80.231	223.780	257.452	80.292	87.659	232.390	230.435	87.047	94.116	94.841	101.872	227.175	101.328	-8191	255	
35643.113	1	1	0	0	0.10868	0.097093	0.19583	0.40187	0.12509	0.10972	0.30438	0.18089	0.19992	0.1284	0.12995	0.35494	0.14815	0.20945	0.10683	0.17547	-1.6625	-2.3937	-2.3729	-1.975	-2.9229	-2.1396	-2.2479	-2.7292	-1.9854	-2.4708	-2.7458	-2.0625	-2.6688	-2.2146	-2.1875	-2.8875	106.797	104.943	390.947	336.929	304.200	204.631	399.538	328.659	422.291	333.384	427.395	316.336	142.610	72.231	97.867	349.532	0.00028124	0.00027212	0.0001121	1040.2	3.8311e-06	3.0819e-06	1130.3	214.71	3.2881e-06	3.8292e-06	270.64	75.916	60.303	17.132	2.6751e-06	24.205	0.0004636	0.00065166	0.00018794	1040.2	7.0185e-06	7.3074e-06	1138.2	216.55	6.8243e-06	7.6162e-06	275.32	77.76	61.303	17.758	6.7432e-06	25.058	136.515	148.042	150.042	80.582	220.241	219.000	80.375	87.949	210.739	210.706	87.045	94.391	94.191	101.822	229.813	101.374	-8191	255	
35643.211	1	1	0	0	0.12906	0.037575	0.17828	0.10485	0.18466	0.18033	0.087973	0.15189	0.29664	0.23923	0.082669	0.33782	0.32509	0.091218	0.096675	0.31408	-1.6542	-2.5042	-2.6625	-1.9458	-2.6167	-2.35	-2.275	-2.8208	-2.0479	-2.2917	-2.9542	-2.2167	-2.8396	-2.6	-2.0729	-2.8646	310.697	240.091	221.937	398.541	382.591	419.926	385.996	104.587	72.246	215.619	230.640	99.880	101.545	283.354	393.420	390.748	0.0003165	0.00030471	5.8516e-05	1036.7	3.1216e-06	2.0735e-06	1130	214.76	2.4809e-06	3.2688e-06	270.79	76.224	60.082	17.217	1.919e-06	24.073	0.00046639	0.00067348	0.00018883	1040	7.2238e-06	7.2349e-06	1137.5	217.05	6.7314e-06	7.4261e-06	275.68	77.901	61.214	17.795	6.8277e-06	25.07	132.952	159.177	170.994	80.314	232.757	225.348	80.190	87.863	215.942	229.468	87.417	94.149	94.418	101.762	223.488	101.593	-8191	255	
35643.305	1	1	0	0	0.15855	0.16975	0.065405	0.14218	0.14095	0.2911	0.18791	0.15853	0.099174	0.22975	0.15844	0.26476	0.13667	0.10115	0.12023	0.1268	-1.6812	-2.2917	-2.6021	-2.0958	-2.5312	-2.3792	-2.3354	-2.8083	-1.8958	-2.2042	-2.8104	-2.1042	-2.6813	-2.7271	-2.0417	-2.8667	138.056	165.764	401.791	161.469	324.853	145.618	315.452	354.475	286.764	320.480	425.244	290.774	218.022	195.889	244.058	417.584	0.00032735	0.0003682	6.8103e-05	1033.6	4.368e-06	2.4051e-06	1126.4	213.56	4.1757e-06	2.5969e-06	270.27	76.533	59.727	17.125	2.3961e-06	23.79	0.00046468	0.00067868	0.00017927	1039.9	7.1327e-06	7.1412e-06	1136.9	216.79	6.7832e-06	7.6067e-06	275.68	77.939	61.365	17.722	6.9096e-06	25.001	134.190	150.799	159.442	80.219	213.893	226.717	80.165	87.829	215.388	205.172	87.202	94.090	94.573	101.907	226.668	101.422	-8191	255	
35643.426	1	1	0	0	0.23017	0.056172	0.33299	0.087265	0.27592	0.091985	0.39514	0.087294	0.16281	0.21902	0.083527	0.11183	0.17904	0.080756	0.19778	0.059195	-1.9333	-2.1021	-2.7104	-2.0563	-2.5417	-2.6833	-2.3583	-2.8229	-2.5	-2.1312	-2.7917	-2.3167	-2.45	-2.6542	-1.9729	-2.7521	269.004	142.520	211.746	317.939	197.638	101.781	349.661	411.575	153.246	362.726	323.138	405.624	314.513	331.445	215.644	134.928	0.00035481	0.00020645	0.00011767	1033.2	3.4643e-06	4.3898e-06	1124.5	213.52	2.9034e-06	2.7858e-06	270.86	75.956	59.771	17.305	2.8966e-06	24.252	0.00046294	0.00066726	0.00016698	1040.9	6.7668e-06	7.1518e-06	1138.1	216.56	6.4736e-06	7.5302e-06	275.74	77.891	61.115	17.806	6.6859e-06	25.068	134.904	196.361	171.129	80.373	217.109	221.587	80.070	88.054	219.743	223.280	87.115	94.102	94.665	101.545	221.134	101.387	-8191	255	
35643.500	1	1	0	0	0.20209	0.15307	0.060062	0.14006	0.035985	0.094509	0.22861	0.050064	0.15768	0.12436	0.065126	0.3066	0.17735	0.13985	0.055177	0.15478	-1.8771	-2.0687	-2.7771	-2.0583	-2.4125	-2.6875	-2.225	-2.9208	-2.5479	-2.1312	-2.9667	-2.25	-2.3521	-2.6917	-2.0104	-2.8104	144.634	102.173	336.365	122.859	321.497	400.817	390.099	362.005	190.971	280.290	317.008	106.832	401.224	330.122	418.610	392.272	0.00035677	0.00013822	9.9904e-05	1030.6	2.3807e-06	2.3619e-06	1125.4	213.4	3.0998e-06	2.6055e-06	270.4	76.085	59.615	17.218	2.4645e-06	23.946	0.00047636	0.00065491	0.00016863	1037.8	7.2349e-06	6.6095e-06	1136.4	216.24	6.4326e-06	7.0967e-06	275.19	77.931	61.11	17.813	6.2911e-06	25.044	140.414	167.267	128.750	80.294	203.490	225.997	80.105	88.124	216.200	200.398	87.405	94.260	94.631	101.952	227.317	101.430	-8191	255	
35643.617	1	1	0	0	0.30824	0.38882	0.1236	0.14202	0.13232	0.23602	0.29735	0.36948	0.15363	0.03339	0.080079	0.19802	0.20438	0.15079	0.093956	0.17565	-2.0771	-2.0979	-2.7812	-2.3896	-2.1354	-2.8542	-2.3187	-2.6896	-2.5312	-2.1125	-2.8646	-2.3729	-2.2583	-2.7812	-2.1854	-2.4521	343.036	361.044	396.356	283.934	315.700	71.001	405.698	338.865	237.105	291.553	383.220	331.833	241.275	317.274	367.754	102.505	0.00032148	0.00031733	5.4367e-05	1028.2	3.304e-06	2.7603e-06	1121.8	212.8	2.6315e-06	3.8031e-06	269.64	75.261	59.256	17.158	2.3655e-06	23.872	0.00045374	0.00064107	0.00017845	1038.1	6.7909e-06	7.0208e-06	1136.8	216.54	6.5372e-06	7.2518e-06	275.2	77.652	61.11	17.739	6.7131e-06	24.983	136.314	146.391	179.823	80.383	204.840	220.531	80.320	87.898	203.636	226.109	87.552	94.180	94.900	101.804	192.898	101.190	-8191	255	
35643.715	1	1	0	0	0.075757	0.14386	0.28858	0.17217	0.086072	0.31348	0.42977	0.28831	0.183	0.23118	0.071661	0.16577	0.14881	0.11889	0.15551	0.046887	-2.1562	-2.0854	-2.6833	-2.4042	-2.2583	-2.9479	-2.1875	-2.4479	-2.8083	-2.0146	-2.8896	-2.5375	-2.1604	-2.9646	-2.0667	-2.5083	429.848	93.216	255.398	131.315	360.683	110.553	352.349	341.241	216.912	94.476	250.637	291.661	372.595	324.763	104.674	278.077	0.00030524	0.00019535	9.5491e-05	1029	3.4998e-06	4.8115e-06	1117.8	211.05	2.9494e-06	2.3418e-06	268.03	75.04	59.489	17.06	3.0301e-06	24.011	0.00045939	0.00066289	0.00016866	1038.7	7.2061e-06	6.8354e-06	1136	216.15	6.5389e-06	7.6917e-06	275.57	77.688	61.223	17.753	6.7786e-06	25.112	139.961	140.947	186.267	80.289	211.428	220.582	80.485	88.013	199.538	202.190	87.507	94.450	94.948	102.026	236.127	101.566	-8191	255	
35643.809	1	1	0	0	0.14823	0.15702	0.1559	0.048359	0.20654	0.085933	0.16007	0.16658	0.18098	0.10904	0.08989	0.15224	0.35012	0.06206	0.22472	0.28234	-2.6271	-2.0438	-2.7167	-2.5167	-1.9333	-2.6646	-2.0896	-2.3604	-2.7375	-2.2	-2.6646	-2.675	-2.0104	-2.7729	-2.2292	-2.2646	179.713	328.733	401.473	156.438	391.980	73.071	333.701	163.873	363.139	214.804	352.901	223.802	72.344	92.420	401.173	304.140	0.00026761	0.00036855	7.4733e-05	1021	3.8043e-06	3.9754e-06	1120.9	211.99	2.9419e-06	2.7708e-06	269.38	75.45	59.217	17.014	4.6893e-06	23.979	0.00042061	0.0006641	0.0001766	1035.1	6.9414e-06	6.8577e-06	1135.4	216.81	6.2685e-06	7.3304e-06	276.01	77.885	61.133	17.734	6.795e-06	25.005	137.001	150.887	174.793	80.216	225.994	201.936	80.547	88.094	183.752	244.157	87.392	94.370	94.825	102.203	217.071	101.926	-8191	255	
35643.906	1	1	0	0	0.11265	0.13813	0.22541	0.2115	0.1438	0.18886	0.26466	0.32022	0.19091	0.20022	0.18329	0.1207	0.35879	0.26682	0.10832	0.18454	-2.3187	-2.0417	-2.5646	-2.7167	-2	-2.7729	-2.4125	-2.2042	-2.7333	-2.0187	-2.5583	-2.5979	-1.7854	-2.5792	-2.3187	-2.1021	198.879	408.725	222.983	430.026	296.852	288.350	414.447	339.543	248.658	151.847	344.071	175.323	384.547	211.683	278.853	122.844	0.00033101	0.00035125	8.1576e-05	1029.2	3.3199e-06	2.9284e-06	1121.7	210.76	2.6734e-06	2.735e-06	269.16	75.664	59.422	17.059	3.0685e-06	23.683	0.00043901	0.00066261	0.00018788	1040.5	6.8587e-06	7.0304e-06	1136.5	216.01	6.2183e-06	7.7554e-06	274.89	77.862	61.136	17.722	6.6195e-06	24.96	132.450	144.729	188.896	80.277	231.544	216.908	80.201	88.249	215.150	208.628	87.593	94.627	94.909	102.045	221.117	101.610	-8191	255	
35644.027	1	1	0	0	0.20054	0.032043	0.11173	0.28927	0.10971	0.036984	0.3488	0.22361	0.23814	0.16032	0.22205	0.085261	0.18583	0.12184	0.17883	0.073187	-2.3021	-2.1083	-2.3438	-2.7667	-1.9542	-2.7188	-2.5208	-1.9	-2.7917	-2.1104	-2.1437	-2.9083	-2.0396	-2.7333	-2.7	-2.225	300.474	346.236	187.803	139.189	269.339	307.558	337.606	362.330	131.292	422.706	157.084	236.967	238.942	400.240	83.452	164.490	0.00031335	0.00022893	7.7987e-05	1023.4	3.1903e-06	1.9795e-06	1115.8	211.52	2.3038e-06	2.5802e-06	269.8	75.077	59.002	16.997	2.0627e-06	23.626	0.0004549	0.00066076	0.00017688	1036.4	7.3984e-06	6.8876e-06	1134.9	216.37	6.1363e-06	7.4261e-06	275.73	77.624	60.828	17.79	6.1565e-06	24.932	134.399	166.280	145.931	80.441	221.585	201.760	80.110	87.929	189.196	217.329	87.126	94.179	94.707	101.824	242.256	101.395	-8191	255	
35644.098	1	1	0	0	0.25789	0.14361	0.15843	0.13452	0.099435	0.29539	0.31481	0.15957	0.049801	0.091061	0.087432	0.079228	0.14222	0.29575	0.18301	0.27181	-2.3312	-2.3083	-2.225	-2.8167	-2.1354	-2.5646	-2.6521	-1.9896	-2.8646	-2.1063	-2.3208	-2.9708	-2.0021	-2.4583	-2.4417	-1.9729	427.179	272.700	343.271	381.891	145.688	381.995	353.902	317.185	122.122	74.148	109.650	370.966	231.822	425.129	329.547	73.255	0.00032341	0.00027608	0.00011946	1020.1	4.6757e-06	3.0804e-06	1123.2	210.84	4.241e-06	2.1699e-06	267.91	75.733	58.947	17.1	3.1705e-06	23.933	0.00043519	0.00063049	0.00018196	1038.4	6.9442e-06	6.9579e-06	1138.7	216	6.1229e-06	7.0914e-06	276.29	78.012	61.006	17.788	6.5012e-06	24.945	133.481	177.401	166.799	80.499	217.130	225.334	80.504	87.966	201.568	264.629	88.044	94.736	94.723	102.377	212.106	101.722	-8191	255	
35644.195	1	1	0	0	0.16162	0.15051	0.12884	0.11497	0.24174	0.068772	0.25127	0.11298	0.056871	0.090166	0.21557	0.21317	0.12904	0.077726	0.099578	0.10032	-2.3917	-2.225	-2.0917	-2.9042	-2.1396	-2.5792	-2.4625	-2.0604	-2.7167	-2.3854	-2.2042	-2.6208	-2.2083	-2.4146	-2.6771	-2.0083	361.070	303.299	89.564	195.593	336.091	229.401	422.588	175.903	299.623	342.479	389.163	417.328	196.518	316.456	224.198	208.184	0.00032902	0.00033742	8.4477e-05	1022.3	3.8576e-06	2.9114e-06	1127	212.97	2.5766e-06	3.5646e-06	270.18	76.279	59.795	17.12	1.6193e-06	23.935	0.00045382	0.00060422	0.00018327	1038.2	7.1931e-06	7.2072e-06	1138.1	216.58	5.9321e-06	7.0722e-06	275.56	78.205	61.261	17.777	5.9828e-06	25.075	133.096	156.767	159.093	80.180	235.753	223.659	80.238	88.039	214.892	209.466	87.380	93.868	94.521	101.830	247.437	101.841	-8191	255	
35644.289	1	1	0	0	0.27637	0.074582	0.43906	0.052479	0.17354	0.11349	0.18196	0.080556	0.30214	0.023099	0.024929	0.18682	0.16702	0.099429	0.086647	0.13419	-2.3771	-2.2792	-2.0187	-2.8354	-2.1667	-2.3646	-3.0687	-2.0292	-2.6333	-2.5646	-2.275	-2.7687	-2.2	-2.4396	-2.6562	-2.0312	391.053	286.045	143.809	196.349	236.167	292.895	326.535	372.577	170.234	409.647	156.779	162.632	330.251	86.849	226.600	182.393	0.00029441	0.00028625	8.676e-05	1031.6	2.2574e-06	2.9918e-06	1125.1	213.18	3.7292e-06	2.3275e-06	269.58	75.454	59.93	17.055	1.2382e-06	23.926	0.00044791	0.00060152	0.00018189	1040.4	6.7565e-06	6.8908e-06	1138.8	216.6	6.2644e-06	6.8374e-06	275.89	77.519	61.263	17.77	6.0492e-06	25.027	135.821	145.201	182.587	80.307	223.185	242.345	80.017	87.860	206.435	229.167	87.549	93.953	94.414	102.022	194.583	101.098	-8191	255	
35644.410	1	1	0	0	0.40532	0.32497	0.19128	0.43196	0.10146	0.082279	0.38064	0.35406	0.16172	0.02436	0.033321	0.092692	0.067119	0.057031	0.18627	0.15636	-2.0208	-2.4917	-1.8687	-2.7979	-2.15	-2.2333	-3.025	-2.0375	-2.2875	-2.5333	-1.9979	-2.7771	-2.3146	-2.2062	-2.4833	-2	325.791	146.341	184.538	400.649	222.786	200.990	359.512	352.463	71.464	300.566	268.794	387.280	374.413	198.212	271.073	347.379	0.00031255	0.00029207	6.7939e-05	1029.2	2.9324e-06	3.2697e-06	1122.4	211.66	3.4069e-06	1.9231e-06	269.03	76.325	59.563	17.178	3.1678e-06	23.904	0.0004505	0.00061694	0.0001701	1038.7	7.1169e-06	7.1582e-06	1136.6	216.35	6.2468e-06	6.6632e-06	275.36	78.065	60.992	17.792	6.4849e-06	25.019	138.728	182.205	190.472	80.068	219.464	223.647	80.490	87.912	222.295	237.204	87.299	94.481	94.873	101.867	215.143	101.287	-8191	255	
35644.508	1	1	0	0	0.12858	0.13786	0.17791	0.079837	0.10678	0.26118	0.27984	0.23379	0.042515	0.074928	0.29883	0.10541	0.29041	0.15883	0.052946	0.22404	-1.9479	-2.7104	-1.8854	-2.7125	-2.4229	-1.9896	-3.0396	-2.2062	-2.4896	-2.7208	-2.0938	-2.6271	-2.5938	-2.0146	-2.7313	-2.2292	388.907	314.652	76.425	262.815	81.707	377.048	407.688	388.780	429.717	313.498	142.831	332.328	415.230	216.540	391.793	364.937	0.00034346	0.00028167	4.2302e-05	1025	2.3544e-06	1.784e-06	1119.7	213	2.583e-06	2.3914e-06	269.64	75.767	59.474	17.08	2.7438e-06	23.904	0.0004534	0.00057618	0.00016819	1038.1	6.4677e-06	6.845e-06	1136.2	216.66	6.1355e-06	6.8895e-06	275.97	78.032	61.141	17.833	6.4339e-06	25.01	134.236	157.272	155.688	80.170	207.554	246.539	80.346	88.007	214.798	222.121	87.235	94.181	94.859	102.295	228.360	101.276	-8191	255	
35644.602	1	1	0	0	0.33591	0.23023	0.23814	0.071302	0.11912	0.11913	0.067171	0.059524	0.092341	0.24613	0.19919	0.46381	0.17293	0.084188	0.17796	0.11938	-1.8667	-2.6375	-1.925	-2.5875	-2.5104	-2.0146	-2.8875	-2.2208	-2.175	-2.6979	-2.2354	-2.4729	-2.6479	-2.1	-2.7542	-2.4604	419.206	287.692	99.779	292.915	231.544	136.008	310.271	297.558	96.491	326.187	340.703	400.032	198.740	99.857	114.643	73.532	0.00030137	0.00031314	8.0444e-05	1025.6	2.0177e-06	2.6607e-06	1120.3	211.37	1.3392e-06	3.164e-06	268.65	75.555	59.243	16.909	3.4498e-06	23.805	0.00043666	0.00057878	0.00018521	1039.6	6.541e-06	6.7395e-06	1137.2	216.12	6.3162e-06	6.8321e-06	276.24	77.724	61.039	17.769	6.0483e-06	24.995	134.614	161.674	136.817	80.066	214.084	231.341	80.411	87.954	238.533	225.153	87.385	94.496	94.624	101.968	211.184	101.436	-8191	255	
35644.699	1	1	0	0	0.25133	0.2295	0.17914	0.075812	0.16142	0.21011	0.24355	0.24375	0.24232	0.22862	0.15435	0.082265	0.15794	0.23411	0.14418	0.11359	-1.7979	-2.6229	-2.0062	-2.5708	-2.4625	-1.9813	-3.1792	-2.5458	-2.2125	-2.8917	-2.0938	-2.4625	-2.6562	-2	-2.7021	-2.4688	314.150	312.417	135.093	305.807	92.887	396.657	370.404	116.671	289.594	408.677	77.268	228.945	409.554	352.214	158.121	205.280	0.00033541	0.00019459	0.00010021	1029.1	3.377e-06	2.4402e-06	1112.3	211.8	3.1712e-06	3.7231e-06	268.48	75.555	59.646	16.833	2.9516e-06	23.809	0.00045985	0.00056504	0.00017591	1042.1	6.5011e-06	7.3063e-06	1136.4	216.74	6.4744e-06	6.6058e-06	276.11	78.103	61.25	17.784	6.1165e-06	25.031	130.864	178.059	178.497	80.614	212.297	225.607	80.309	87.820	201.448	211.734	87.402	94.553	94.644	101.870	208.090	101.504	-8191	255	
35644.793	1	1	0	0	0.26061	0.10112	0.17176	0.1343	0.13923	0.14869	0.41332	0.2658	0.21826	0.14592	0.097089	0.10942	0.33718	0.094737	0.13833	0.26565	-1.6417	-2.7542	-2.0854	-2.3833	-2.7229	-1.9188	-2.8583	-2.6146	-2.1792	-2.8354	-2.2	-2.2938	-2.9125	-2.1229	-2.65	-2.675	287.284	152.778	209.728	84.606	180.618	199.553	356.648	405.208	86.538	406.844	412.858	155.713	351.680	354.423	142.405	78.129	0.00031139	0.00037236	6.4608e-05	1023.1	2.7873e-06	2.119e-06	1117.1	211.06	3.5964e-06	3.7063e-06	268.33	75.188	59.313	17.042	3.4014e-06	23.971	0.00042916	0.00057506	0.00017002	1038.7	6.5856e-06	7.0218e-06	1135.8	216.37	6.5246e-06	6.8321e-06	275.7	77.887	61.221	17.799	5.7882e-06	25.08	134.276	153.358	189.132	80.813	222.331	240.854	80.644	87.918	225.819	239.664	87.361	94.507	94.653	101.669	224.951	101.288	-8191	255	
35644.891	1	1	0	0	0.16212	0.19405	0.14522	0.11253	0.047735	0.14159	0.42692	0.066286	0.10307	0.19997	0.06038	0.12564	0.13578	0.12041	0.11506	0.26308	-1.6521	-2.7646	-2.2167	-2.1854	-2.9333	-2.1875	-2.7333	-2.6188	-2.0354	-2.6562	-2.3417	-2.1979	-3.0021	-2.1	-2.3917	-2.6896	355.588	199.387	304.500	84.259	288.324	97.353	343.367	144.058	219.628	426.700	150.080	380.213	409.405	293.889	180.273	409.126	0.00032962	0.00025955	0.00010376	1021.1	3.6285e-06	3.6133e-06	1117.5	210.84	2.9353e-06	4.8155e-06	267.51	75.48	59.039	16.936	3.269e-06	23.664	0.00045556	0.0005668	0.00017458	1039	6.4231e-06	6.4369e-06	1137.2	216.56	6.2242e-06	6.6185e-06	275.81	77.959	61.209	17.725	6.1256e-06	25.027	139.275	116.962	182.311	80.511	213.240	233.107	80.573	87.788	183.748	230.874	87.660	94.347	94.902	101.839	176.525	101.285	-8191	255	
35645.012	1	1	0	0	0.27	0.15443	0.09986	0.27324	0.14327	0.29987	0.36166	0.34372	0.11078	0.29714	0.30443	0.29498	0.18948	0.18981	0.043677	0.16619	-1.6521	-2.8167	-2.2854	-2.1146	-2.6979	-2.0729	-2.4562	-2.8042	-1.9688	-2.7938	-2.5604	-2.3333	-2.7458	-2.2667	-2.3604	-2.6917	316.077	419.360	309.118	99.302	404.544	328.213	372.335	391.908	177.456	248.790	304.289	79.376	177.241	85.384	77.053	428.402	0.0002973	0.00029512	8.4027e-05	1016.3	3.201e-06	1.3438e-06	1110	211.62	2.9988e-06	3.8268e-06	268.85	75.495	58.791	17.127	2.68e-06	23.78	0.00043001	0.00058342	0.00017217	1034.7	6.1453e-06	6.911e-06	1136.3	216.72	6.1288e-06	6.8757e-06	275.58	77.909	61.04	17.789	6.4257e-06	24.961	137.086	158.455	158.147	80.770	193.861	189.765	80.435	87.796	214.946	196.608	86.986	94.461	95.129	102.251	240.989	101.143	-8191	255	
35645.105	1	1	0	0	0.36034	0.2569	0.061183	0.20567	0.16632	0.085488	0.095371	0.30503	0.1319	0.021517	0.12767	0.19729	0.024462	0.26737	0.21899	0.14763	-1.55	-2.7604	-2.3896	-2.0958	-3.0146	-2.4083	-2.4562	-2.775	-1.9979	-2.6688	-2.6583	-2.1708	-2.8333	-2.1813	-2.2208	-2.9021	343.832	418.996	89.634	418.592	116.376	317.724	88.729	379.594	329.894	114.655	202.746	376.075	352.383	92.153	389.604	113.463	0.0003245	0.00022479	8.7545e-05	1018	3.6805e-06	1.9672e-06	1115.1	212.07	1.6119e-06	2.8593e-06	267.66	75.462	59.138	17.034	2.2995e-06	23.829	0.00044767	0.00057729	0.00016319	1037	6.541e-06	6.8673e-06	1135.8	216.97	6.2669e-06	6.6037e-06	275.84	77.954	61.188	17.798	6.302e-06	24.949	139.295	164.196	166.188	80.809	206.187	216.730	80.483	88.146	234.870	227.264	87.440	94.257	94.396	101.948	203.053	101.266	-8191	255	
35645.199	1	1	0	0	0.19714	0.06938	0.19121	0.16946	0.20706	0.23494	0.17175	0.12107	0.072344	0.21497	0.1307	0.17696	0.081093	0.14564	0.13118	0.10549	-1.6	-2.4333	-2.7062	-2.1562	-2.9125	-2.3312	-2.3312	-2.8979	-2.1042	-2.4875	-2.6292	-2.0083	-2.6896	-2.6104	-2.2583	-2.8812	159.892	380.414	74.190	321.867	316.491	200.789	394.006	224.965	131.945	372.566	105.216	294.343	347.820	313.979	126.226	421.546	0.00035398	0.00020802	7.1314e-05	1023.8	3.651e-06	2.7168e-06	1114.7	210.89	3.0732e-06	2.6195e-06	269.12	75.113	58.882	16.911	2.156e-06	23.614	0.00045413	0.00057423	0.00016253	1040.4	6.0748e-06	6.5605e-06	1136.5	216.65	6.1489e-06	6.5293e-06	276.17	77.905	60.978	17.781	6.0647e-06	25.036	133.255	179.112	149.177	80.330	233.275	201.982	80.500	88.027	202.991	234.290	87.527	94.229	94.811	102.313	180.383	101.453	-8191	255	
35645.297	1	1	0	0	0.067788	0.2664	0.11632	0.13803	0.1582	0.046728	0.34427	0.26689	0.10721	0.24867	0.1098	0.16284	0.11982	0.30221	0.25883	0.11745	-1.65	-2.3271	-2.7917	-2.0646	-2.7583	-2.3979	-2.1771	-2.7125	-1.9521	-2.3396	-2.7771	-2.0625	-2.8438	-2.5875	-2.0187	-2.8187	81.394	101.206	310.440	414.993	229.559	370.775	370.348	424.132	137.537	252.304	275.012	234.129	416.984	229.158	71.224	328.131	0.0003123	0.00033037	7.7352e-05	1016.6	2.7107e-06	3.3508e-06	1108.5	210.76	2.843e-06	2.8638e-06	267.61	75.184	58.695	16.809	2.4746e-06	23.543	0.00042483	0.00061935	0.00016295	1036.5	6.3581e-06	6.6734e-06	1133.6	216.64	6.2167e-06	7.0616e-06	276.35	77.944	61.103	17.784	6.2165e-06	24.935	132.745	147.711	182.297	80.760	220.097	234.583	80.388	87.965	224.195	227.089	87.530	94.152	94.756	102.067	200.893	101.627	-8191	255	
35645.395	1	1	0	0	0.11463	0.16105	0.24927	0.17988	0.22388	0.1968	0.4281	0.39138	0.1135	0.41766	0.04105	0.17414	0.26027	0.22418	0.02532	0.18902	-1.6125	-2.1562	-2.7521	-2.0271	-2.6521	-2.6104	-2.1063	-2.8312	-2.2792	-2.2542	-2.9042	-2.0521	-2.5229	-2.6813	-2.0146	-2.8292	428.840	185.493	423.292	347.626	418.516	159.454	366.437	119.295	424.253	147.965	107.659	127.628	246.600	379.899	340.593	368.516	0.00032476	0.00028629	9.3647e-05	1016.5	3.3722e-06	2.4013e-06	1105.2	210.9	3.7125e-06	2.0625e-06	266.59	74.974	59.083	16.932	2.5915e-06	23.821	0.00044253	0.00062427	0.00016502	1037.5	6.3562e-06	6.5711e-06	1132.2	216.86	5.9212e-06	6.8204e-06	275.81	77.74	61.102	17.765	6.2475e-06	25.017	134.698	158.305	175.196	80.198	228.453	184.711	80.477	88.337	217.073	249.832	87.329	94.509	95.093	101.769	223.763	101.487	-8191	255	
35645.488	1	1	0	0	0.19048	0.11047	0.08664	0.15986	0.14587	0.33896	0.028918	0.19662	0.06562	0.29347	0.10972	0.12171	0.2727	0.27627	0.039169	0.18061	-1.8896	-2.0312	-2.8125	-2.1333	-2.4146	-2.7938	-2.0854	-2.8063	-2.5104	-2	-2.7354	-2.1167	-2.4062	-2.7917	-1.9625	-2.8333	104.845	72.655	81.044	330.826	118.508	355.791	195.173	378.680	176.031	287.278	321.414	349.419	304.923	95.011	177.972	327.006	0.00036276	0.00014845	0.00010385	1011.5	1.0117e-06	3.2435e-06	1106.8	209.78	2.7355e-06	1.5141e-06	265.91	74.658	58.59	16.861	3.1641e-06	23.694	0.00045537	0.00060774	0.00015907	1036.5	6.4872e-06	6.5082e-06	1133.9	216.24	5.8601e-06	6.1585e-06	276.05	77.798	60.859	17.764	6.2684e-06	25.02	135.187	200.438	153.912	80.622	219.624	224.387	80.485	88.141	215.328	222.759	87.284	94.502	95.038	102.358	220.709	101.213	-8191	255	
35645.609	1	1	0	0	0.30746	0.15135	0.16914	0.27464	0.12055	0.12764	0.14597	0.10039	0.24623	0.10976	0.18586	0.14737	0.039163	0.20585	0.15458	0.19615	-2.0271	-2.1854	-2.8896	-2.1292	-2.3104	-2.8292	-2.1875	-2.7104	-2.4875	-2.1125	-2.8146	-2.175	-2.3187	-2.8208	-1.9062	-2.7104	161.223	343.185	176.647	418.151	385.750	415.999	417.233	406.224	106.241	71.617	142.416	287.104	129.582	309.417	367.206	346.839	0.00028938	0.00022488	8.1017e-05	1007.2	2.5386e-06	2.4352e-06	1104.1	210.32	3.2182e-06	3.0548e-06	266.25	74.972	58.314	16.744	2.6016e-06	23.694	0.00041207	0.00060793	0.00016659	1036.1	6.4398e-06	6.6308e-06	1133.4	216.55	6.0141e-06	6.9065e-06	275.8	77.792	60.97	17.742	6.5367e-06	25	140.692	184.276	174.572	80.716	205.847	217.538	80.470	88.362	220.527	216.559	87.434	93.948	94.672	102.201	209.935	101.869	-8191	255	
35645.707	1	1	0	0	0.30719	0.057049	0.22478	0.091162	0.17664	0.27087	0.41206	0.10881	0.19342	0.17476	0.22613	0.1718	0.17809	0.049852	0.063425	0.034048	-2.1625	-1.7792	-2.825	-2.2896	-2.1146	-2.8937	-2.1375	-2.7854	-2.5625	-2.0292	-2.7396	-2.3542	-2.2562	-2.7708	-2.0021	-2.4229	79.884	178.274	110.944	185.068	417.232	387.245	351.763	398.364	409.013	413.644	196.800	286.184	390.482	359.294	425.775	343.615	0.00034467	0.000325	7.491e-05	1014.1	4.2804e-06	3.0594e-06	1104.9	209.15	3.1125e-06	2.3718e-06	266.67	74.5	58.356	16.95	2.7398e-06	23.671	0.00043132	0.00060756	0.00015779	1036.9	6.5568e-06	6.0746e-06	1132.5	216.3	5.8082e-06	6.6972e-06	275.59	77.594	60.853	17.756	6.2338e-06	24.938	134.365	159.706	142.890	80.399	233.305	219.935	80.495	87.979	189.735	223.540	87.612	94.785	94.610	102.128	240.305	101.802	-8191	255	
35645.805	1	1	0	0	0.27556	0.30114	0.18914	0.076773	0.16522	0.10105	0.16737	0.30784	0.097034	0.15032	0.15381	0.22826	0.16986	0.32046	0.16343	0.34803	-2.2938	-2.0083	-2.6854	-2.4542	-2.0187	-2.9313	-2.2583	-2.3979	-2.7042	-2.0104	-2.95	-2.5604	-2.125	-3.0167	-2.2687	-2.2917	245.176	304.736	196.696	399.732	261.314	127.484	302.571	284.744	359.274	164.753	345.957	86.377	309.271	420.290	418.153	385.647	0.00029283	0.00028798	7.0766e-05	1010.5	4.2718e-06	2.4899e-06	1096	209.06	3.7236e-06	2.6945e-06	265.18	74.354	58.566	16.804	3.4938e-06	23.491	0.00041601	0.00062854	0.00016219	1034.4	6.3757e-06	6.3836e-06	1130.1	216.41	6.0434e-06	7.0967e-06	275.74	77.638	60.985	17.713	5.9337e-06	24.936	138.124	157.520	162.585	80.277	222.846	245.317	80.680	88.303	218.151	233.887	87.577	94.658	94.891	102.153	226.308	101.701	-8191	255	
35645.898	1	1	0	0	0.060576	0.11686	0.08313	0.29144	0.24561	0.20457	0.19087	0.11039	0.22341	0.076401	0.12623	0.18913	0.18106	0.12095	0.15941	0.22814	-2.1292	-2.1354	-2.6583	-2.4729	-1.9438	-2.9	-2.4417	-2.3396	-2.6854	-2.0042	-2.6375	-2.7438	-2.1312	-2.6979	-2.2333	-2.1604	321.452	150.819	194.954	401.706	253.392	300.552	390.898	426.713	178.438	410.741	366.021	350.898	123.207	427.754	411.369	403.528	0.0003051	0.00032742	8.6311e-05	1003.8	2.8304e-06	2.6005e-06	1097.5	208.93	2.4652e-06	1.8526e-06	265.38	74.4	58.339	16.974	3.0994e-06	23.884	0.00041984	0.00063903	0.00015813	1032.1	6.7955e-06	6.4337e-06	1130.2	215.91	5.6475e-06	6.3008e-06	275.06	77.41	60.664	17.779	5.8909e-06	25.027	138.025	160.880	141.414	80.384	210.061	222.451	80.531	88.132	216.768	228.224	87.701	94.580	95.426	101.993	215.355	101.756	-8191	255	
35645.973	1	1	0	0	0.18912	0.18387	0.07219	0.14244	0.1913	0.26754	0.33513	0.16596	0.12205	0.32552	0.1161	0.13031	0.10889	0.28127	0.06955	0.26877	-2.4021	-2	-2.6375	-2.7687	-1.9375	-2.6312	-2.3833	-1.9813	-2.6917	-1.9979	-2.3896	-2.8458	-2.1937	-2.9021	-2.5229	-2.3042	272.925	349.782	313.349	400.678	202.406	378.307	352.551	406.511	163.046	336.202	103.453	405.259	183.289	408.398	201.703	382.062	0.00030438	0.00027332	9.3728e-05	1012.4	2.857e-06	4.2746e-06	1105.7	211.94	2.6752e-06	1.9902e-06	268.61	75.409	58.998	16.903	2.6146e-06	23.837	0.00041269	0.00060979	0.00015439	1033.5	6.2782e-06	6.1087e-06	1129.5	216.8	5.8543e-06	6.423e-06	275.65	77.696	60.904	17.723	5.719e-06	25.002	136.280	174.031	183.273	80.442	213.909	203.024	80.381	88.199	197.888	237.851	87.632	94.253	94.719	102.321	206.257	101.309	-8191	255	
35646.090	1	1	0	0	0.10484	0.25715	0.17607	0.18733	0.27627	0.10342	0.46094	0.061636	0.19565	0.067005	0.24492	0.18178	0.10693	0.27407	0.23865	0.17744	-2.5062	-2.05	-2.2896	-2.7979	-2.1396	-2.6604	-2.6292	-2.1833	-2.8792	-2.3563	-2.2542	-2.8917	-1.925	-2.6312	-2.4437	-1.9771	211.236	208.042	72.636	218.710	115.691	127.527	377.615	104.807	289.187	134.885	263.931	380.672	374.332	347.441	301.948	394.830	0.00029761	0.00014864	6.9591e-05	1016.7	3.874e-06	2.201e-06	1109.8	210.41	2.9758e-06	3.2501e-06	267.58	74.42	58.783	16.858	2.8104e-06	23.516	0.0004077	0.00060143	0.0001564	1035.9	6.5373e-06	6.2973e-06	1129.9	216.3	5.7053e-06	6.4113e-06	275.54	77.552	60.723	17.713	5.6144e-06	24.841	133.493	173.455	171.911	80.372	191.729	229.334	80.350	88.296	213.244	213.849	87.636	94.661	95.177	102.343	220.182	101.602	-8191	255	
35646.188	1	1	0	0	0.21212	0.083851	0.088504	0.32938	0.048043	0.18059	0.061119	0.28516	0.032676	0.12646	0.22349	0.113	0.16195	0.058489	0.27406	0.070225	-2.375	-2.2604	-2.2917	-2.7562	-2.1208	-2.6146	-2.8688	-2.2354	-2.6875	-2.3042	-2.3063	-2.8958	-2.1458	-2.6521	-2.5479	-2.125	369.813	353.691	129.681	315.849	411.635	95.377	418.308	293.069	220.559	114.519	343.740	182.292	79.453	417.475	224.598	301.979	0.00031796	0.000316	8.187e-05	1007.9	3.1029e-06	2.571e-06	1103.5	209.06	3.2413e-06	2.3312e-06	265.47	74.364	57.963	16.905	3.3392e-06	23.523	0.00041354	0.00061202	0.00016515	1034.2	6.5633e-06	6.7405e-06	1130.5	215.77	5.8518e-06	6.6462e-06	274.94	77.551	60.655	17.75	5.3052e-06	24.915	139.731	157.575	186.338	80.346	211.462	237.603	80.670	87.763	240.147	230.312	87.813	94.704	94.657	102.275	232.502	101.055	-8191	255	
35646.281	1	1	0	0	0.1527	0.093943	0.15324	0.31714	0.11718	0.12386	0.33301	0.23789	0.02031	0.26359	0.22385	0.030886	0.12254	0.091422	0.19942	0.3203	-2.4896	-2.3917	-1.9729	-3.0271	-1.9312	-2.4792	-3.0104	-2.0604	-2.5667	-2.5625	-2.0125	-2.8	-2.2354	-2.3375	-2.875	-2.3292	156.687	247.760	211.170	352.036	258.687	71.859	330.294	373.743	93.748	263.783	427.976	323.808	424.546	121.568	81.379	350.794	0.00030759	0.00012058	8.8238e-05	1003.5	1.5187e-06	2.5345e-06	1098	208.48	2.8146e-06	4.0864e-06	265.93	74.47	58.331	16.878	3.0061e-06	23.465	0.00041489	0.00057785	0.00016452	1032.6	6.189e-06	6.7267e-06	1129.3	215.83	5.8886e-06	6.32e-06	275.07	77.496	60.83	17.721	5.6281e-06	24.857	132.279	146.524	184.177	80.941	208.427	231.444	80.388	88.161	199.942	233.224	87.593	94.597	94.896	102.520	220.372	102.367	-8191	255	
35646.379	1	1	0	0	0.27938	0.13695	0.13449	0.046784	0.25064	0.15599	0.36222	0.10097	0.22442	0.045018	0.19509	0.21006	0.13429	0.35409	0.047787	0.35306	-2.4292	-2.5104	-2.1375	-2.8333	-2.1167	-2.3417	-2.7854	-2.0521	-2.5771	-2.5646	-2.25	-2.9646	-2.2438	-2.2792	-2.9562	-2.15	260.396	164.718	75.529	150.114	114.541	265.088	345.305	348.946	360.897	75.437	263.692	359.593	177.742	372.981	404.583	364.854	0.00032526	0.0002478	6.5112e-05	1007	3.0252e-06	2.9295e-06	1100.6	209.65	3.1498e-06	4.1164e-06	265.17	74.514	58.05	16.782	2.7258e-06	23.524	0.00040666	0.00057516	0.0001656	1031.4	6.1035e-06	6.5743e-06	1128.4	216.26	5.7204e-06	6.2296e-06	274.69	77.673	60.473	17.69	5.6927e-06	24.903	134.835	162.398	163.809	80.580	206.172	216.775	80.653	88.272	206.788	229.706	87.874	94.489	94.978	102.390	196.901	101.609	-8191	255	
35646.500	1	1	0	0	0.26338	0.14753	0.091241	0.43499	0.061458	0.16028	0.27626	0.32098	0.10104	0.21801	0.16409	0.23962	0.17361	0.25788	0.17415	0.031738	-2.3625	-2.7188	-1.9625	-2.7583	-2.3542	-2.35	-3.0167	-2.1896	-2.5083	-2.825	-2.1792	-2.7771	-2.4729	-2.0375	-2.7167	-2.1958	127.381	236.938	330.359	122.660	311.745	151.441	367.831	388.393	233.845	315.618	282.596	75.093	370.552	356.537	324.757	213.799	0.00028807	0.00016673	7.7894e-05	1014.2	2.2643e-06	3.5039e-06	1094	208.06	4.1545e-06	2.8275e-06	264.44	74.763	58.23	16.729	2.6596e-06	23.423	0.00041377	0.00055037	0.00016127	1033.5	6.2206e-06	6.6894e-06	1128.5	215.52	5.8601e-06	5.9003e-06	273.99	77.751	60.52	17.708	6.0128e-06	24.869	137.462	156.510	167.315	80.368	213.605	225.268	80.576	88.257	205.023	209.290	87.824	94.877	94.798	102.223	227.377	101.777	-8191	255	
35646.594	1	1	0	0	0.16596	0.13455	0.072745	0.12231	0.2773	0.11545	0.20035	0.080988	0.16648	0.22325	0.35237	0.083103	0.40867	0.092317	0.26063	0.25027	-2.1063	-2.8438	-2.0375	-2.7792	-2.4667	-2.1771	-3.0396	-2.175	-2.3	-2.8604	-2.1146	-2.6229	-2.6167	-2.1125	-2.7604	-2.3646	253.292	160.355	80.818	150.358	172.403	121.082	419.121	340.568	94.106	223.869	387.316	303.945	360.604	298.814	327.430	338.252	0.00035135	0.00030668	8.0355e-05	1027.7	3.3901e-06	1.9626e-06	1122.5	213.83	3.2869e-06	2.6854e-06	270.94	76.487	60.147	17.262	3.8399e-06	24.355	0.00044369	0.00052632	0.0001619	1039.6	5.9958e-06	6.5626e-06	1134.9	217.19	5.8057e-06	6.1096e-06	276.3	78.049	61.233	17.799	5.6963e-06	25.195	134.615	139.223	164.776	80.360	232.203	215.681	80.060	87.936	208.646	250.105	87.183	94.452	94.801	101.712	222.491	101.670	-8191	255	
35646.691	1	1	0	0	0.18536	0.14142	0.14268	0.21404	0.19582	0.19006	0.3522	0.071481	0.085005	0.14169	0.044912	0.16484	0.11588	0.16818	0.21864	0.10177	-1.9042	-2.7854	-1.9625	-2.6854	-2.6312	-2.0146	-2.8708	-2.4146	-2.1375	-2.7604	-2.1333	-2.6063	-2.6937	-2.1063	-2.6521	-2.3333	103.892	304.975	350.287	417.790	407.556	311.100	381.065	152.787	132.364	418.564	225.362	123.276	378.137	79.653	99.917	332.842	0.00034139	0.00029112	0.00010804	1055.2	2.4861e-06	3.1239e-06	1152.8	218.96	3.3225e-06	2.9867e-06	277.57	77.843	60.836	17.65	3.1997e-06	24.405	0.00043472	0.00053709	0.00017419	1045.9	6.0227e-06	6.7395e-06	1141.8	218.6	5.7321e-06	6.1414e-06	277.7	78.441	61.342	17.905	5.5999e-06	25.114	133.210	176.704	147.789	80.038	216.157	229.489	80.194	87.481	221.297	221.336	86.896	93.938	94.382	101.798	241.389	100.532	-8191	255	
35646.785	1	1	0	0	0.18921	0.15906	0.11463	0.28991	0.29764	0.10351	0.083322	0.2145	0.22482	0.24565	0.38398	0.051995	0.28541	0.17553	0.053602	0.15341	-1.8146	-2.7396	-2.1208	-2.7229	-2.6562	-1.8771	-2.8021	-2.4646	-2.1354	-2.7792	-2.1083	-2.5958	-2.7562	-2.0625	-2.7667	-2.5	242.776	125.291	344.426	344.234	100.881	296.020	325.499	372.440	128.073	246.520	388.526	85.969	289.648	134.166	328.578	403.330	0.00035586	0.00037141	8.575e-05	1059.8	3.3426e-06	3.3422e-06	1154	219.1	1.3664e-06	3.9315e-06	278.07	78.071	61.289	17.632	2.8014e-06	24.602	0.00044234	0.00052846	0.00014836	1047.3	5.9308e-06	6.3846e-06	1144	218.05	6.1104e-06	6.1946e-06	277.74	78.365	61.496	17.943	5.7218e-06	25.136	132.530	146.398	130.068	79.772	206.990	204.573	80.005	87.372	193.679	218.065	86.611	93.509	93.707	100.764	205.309	100.534	-8191	255	
35646.883	1	1	0	0	0.1074	0.082837	0.2386	0.22425	0.068484	0.14786	0.3062	0.18104	0.19546	0.15491	0.1573	0.31042	0.18071	0.055148	0.083872	0.15082	-1.5854	-2.725	-2.1292	-2.2771	-2.6729	-1.9958	-2.7521	-2.6604	-1.9062	-2.7167	-2.2646	-2.1208	-2.8667	-1.9542	-2.2854	-2.7292	308.044	227.940	230.517	226.219	401.103	337.539	405.977	101.828	338.503	361.151	80.438	409.423	336.757	369.522	335.702	399.959	0.00033383	0.00033016	0.00013607	1055.3	3.5742e-06	1.9888e-06	1155.4	218.93	4.0574e-06	3.6625e-06	278.37	78.019	61.375	17.697	3.2785e-06	24.72	0.00043987	0.0005681	0.00017136	1045.5	5.9085e-06	6.5626e-06	1144.2	218.13	5.9706e-06	6.0341e-06	277.95	78.538	61.42	17.913	5.8609e-06	25.174	130.238	163.664	173.330	79.276	214.647	245.390	79.446	87.053	220.411	212.682	86.497	93.346	93.989	100.985	202.482	100.629	-8191	255	
35646.980	1	1	0	0	0.087082	0.063015	0.15967	0.25513	0.099961	0.20828	0.13692	0.2734	0.31331	0.12511	0.1161	0.1029	0.16687	0.29248	0.17887	0.27969	-1.5396	-2.6417	-2.0312	-2.2354	-2.7417	-1.9875	-2.6417	-2.6042	-2.0479	-2.7188	-2.4396	-2.1354	-2.7146	-2.0333	-2.2917	-2.7646	85.687	191.828	135.463	244.102	379.604	291.038	380.798	289.403	143.475	90.493	221.396	293.693	389.515	410.866	217.822	231.884	0.00032375	0.00022345	6.446e-05	1057	2.4306e-06	3.8813e-06	1155.8	219.6	3.8778e-06	3.905e-06	279.96	77.779	61.127	17.588	3.3114e-06	24.42	0.00042274	0.00058992	0.00015507	1046.2	5.9782e-06	6.8588e-06	1141.7	218.54	5.9932e-06	6.541e-06	278.53	78.314	61.372	17.867	5.6617e-06	25.105	137.736	164.906	154.743	79.338	237.486	221.546	79.610	86.855	233.012	214.823	86.423	93.487	93.757	101.035	238.287	100.761	-8191	255	
35647.098	1	1	0	0	0.28319	0.10612	0.2059	0.18493	0.31249	0.2574	0.42071	0.16926	0.08732	0.038593	0.15203	0.13686	0.061378	0.070112	0.099962	0.17735	-1.375	-2.6479	-2.3833	-2.0875	-2.8125	-1.9813	-2.3542	-2.7667	-1.9729	-2.6521	-2.55	-1.9917	-2.8333	-2.1	-2.0479	-2.7521	189.209	315.084	169.230	314.870	311.317	294.239	366.306	337.972	76.095	82.089	336.830	73.109	295.731	372.746	83.515	363.197	0.00031068	0.00029302	5.727e-05	1064.9	3.6158e-06	3.5654e-06	1153.9	219.54	2.3316e-06	4.2066e-06	279.65	78.397	61.275	17.697	3.9299e-06	24.722	0.00041814	0.00055984	0.00015887	1048.5	6.1834e-06	6.3569e-06	1143.4	218.28	6.0049e-06	6.2488e-06	278.42	78.588	61.348	17.951	5.9874e-06	25.215	134.898	177.704	169.884	79.770	213.539	221.676	79.417	86.673	220.746	232.907	86.304	93.265	93.515	101.018	220.630	100.147	-8191	255	
35647.195	1	1	0	0	0.072097	0.38433	0.21672	0.39074	0.40439	0.12248	0.11234	0.32184	0.33076	0.2745	0.20849	0.17305	0.15794	0.37115	0.098976	0.098694	-1.6083	-2.4979	-2.4354	-2.0583	-2.7188	-2.0646	-2.4167	-2.8708	-1.8604	-2.5	-2.6312	-1.9125	-2.8563	-2.0854	-2.1063	-2.7292	87.760	381.179	345.308	404.939	365.969	370.345	306.560	428.133	302.061	348.993	393.355	234.473	425.483	183.095	324.860	399.855	0.00029609	0.00035588	5.0972e-05	1052.4	3.5484e-06	2.6329e-06	1148.8	219.5	2.0593e-06	1.9461e-06	278.53	77.731	60.896	17.618	2.8087e-06	24.501	0.00042923	0.00062408	0.00016292	1044.3	5.9076e-06	6.3431e-06	1141.1	218.45	5.9857e-06	6.6047e-06	278.31	78.412	61.379	17.862	5.7618e-06	25.097	138.262	158.681	178.585	79.086	226.635	230.139	79.445	86.716	223.996	223.797	86.413	93.149	93.948	100.821	224.975	100.552	-8191	255	
35647.266	1	1	0	0	0.13958	0.18724	0.1657	0.075116	0.11268	0.25455	0.18044	0.30139	0.059792	0.21521	0.063098	0.091019	0.1247	0.09275	0.1609	0.23385	-1.4708	-2.2938	-2.5375	-2.0333	-2.8021	-2.3646	-2.2979	-2.9896	-2.0042	-2.3396	-2.8708	-1.9646	-2.6479	-2.5083	-2.1188	-2.8563	114.187	271.306	308.252	277.553	200.704	229.433	403.250	380.495	142.106	251.098	80.475	234.963	280.227	133.833	293.638	413.975	0.00032324	0.00036469	0.00012078	1055.2	3.4077e-06	2.7304e-06	1156.2	218.93	4.0696e-06	2.8492e-06	279.29	77.911	61.497	17.668	2.2767e-06	24.838	0.00043971	0.00059632	0.00015761	1044.2	6.0729e-06	6.3729e-06	1143.6	218.36	6.0551e-06	6.6462e-06	278.36	78.309	61.642	17.897	6.2493e-06	25.201	135.581	163.526	144.193	79.182	214.617	229.350	79.534	86.718	208.394	219.241	86.445	93.384	93.689	101.117	219.663	100.525	-8191	255	
35647.387	1	1	0	0	0.14991	0.18248	0.21225	0.10066	0.1339	0.15771	0.22145	0.050303	0.069003	0.086462	0.06666	0.089406	0.17585	0.25871	0.2211	0.033223	-1.7104	-2.1375	-2.5333	-2.0896	-2.625	-2.4146	-2.0938	-2.7	-2.2604	-2.1646	-2.8396	-2.05	-2.5563	-2.5208	-1.9833	-2.6875	402.017	153.618	88.444	323.039	200.884	387.822	299.805	378.586	306.364	192.289	118.360	227.204	95.882	111.129	71.571	188.853	0.00031073	0.00020859	9.2216e-05	1057	1.9476e-06	3.0032e-06	1148.6	219.22	2.9913e-06	2.2282e-06	278.2	77.889	61.323	17.638	2.2206e-06	24.762	0.00042506	0.00058147	0.00014229	1046.6	6.0794e-06	6.2216e-06	1142.1	218.38	5.8392e-06	6.3635e-06	278.15	78.45	61.584	17.912	5.7381e-06	25.234	138.281	159.534	152.397	79.464	220.598	241.784	79.309	86.732	206.539	232.256	86.293	93.345	93.570	100.855	223.105	100.644	-8191	255	
35647.484	1	1	0	0	0.18354	0.182	0.12656	0.22654	0.2509	0.080434	0.1563	0.087006	0.07647	0.14513	0.34481	0.25695	0.20897	0.057741	0.29604	0.19014	-1.8604	-2.0729	-2.6542	-2.0917	-2.2583	-2.575	-2.1813	-2.6417	-2.1646	-2.025	-2.8563	-1.9979	-2.3187	-2.625	-1.9021	-2.8208	264.886	182.243	323.419	173.814	276.085	402.256	351.973	86.206	83.435	153.315	336.755	350.754	365.698	110.990	89.811	83.216	0.00033338	0.00026641	7.6972e-05	1058.4	2.2612e-06	3.7257e-06	1155.6	220.25	1.9729e-06	2.4674e-06	277.97	77.824	61.151	17.649	2.6316e-06	24.756	0.00043731	0.00056708	0.00016052	1045.2	6.4992e-06	6.4432e-06	1143.5	219.11	5.9639e-06	6.5314e-06	278.34	78.282	61.419	17.905	6.0865e-06	25.24	133.471	159.536	165.405	79.376	233.945	229.770	79.443	87.110	189.245	210.020	86.612	93.535	93.695	100.715	205.813	100.480	-8191	255	
35647.578	1	1	0	0	0.172	0.16153	0.16273	0.24106	0.31438	0.029914	0.48398	0.14989	0.13961	0.28439	0.16197	0.04476	0.15045	0.15085	0.33838	0.37333	-1.9125	-1.7979	-2.5771	-2.1792	-2.2542	-2.4667	-2.0146	-2.8021	-2.2625	-1.8917	-2.8417	-2.1312	-2.2583	-2.7125	-1.6979	-2.6813	326.939	383.143	204.782	353.826	377.996	310.613	353.199	307.979	386.313	271.809	399.804	321.615	372.498	403.107	113.979	332.999	0.00033411	0.00025385	6.8963e-05	1058.9	4.2492e-06	3.5669e-06	1152.3	219.31	4.0943e-06	2.8492e-06	278.43	77.935	61.432	17.554	4.1026e-06	24.737	0.00043047	0.00058268	0.00015302	1045.9	6.4268e-06	6.1726e-06	1141.7	218.49	5.9363e-06	6.5697e-06	278.57	78.29	61.615	17.9	5.991e-06	25.171	133.053	171.980	163.858	79.143	228.349	253.901	78.591	86.258	225.429	191.527	86.286	93.140	92.952	100.280	210.086	100.516	-8191	255	
35647.676	1	1	0	0	0.12936	0.30831	0.1958	0.50038	0.069595	0.11352	0.23761	0.20184	0.019975	0.19194	0.35766	0.14557	0.22267	0.27201	0.11329	0.21658	-1.9729	-1.8854	-2.6771	-2.0854	-2.1104	-2.6958	-2.2417	-2.4917	-2.5979	-2.0104	-2.6042	-2.3271	-2.1729	-2.7188	-2.0375	-2.5458	147.939	182.249	304.520	352.244	357.765	301.422	354.632	336.404	406.220	367.278	387.060	219.876	318.775	76.316	90.019	427.743	0.00033354	0.00026908	4.7186e-05	1056.8	2.6721e-06	2.8445e-06	1154.7	218.34	3.615e-06	2.6383e-06	280.05	78.048	61.384	17.705	3.5877e-06	24.695	0.00042896	0.0005901	0.00015795	1043.7	6.6404e-06	6.1705e-06	1143.9	218.54	5.707e-06	6.6589e-06	278.72	78.206	61.445	17.946	5.79e-06	25.205	132.426	161.314	218.089	78.972	220.617	199.494	78.763	86.527	215.589	221.438	85.697	92.613	93.263	100.661	213.973	99.883	-8191	255	
35647.797	1	1	0	0	0.14628	0.1108	0.12166	0.26337	0.11044	0.043559	0.21989	0.10195	0.15838	0.036962	0.048364	0.095279	0.1611	0.078739	0.26607	0.055288	-2.0667	-2.0229	-2.5271	-2.1813	-2.0917	-2.8104	-2.1021	-2.3917	-2.4562	-2.0292	-2.8396	-2.2313	-2.125	-2.7208	-2.1063	-2.3417	382.562	218.060	149.366	299.050	301.426	266.244	273.650	184.206	210.533	174.582	362.488	343.307	217.479	357.195	115.628	216.417	0.00030827	0.00027134	9.506e-05	1063.6	1.412e-06	2.8681e-06	1149.5	219.67	3.3628e-06	3.1125e-06	278.7	77.507	61.26	17.57	3.3958e-06	24.707	0.00043496	0.00060152	0.00016243	1048.2	6.5708e-06	6.3058e-06	1142.9	218.55	5.8158e-06	6.4708e-06	278.88	78.24	61.387	17.912	5.8837e-06	25.259	136.003	186.631	155.121	78.890	198.716	194.733	78.682	86.367	214.759	212.744	86.246	92.503	93.086	100.191	219.439	99.995	-8191	255	
35647.891	1	1	0	0	0.049954	0.088037	0.1709	0.11128	0.25341	0.079291	0.11011	0.14057	0.090164	0.28652	0.1446	0.23046	0.096285	0.1586	0.28046	0.54807	-2.2146	-1.6	-2.5646	-2.4562	-2.0917	-2.5583	-2.1125	-2.2979	-2.7771	-1.8354	-2.6979	-2.3854	-1.8333	-2.7583	-2.0833	-2.3688	117.808	337.830	221.158	399.387	208.893	187.883	122.716	74.222	409.130	347.012	347.807	254.702	283.362	315.289	194.860	136.339	0.00032209	0.00028704	8.0797e-05	1058	3.2262e-06	2.6123e-06	1151.3	219.45	3.8912e-06	2.4191e-06	281.18	78.239	60.911	17.495	1.4562e-06	24.69	0.00041133	0.00058686	0.00015447	1046.4	6.6488e-06	5.8934e-06	1141.9	218.3	6.148e-06	6.763e-06	279.03	78.325	61.428	17.892	6.1138e-06	25.27	133.830	139.483	172.055	78.595	220.875	219.762	78.787	86.292	200.145	196.526	85.757	92.276	93.108	100.498	215.885	99.909	-8191	255	
35647.965	1	1	0	0	0.27641	0.18453	0.25113	0.16825	0.058791	0.12043	0.45803	0.19373	0.17287	0.033658	0.13348	0.14686	0.32803	0.15988	0.25659	0.10808	-2.4771	-1.9271	-2.3708	-2.4813	-1.7646	-2.7062	-2.4688	-2.0812	-2.7313	-1.9542	-2.3604	-2.7104	-1.9333	-2.6854	-2.2188	-2.2229	417.858	356.369	166.692	374.212	74.196	420.141	365.612	268.317	240.804	79.328	361.364	158.191	155.109	334.095	74.533	247.673	0.00033451	0.00019547	0.00010996	1057	3.2357e-06	2.4263e-06	1160.4	218.03	2.263e-06	3.4551e-06	279.44	77.601	61.136	17.742	3.3386e-06	24.642	0.00042023	0.00057627	0.00015784	1045.7	6.8002e-06	6.4827e-06	1144.7	218.02	5.7463e-06	6.6238e-06	278.58	78.522	61.348	17.924	5.8764e-06	25.19	134.965	147.395	158.569	78.821	217.436	225.091	78.962	86.566	185.739	213.219	86.147	92.697	93.222	100.837	203.624	100.133	-8191	255	
35648.059	1	1	0	0	0.18153	0.12801	0.054456	0.12935	0.10362	0.37518	0.35119	0.14773	0.0354	0.19026	0.12305	0.29575	0.0716	0.19058	0.21372	0.15594	-2.3021	-1.7479	-2.3042	-2.7583	-1.7771	-2.7333	-2.4333	-2.1833	-2.7812	-2.0646	-2.2083	-2.7	-2.1104	-2.7125	-2.2917	-2.1917	371.626	219.162	392.937	358.381	245.845	95.269	409.576	426.392	363.718	358.315	203.701	390.955	363.185	397.209	211.873	335.945	0.00032003	0.00019716	0.00013295	1067.1	3.0274e-06	4.289e-06	1156.6	219.66	3.0156e-06	2.1386e-06	279.82	77.749	60.89	17.575	3.1253e-06	24.684	0.00041288	0.00059688	0.00017301	1046.8	6.5801e-06	6.7395e-06	1145.2	218.71	5.763e-06	6.1542e-06	278.55	78.339	61.416	17.897	5.7518e-06	25.189	133.508	154.716	161.073	78.922	236.886	211.094	79.122	86.902	200.656	232.604	86.104	92.937	93.852	100.874	215.737	99.810	-8191	255	
35648.180	1	1	0	0	0.19875	0.21615	0.18036	0.25613	0.22093	0.061497	0.067616	0.18244	0.23284	0.045491	0.34515	0.046319	0.077342	0.20788	0.13916	0.054198	-2.4667	-2.1271	-2.2396	-2.9	-1.9292	-2.5	-2.7375	-1.9729	-2.7396	-2.2104	-2.4271	-2.7062	-1.8271	-2.6375	-2.5958	-1.8542	350.483	182.538	164.497	387.612	416.255	312.196	339.637	314.337	221.521	394.424	145.237	418.791	391.717	412.528	401.439	426.541	0.0003215	0.00023283	7.5222e-05	1057.1	2.6109e-06	1.7577e-06	1152.2	218.63	3.1604e-06	2.9928e-06	278.92	77.867	61.014	17.575	3.5577e-06	24.556	0.00042792	0.00058323	0.00015978	1044.6	6.1444e-06	5.8487e-06	1142.2	217.99	5.7471e-06	6.1021e-06	278.25	78.201	61.345	17.876	5.7873e-06	25.122	132.432	174.869	171.392	78.842	211.954	251.414	78.456	86.252	206.143	206.286	85.744	92.707	93.484	100.243	223.567	99.897	-8191	255	
35648.273	1	1	0	0	0.14961	0.19366	0.19576	0.21459	0.27446	0.13909	0.38955	0.069267	0.20193	0.063695	0.24126	0.10127	0.089038	0.11015	0.23876	0.071038	-2.2333	-2.1521	-2.1188	-2.6917	-1.8167	-2.2875	-2.7875	-1.8292	-2.7104	-2.3583	-2.1063	-2.8083	-2.0187	-2.4104	-2.6042	-2.1417	84.186	216.861	142.847	363.062	307.974	290.890	320.015	305.182	275.710	312.460	365.660	414.579	335.381	360.257	326.174	375.665	0.00031422	0.00021696	0.00010996	1062.9	3.6171e-06	1.6297e-06	1152.2	218.44	3.0686e-06	4.1838e-06	280.35	78.142	61.308	17.574	2.5483e-06	24.647	0.00042262	0.00057878	0.00015784	1046	6.6432e-06	6.4571e-06	1143	218.72	5.6526e-06	6.2477e-06	278.87	78.419	61.497	17.905	5.2788e-06	25.183	138.855	126.966	162.895	78.826	222.808	263.045	78.770	86.529	215.339	212.505	85.800	92.721	93.031	101.024	221.923	99.446	-8191	255	
35648.371	1	1	0	0	0.13457	0.23879	0.14447	0.046644	0.3301	0.22923	0.32533	0.078359	0.28523	0.15475	0.14168	0.15955	0.28639	0.3424	0.41671	0.024661	-2.0979	-2.3667	-2.0208	-2.7896	-2.1542	-2.1875	-2.8229	-2.2021	-2.7042	-2.35	-2.1792	-2.6583	-2.0479	-2.1167	-2.675	-1.9813	238.691	155.686	159.702	79.403	68.440	363.699	383.465	329.928	208.427	213.486	418.197	110.570	422.787	93.124	303.596	248.938	0.0003216	0.00034074	6.4981e-05	1056.3	2.4531e-06	2.419e-06	1153.7	219.85	2.7868e-06	3.4032e-06	276.32	77.785	60.692	17.757	2.1934e-06	24.618	0.00041075	0.00056364	0.00016473	1045.3	5.9549e-06	6.5136e-06	1144.7	218.94	6.0074e-06	6.4379e-06	278.68	78.262	61.396	17.977	5.5481e-06	25.06	134.588	164.710	156.265	78.827	210.221	214.040	78.741	86.223	214.980	222.928	85.946	92.662	93.072	100.348	205.827	99.190	-8191	255	
35648.492	1	1	0	0	0.052787	0.17952	0.21143	0.078232	0.089442	0.11716	0.090621	0.055928	0.20298	0.061189	0.0068182	0.086266	0.14605	0.21523	0.31687	0.11791	-2.2313	-2.2625	-1.825	-2.725	-2.0917	-2.0771	-2.9042	-2.1333	-2.3875	-2.6271	-1.9792	-2.6562	-2.2958	-2.2062	-2.7354	-2.1271	364.364	134.600	290.134	255.578	294.907	266.179	217.526	196.355	309.328	294.502	417.961	228.059	279.268	332.222	337.668	100.761	0.00031227	0.00029127	6.6721e-05	1063.2	1.85e-06	1.2836e-06	1155.1	219.45	3.1875e-06	2.1035e-06	278.72	77.894	60.956	17.745	3.968e-06	24.61	0.00042541	0.00055417	0.00016808	1046.6	6.1091e-06	6.6894e-06	1143.1	218.74	5.9589e-06	6.3263e-06	278.38	78.436	61.351	17.986	5.7045e-06	25.182	134.995	142.704	146.199	78.458	215.349	199.214	78.697	85.955	232.552	235.798	85.579	92.669	92.729	100.011	194.026	99.455	-8191	255	
35648.562	1	1	0	0	0.18746	0.069908	0.081218	0.096163	0.10755	0.14135	0.25681	0.093796	0.063592	0.080842	0.30458	0.045877	0.134	0.25728	0.23536	0.38327	-1.8542	-2.5563	-1.8125	-2.775	-2.3063	-2.0917	-2.9396	-2.0479	-2.2313	-2.6771	-1.8542	-2.7771	-2.6042	-1.9667	-2.8229	-2.0604	159.983	266.424	267.409	406.639	156.441	169.725	340.337	425.672	345.958	190.620	337.270	384.344	143.944	357.540	373.206	353.817	0.00033809	0.00036872	9.4873e-05	1055.6	4.1549e-06	1.8038e-06	1152.9	219.21	4.0618e-06	1.0771e-06	279.51	77.7	60.768	17.781	2.5296e-06	24.6	0.0004488	0.00053319	0.00016426	1045.8	6.3283e-06	6.845e-06	1143.5	218.38	5.7036e-06	6.4698e-06	278.58	78.218	61.245	17.997	5.6845e-06	25.196	135.901	155.748	153.351	78.548	205.624	255.055	78.425	85.813	209.409	224.732	85.703	92.470	92.534	99.979	188.965	99.488	-8191	255	
35648.660	1	1	0	0	0.15247	0.11826	0.18947	0.063543	0.20351	0.27712	0.061005	0.21232	0.059952	0.16774	0.22042	0.044486	0.071621	0.02877	0.12195	0.084063	-1.7854	-2.7062	-1.7542	-2.5729	-2.4833	-1.9188	-2.7958	-2.2521	-2.1396	-2.5375	-1.9521	-2.4896	-2.6063	-1.9562	-2.8375	-2.3208	201.302	402.087	401.872	426.407	237.190	310.659	412.750	392.484	327.573	373.933	260.298	254.633	365.968	311.985	163.896	169.454	0.00030854	0.00031967	8.9063e-05	1057.3	2.3038e-06	2.3971e-06	1155.8	218.43	3.5804e-06	1.6239e-06	276.89	77.797	60.809	17.612	3.7726e-06	24.628	0.00042459	0.00054201	0.0001618	1044.8	6.2141e-06	6.7768e-06	1143	218.7	6.0576e-06	5.9661e-06	278	78.177	61.251	17.927	5.5353e-06	25.213	134.646	167.103	182.994	78.975	225.373	199.326	78.601	86.219	213.869	181.349	85.685	92.718	92.415	100.136	212.875	100.106	-8191	255	
35648.781	1	1	0	0	0.056739	0.13349	0.14864	0.4193	0.040996	0.056604	0.051874	0.18258	0.27193	0.20149	0.27295	0.21527	0.10622	0.17306	0.22987	0.24639	-1.8583	-2.825	-2.0354	-2.4146	-2.6688	-1.9792	-2.7833	-2.2375	-2.0958	-2.8542	-2.0896	-2.4021	-2.6167	-2.0271	-2.6771	-2.3917	307.921	257.204	335.408	384.093	184.718	133.817	72.209	108.405	82.587	363.089	249.048	427.325	423.753	158.256	205.445	318.446	0.00031821	0.00027236	0.00010166	1056.2	2.1944e-06	2.9552e-06	1151.8	219.57	3.7438e-06	3.1456e-06	277.87	78.038	60.866	17.606	2.4298e-06	24.647	0.00042084	0.00053078	0.00017254	1044.5	5.8602e-06	6.5423e-06	1144.2	218.74	5.9982e-06	5.9576e-06	278.76	78.6	61.219	17.873	5.6181e-06	25.192	134.779	171.534	174.780	78.597	170.290	231.520	78.347	86.085	204.652	212.065	85.448	93.020	93.133	100.311	189.348	99.608	-8191	255	
35648.875	1	1	0	0	0.098078	0.055734	0.038578	0.00083489	0.10039	0.067404	0.26464	0.2677	0.070597	0.24068	0.10198	0.3334	0.1805	0.25962	0.060943	0.12828	-1.6812	-2.7771	-2.1188	-2.3708	-2.6479	-1.9708	-2.775	-2.4792	-2.0438	-2.8167	-2.3375	-2.5	-2.75	-1.8813	-2.5542	-2.5021	331.911	291.788	328.233	180.000	327.398	267.390	415.627	395.849	303.990	262.961	112.348	73.795	413.726	423.195	420.213	132.537	0.00029556	0.00017748	7.0748e-05	1057.9	1.8249e-06	3.3083e-06	1157.1	217.82	3.4466e-06	2.5115e-06	279.33	78.255	61.333	17.545	2.6517e-06	24.743	0.00041984	0.00052669	0.00015889	1043.4	6.0004e-06	6.2621e-06	1146.1	217.75	5.8785e-06	6.2371e-06	278.65	78.437	61.46	17.873	5.9091e-06	25.19	136.183	154.416	191.548	78.653	219.593	217.462	78.679	86.243	212.124	179.177	85.734	92.527	93.038	100.195	229.503	99.611	-8191	255	
35648.973	1	1	0	0	0.091617	0.34523	0.24795	0.28423	0.13001	0.31193	0.1634	0.32259	0.13852	0.062015	0.16473	0.16865	0.13288	0.41571	0.18597	0.16156	-1.6333	-2.6188	-2.1354	-2.3583	-2.7167	-2.0125	-2.7062	-2.7979	-1.9729	-2.8458	-2.2833	-2.175	-2.7438	-1.8875	-2.4271	-2.4021	125.166	341.308	218.246	395.813	142.626	405.324	341.993	347.563	334.446	334.130	387.371	420.957	79.058	332.639	208.582	357.338	0.00030663	0.00026198	8.643e-05	1059	3.6891e-06	3.953e-06	1154.3	219.08	2.9057e-06	1.684e-06	278.05	77.555	61.309	17.584	2.983e-06	24.55	0.00045046	0.00053848	0.00016649	1045	6.006e-06	6.3175e-06	1145.8	218.5	6.0208e-06	6.4177e-06	278.08	78.274	61.584	17.886	5.88e-06	25.143	133.123	139.875	156.437	78.577	218.692	188.263	78.546	85.915	195.957	239.958	85.669	93.121	93.159	100.220	223.659	99.063	-8191	255	
35649.090	1	1	0	0	0.055051	0.36011	0.15685	0.056837	0.10574	0.057064	0.033679	0.27752	0.14506	0.053586	0.2398	0.25099	0.018521	0.27395	0.14684	0.24001	-1.5438	-2.625	-2.2167	-2.1521	-2.7479	-2.1188	-2.4896	-2.6437	-1.9646	-2.5208	-2.4417	-1.8354	-2.8063	-2.1354	-2.2938	-2.6792	208.594	199.400	110.387	362.503	354.733	341.540	252.854	74.989	381.752	293.155	84.264	387.065	165.985	379.283	183.988	272.544	0.00029488	0.0003003	9.7331e-05	1059.5	2.9396e-06	1.3912e-06	1154.5	218.98	3.5267e-06	1.9042e-06	279	77.573	61.437	17.584	3.4845e-06	24.66	0.00041334	0.00054693	0.00016072	1045	5.8147e-06	6.4145e-06	1144.6	218.23	6.1874e-06	5.9938e-06	278.6	78.04	61.562	17.912	5.9319e-06	25.275	136.890	139.474	167.693	78.826	201.757	232.632	78.583	86.111	229.221	203.542	85.639	92.648	92.363	100.270	208.413	99.493	-8191	255	
35649.164	1	1	0	0	0.14905	0.29672	0.15076	0.12529	0.25617	0.14928	0.28049	0.097977	0.14587	0.18308	0.24844	0.051389	0.25859	0.095572	0.05055	0.088367	-1.4458	-2.6583	-2.4396	-2.2646	-2.8479	-1.9854	-2.4417	-2.7708	-2.0708	-2.5729	-2.6063	-2.1021	-2.7458	-2.1396	-2.1729	-2.8542	116.967	151.837	279.550	126.810	181.318	271.579	379.465	292.939	345.550	252.491	395.133	107.258	356.623	364.838	178.260	270.382	0.00034516	0.00030778	6.5966e-05	1057.4	2.718e-06	2.7775e-06	1154.8	219.18	4.096e-06	3.7508e-06	280.23	77.802	61.075	17.797	2.9522e-06	24.475	0.00045239	0.0005098	0.00016012	1046.3	5.8147e-06	6.2333e-06	1144.4	219.11	6.0417e-06	6.0968e-06	278.98	78.273	61.332	17.956	5.991e-06	25.182	136.101	149.699	185.778	78.711	216.024	200.937	78.753	86.071	213.816	222.592	85.543	92.748	92.979	99.663	199.249	99.622	-8191	255	
35649.258	1	1	0	0	0.094203	0.022737	0.085151	0.17	0.092193	0.13484	0.090612	0.19225	0.14765	0.12051	0.13699	0.13689	0.078156	0.28031	0.24093	0.13158	-1.4146	-2.5042	-2.5104	-2.0708	-2.7396	-2.2271	-2.3604	-2.7854	-2.0833	-2.4708	-2.8333	-1.9875	-2.6854	-2.4062	-2.0875	-2.7854	183.024	72.787	111.840	80.711	330.193	278.726	335.691	392.434	198.452	107.923	85.615	137.657	247.580	315.350	254.938	398.859	0.00029829	0.00022879	4.7525e-05	1058.5	3.7434e-06	4.2956e-06	1151	219.03	3.6953e-06	2.085e-06	280.22	77.519	60.73	17.622	2.49e-06	24.627	0.00042746	0.00055594	0.00015617	1045.3	5.7989e-06	6.5029e-06	1142.6	218.63	5.8359e-06	6.626e-06	279.4	78.278	61.24	17.916	5.5553e-06	25.181	133.900	195.428	188.405	78.613	218.328	240.738	78.939	85.810	195.933	255.482	85.985	92.594	93.233	100.127	213.090	100.019	-8191	255	
35649.355	1	1	0	0	0.30795	0.11179	0.17144	0.19407	0.1047	0.20971	0.096698	0.1839	0.083407	0.19049	0.19389	0.11917	0.18826	0.095324	0.17644	0.085344	-1.3	-2.3646	-2.675	-2.0229	-2.5292	-2.25	-2.2083	-2.7938	-1.9458	-2.2625	-2.8229	-1.9188	-2.4417	-2.5396	-1.9083	-2.8292	150.487	128.185	236.304	256.808	143.311	291.174	325.494	313.585	276.093	343.417	99.880	124.584	329.924	389.812	251.810	417.843	0.00031309	0.0001461	0.00010579	1057.4	4.5085e-06	2.7987e-06	1157	218.63	3.3381e-06	3.5525e-06	279.05	77.509	61.119	17.772	3.6166e-06	24.451	0.00041856	0.00058063	0.00014873	1043.1	6.0905e-06	6.1886e-06	1143.5	218.5	5.8434e-06	6.1308e-06	278.62	78.058	61.521	17.952	6.0619e-06	25.168	136.956	191.414	170.551	78.389	230.616	223.874	78.567	85.813	218.708	210.384	85.538	92.285	92.941	99.838	205.596	99.938	-8191	255	
35649.477	1	1	0	0	0.14566	0.16978	0.32138	0.14766	0.080232	0.10199	0.24676	0.25034	0.11708	0.17652	0.19688	0.031345	0.27807	0.069768	0.28878	0.071497	-1.6979	-2.1167	-2.7729	-1.8521	-2.6542	-2.3979	-2.1937	-2.8125	-2.2479	-2.1229	-2.7875	-1.8917	-2.425	-2.4104	-1.8229	-2.6208	69.378	144.171	270.846	410.391	93.773	87.805	341.099	338.819	116.431	203.229	93.902	193.250	421.936	413.699	353.022	271.218	0.00031326	0.00026983	6.1061e-05	1055.9	3.4585e-06	2.4053e-06	1155.3	219.13	2.396e-06	2.3219e-06	277.36	77.42	61.402	17.546	3.3712e-06	24.8	0.00042583	0.00058435	0.00015041	1046.5	6.15e-06	6.3548e-06	1144.2	219.01	5.4651e-06	6.558e-06	278.39	78.192	61.396	17.901	6.1038e-06	25.273	130.870	159.514	116.838	78.748	224.633	229.123	78.418	85.962	231.174	203.779	85.639	92.303	93.470	99.866	200.096	99.716	-8191	255	
35649.570	1	1	0	0	0.23935	0.20555	0.30237	0.053104	0.058969	0.054065	0.068445	0.31176	0.16383	0.022047	0.16578	0.14103	0.11683	0.20002	0.11367	0.18869	-1.8833	-2.1229	-2.7771	-2.1208	-2.4583	-2.6375	-2.0542	-2.7417	-2.3375	-2.0708	-2.85	-2.0792	-2.3771	-2.8063	-1.8625	-2.8438	89.428	117.125	322.548	344.098	142.611	268.477	409.530	346.290	278.442	391.623	427.167	366.286	190.059	114.560	407.396	301.119	0.00032483	0.00025454	4.7919e-05	1058.7	3.9727e-06	2.5348e-06	1155.9	219.69	3.4377e-06	1.9456e-06	279.44	77.598	60.582	17.579	2.087e-06	24.815	0.00044485	0.0005915	0.00014703	1045.3	6.2057e-06	6.1811e-06	1145	218.93	5.8292e-06	6.5399e-06	278.59	78.149	61.094	17.874	5.8091e-06	25.215	132.827	186.553	203.844	78.385	222.161	264.010	78.535	86.411	204.291	248.188	85.787	92.567	92.970	100.234	197.401	99.535	-8191	255	
35649.668	1	1	0	0	0.24513	0.27121	0.2563	0.10725	0.21588	0.094415	0.15881	0.31738	0.29298	0.11575	0.082316	0.038517	0.26455	0.095551	0.13627	0.096605	-1.9292	-1.9958	-2.6667	-2.0792	-2.2792	-2.7625	-2.0729	-2.6646	-2.5042	-2.0563	-2.5896	-2.2083	-2.175	-2.625	-1.95	-2.5812	322.915	313.428	314.267	254.858	245.956	377.851	367.051	360.179	305.717	322.070	363.155	254.994	388.969	127.226	91.893	295.405	0.00031901	0.00032778	7.0351e-05	1058.9	2.7871e-06	2.0259e-06	1152.2	219.41	2.943e-06	3.0515e-06	278.27	77.946	61.191	17.579	3.2667e-06	24.797	0.00041508	0.00054638	0.00014988	1045	6.5578e-06	5.9414e-06	1141.6	219.23	5.6869e-06	6.4634e-06	278.82	78.319	61.486	17.905	5.6963e-06	25.192	134.043	156.447	183.848	78.667	219.579	190.600	78.561	86.427	215.065	219.774	85.549	92.683	93.085	100.141	216.534	100.108	-8191	255	
35649.766	1	1	0	0	0.059722	0.069058	0.088175	0.02706	0.22556	0.20234	0.056797	0.24382	0.12856	0.16978	0.16296	0.17663	0.18061	0.15081	0.35875	0.2491	-2.1854	-1.725	-2.6479	-2.0271	-2.2396	-2.8396	-2.1271	-2.5458	-2.7188	-1.9917	-2.8771	-2.3417	-2.2313	-2.75	-1.8458	-2.3542	342.278	173.364	235.731	169.554	399.732	188.277	327.352	75.259	392.145	275.124	348.447	132.915	357.051	425.730	171.529	376.288	0.00032305	0.00029715	0.00010095	1055.5	3.9513e-06	3.8318e-06	1146	219.93	3.3594e-06	2.6234e-06	280.58	77.488	60.873	17.739	3.5867e-06	24.636	0.00041153	0.00055399	0.00015507	1044.9	6.307e-06	6.293e-06	1141.9	219.03	5.6434e-06	6.4613e-06	279.45	77.987	61.313	17.955	6.1247e-06	25.278	139.118	173.749	179.337	78.696	220.652	220.144	78.407	86.416	195.943	225.131	85.854	92.526	92.816	100.064	220.357	100.010	-8191	255	
35649.859	1	1	0	0	0.041447	0.41259	0.17673	0.14007	0.12354	0.1728	0.11853	0.13782	0.29289	0.29303	0.052164	0.18545	0.20531	0.22287	0.18607	0.0527	-2.2042	-1.8271	-2.5917	-2.4667	-1.8979	-2.6604	-2.3312	-2.2021	-2.7438	-2.0167	-2.7396	-2.4583	-2.1562	-2.7896	-2.2167	-2.3875	90.141	280.058	269.638	351.919	270.628	304.841	368.110	332.836	327.354	91.943	68.485	419.284	334.537	413.651	404.154	116.710	0.00030825	0.00021723	9.5418e-05	1056.6	3.7463e-06	2.4797e-06	1146.3	220.01	2.0773e-06	2.2046e-06	278.77	77.858	60.628	17.714	3.3263e-06	24.542	0.00040878	0.0005591	0.00016426	1043.3	6.1082e-06	6.0426e-06	1140.4	219.43	5.5379e-06	6.2732e-06	278.55	78.284	61.134	17.975	5.7709e-06	25.16	135.105	138.606	182.471	78.751	208.749	226.536	78.589	86.041	236.458	221.973	85.576	92.377	93.300	100.333	233.235	99.459	-8191	255	
35649.957	1	1	0	0	0.14195	0.22507	0.21223	0.1813	0.2733	0.11347	0.36103	0.2584	0.18345	0.15553	0.17859	0.30074	0.3718	0.075914	0.20641	0.12022	-2.0875	-1.8146	-2.6521	-2.625	-1.7625	-2.7604	-2.2229	-2.2938	-2.7021	-1.8521	-2.5542	-2.5083	-1.9042	-2.5604	-2.15	-2.1146	343.134	378.383	246.926	426.104	385.429	330.522	408.150	321.807	232.532	224.783	358.107	404.213	317.650	331.256	209.649	403.151	0.00032206	0.00026476	7.8804e-05	1055.1	3.6048e-06	3.0287e-06	1148.2	220.82	3.7303e-06	2.904e-06	281.13	78.114	61.143	17.653	2.6309e-06	24.506	0.00042235	0.00057497	0.00016389	1046.2	6.372e-06	6.2216e-06	1141.5	219.65	5.5061e-06	6.4783e-06	280.09	78.088	61.167	17.952	5.4253e-06	25.227	134.903	170.279	164.580	78.681	212.994	199.678	78.260	85.895	237.616	222.808	85.674	91.964	93.032	99.912	202.893	99.037	-8191	255	
35650.055	1	1	0	0	0.24546	0.080641	0.22852	0.29748	0.13282	0.37942	0.37281	0.14447	0.20689	0.11995	0.15387	0.098629	0.12254	0.14609	0.090311	0.13374	-2.2875	-1.9292	-2.5271	-2.7521	-1.9375	-2.6646	-2.4542	-1.9688	-2.7562	-1.9208	-2.5333	-2.6188	-1.9229	-2.8042	-2.4354	-1.9917	203.651	229.896	260.276	422.259	277.044	254.650	390.042	355.229	366.949	150.434	73.690	427.901	223.754	413.654	105.840	241.212	0.00029298	0.00031769	8.5873e-05	1056.8	2.623e-06	3.644e-06	1149.5	219.89	2.459e-06	2.0573e-06	279.16	77.96	60.867	17.572	3.0124e-06	24.692	0.00040774	0.00059697	0.00015952	1046	5.9206e-06	6.0906e-06	1143.1	218.91	5.6275e-06	6.5048e-06	278.92	78.303	61.307	17.894	5.8355e-06	25.241	131.011	144.446	195.567	78.590	235.080	221.042	78.349	85.984	208.386	228.267	85.839	92.173	92.990	99.965	214.713	99.990	-8191	255	
35650.172	1	1	0	0	0.24146	0.19711	0.26559	0.11381	0.1925	0.27199	0.28479	0.038893	0.090978	0.098734	0.123	0.19468	0.20612	0.17923	0.030788	0.027492	-2.3771	-1.8479	-2.3125	-2.6875	-1.9271	-2.6	-2.5646	-1.9312	-2.8625	-2.2687	-2.2271	-2.85	-1.9312	-2.4437	-2.4938	-1.8438	337.237	188.160	361.519	366.746	115.272	378.701	416.263	238.715	397.199	318.775	395.238	359.843	399.292	143.168	220.538	363.462	0.00029749	0.00019768	6.8415e-05	1063	3.5779e-06	3.9299e-06	1154.2	221.04	2.636e-06	2.0261e-06	277.87	77.578	60.976	17.788	2.6247e-06	24.653	0.00040608	0.00054805	0.00015462	1045.2	6.2893e-06	5.9797e-06	1143.2	219.66	5.5546e-06	6.5835e-06	279.35	78.254	61.223	17.987	5.5044e-06	25.243	140.269	164.384	158.000	78.242	231.800	205.224	78.460	86.144	202.914	204.200	85.680	92.861	93.068	100.022	208.153	99.878	-8191	255	
35650.270	1	1	0	0	0.33854	0.18339	0.22844	0.2659	0.022593	0.21928	0.15711	0.14496	0.26683	0.056599	0.28793	0.18956	0.25618	0.17856	0.045065	0.12858	-2.2104	-2.2875	-2.0042	-2.7792	-1.8354	-2.5958	-2.7396	-1.9271	-2.6125	-2.4583	-2.2646	-2.9771	-2.0833	-2.4729	-2.4271	-2.1104	348.435	207.934	428.018	293.248	315.347	244.568	388.582	350.475	99.515	371.916	312.431	367.811	169.918	265.252	379.850	310.932	0.00030241	0.00021487	8.9255e-05	1057.3	3.1068e-06	2.8466e-06	1151.5	220.79	3.0402e-06	3.3234e-06	279.42	77.843	60.786	17.689	1.8095e-06	24.672	0.00041122	0.00059465	0.00016413	1045.9	6.1946e-06	6.1279e-06	1142.8	219.33	5.5898e-06	6.0968e-06	279.19	78.26	61.174	17.938	5.4271e-06	25.265	134.286	191.558	191.560	78.558	216.466	203.880	78.324	86.420	207.547	218.414	85.727	92.347	92.436	100.563	214.712	99.601	-8191	255	
35650.363	1	1	0	0	0.067367	0.26827	0.028245	0.19313	0.19678	0.28045	0.18692	0.23957	0.17346	0.039232	0.1094	0.13872	0.19796	0.069459	0.17395	0.20795	-2.4396	-2.3271	-1.8771	-2.8167	-2.1333	-2.2271	-2.7729	-1.8792	-2.3875	-2.3958	-2.0833	-2.8292	-1.9958	-2.3271	-2.7229	-2.2	373.120	377.305	175.760	91.535	269.021	244.811	332.197	362.607	355.825	291.746	319.669	95.083	310.142	313.811	356.443	307.631	0.00032191	0.00021699	7.308e-05	1062.2	3.6283e-06	3.1723e-06	1150	218.78	4.2216e-06	1.8315e-06	278.7	77.415	61.152	17.611	2.1729e-06	24.536	0.00039475	0.00051128	0.0001541	1046.8	6.0608e-06	6.1108e-06	1140.2	218.5	5.7036e-06	6.235e-06	278.84	78.072	61.054	17.88	5.2543e-06	25.152	134.032	197.609	177.005	78.650	215.292	195.004	78.697	86.059	203.973	216.107	85.626	92.563	92.723	100.155	219.062	99.173	-8191	255	
35650.461	1	1	0	0	0.15819	0.11312	0.18128	0.10872	0.078221	0.26072	0.2172	0.084576	0.11916	0.088579	0.22958	0.074294	0.055087	0.18559	0.070541	0.15085	-2.2125	-2.3396	-2.0708	-2.8333	-2.1792	-2.3375	-2.9625	-2.1708	-2.5521	-2.3167	-1.9896	-2.7938	-2.2979	-2.1813	-2.7979	-2.1042	250.581	118.909	223.074	191.885	383.923	194.139	286.149	103.102	328.187	340.134	72.241	194.834	108.490	126.745	246.467	107.207	0.00030539	0.00029287	7.6106e-05	1050.2	2.4288e-06	3.3915e-06	1151.7	221.06	2.6344e-06	3.4316e-06	278.8	77.593	60.585	17.389	3.539e-06	24.472	0.00039742	0.00053124	0.00015852	1042.1	5.8054e-06	5.968e-06	1141.7	219.49	5.6894e-06	6.1043e-06	278.79	78.101	60.95	17.847	5.4971e-06	25.127	135.839	146.861	166.189	78.841	229.248	226.805	78.570	86.266	216.576	226.558	85.464	92.619	93.071	99.840	218.383	99.378	-8191	255	
35650.555	1	1	0	0	0.085804	0.15861	0.027603	0.14247	0.11873	0.15498	0.16096	0.08879	0.020369	0.11062	0.04152	0.019338	0.014037	0.19637	0.18656	0.21217	-1.9896	-2.6583	-1.9979	-2.9125	-2.3792	-2.1208	-2.9417	-2.0792	-2.625	-2.6854	-2.0646	-2.7208	-2.2521	-2.1063	-2.6229	-2.0896	267.154	360.429	208.261	313.579	229.161	319.448	413.468	299.099	99.480	179.531	228.533	360.724	215.014	182.998	422.563	267.707	0.00031593	0.00032111	7.2012e-05	1049.8	3.495e-06	1.6364e-06	1149.1	219.65	3.0878e-06	2.3806e-06	277.05	78.099	61.217	17.655	3.3533e-06	24.537	0.00041528	0.00049448	0.00015085	1041.3	5.9466e-06	6.0756e-06	1140.3	218.73	5.4484e-06	5.8726e-06	277.9	78.173	61.202	17.896	5.2206e-06	25.089	136.517	145.960	170.254	78.708	217.699	219.907	78.540	86.136	201.821	230.569	85.536	92.872	92.755	100.552	214.845	99.876	-8191	255	
35650.652	1	1	0	0	0.26404	0.23438	0.066054	0.15039	0.10169	0.21343	0.39014	0.11128	0.081353	0.33954	0.16736	0.12184	0.1462	0.19302	0.05897	0.10337	-1.9667	-2.4833	-1.8333	-2.7396	-2.3833	-1.9271	-2.7958	-2.1521	-2.2479	-2.7438	-2.1	-2.5271	-2.4688	-2.1854	-2.7958	-2.1437	372.474	320.525	141.064	325.638	310.931	408.786	390.783	317.527	141.177	148.057	387.136	331.460	272.145	193.798	369.506	116.485	0.00033696	0.00039816	8.6974e-05	1053.2	2.9089e-06	2.8292e-06	1149.1	218.66	3.3537e-06	2.3301e-06	276.27	77.762	60.578	17.653	3.6464e-06	24.633	0.00040871	0.00052326	0.00015399	1043.7	5.9456e-06	6.439e-06	1139.9	218.75	5.8082e-06	6.049e-06	277.88	78.11	60.936	17.897	5.528e-06	25.065	131.953	155.736	175.541	78.750	219.911	219.701	78.881	86.124	231.631	224.763	85.862	92.506	93.081	100.352	232.922	99.943	-8191	255	
35650.773	1	1	0	0	0.067592	0.10674	0.14825	0.096935	0.18949	0.098472	0.11623	0.1365	0.08707	0.1681	0.36883	0.15989	0.27369	0.17336	0.1451	0.15705	-1.7708	-2.4938	-1.9583	-2.5812	-2.45	-1.9083	-2.8833	-2.4313	-2.0875	-2.6625	-2.1854	-2.4458	-2.5042	-1.9708	-2.5687	-2.3979	372.906	302.495	331.559	178.789	146.369	260.100	308.358	272.436	400.869	150.115	407.473	239.438	282.101	419.543	154.704	123.112	0.00031262	0.00023415	9.0397e-05	1054.2	3.2548e-06	2.6277e-06	1147.3	219.13	2.6456e-06	2.8995e-06	277.63	77.76	60.906	17.561	2.6164e-06	24.669	0.0004077	0.00056142	0.00015313	1041	5.9271e-06	6.5264e-06	1137.7	218.35	5.6392e-06	5.8386e-06	278.2	78.28	61.026	17.817	5.438e-06	25.118	137.071	163.663	168.330	78.594	212.194	217.609	78.923	86.242	187.806	240.523	86.072	92.738	93.045	100.457	212.460	99.991	-8191	255	
35650.867	1	1	0	0	0.11017	0.26635	0.019653	0.11941	0.38084	0.12218	0.13983	0.099812	0.11928	0.12556	0.19557	0.14949	0.22929	0.24545	0.11403	0.21781	-1.7083	-2.5521	-1.85	-2.4396	-2.7562	-2.0833	-2.8187	-2.4667	-2.0083	-2.8771	-2.2396	-2.45	-2.7562	-1.9521	-2.6208	-2.6083	89.306	173.590	227.842	87.574	146.605	376.570	424.600	415.634	256.951	253.820	398.818	257.563	374.193	335.379	289.563	411.595	0.00032471	0.00024985	0.00010806	1055.7	2.995e-06	1.6103e-06	1149	219.17	3.0796e-06	2.4669e-06	277.95	77.604	60.525	17.665	2.9339e-06	24.448	0.00042695	0.00048863	0.00016004	1044.2	5.9707e-06	6.0874e-06	1138.6	218.61	5.7371e-06	5.9417e-06	278.01	77.893	60.838	17.868	5.3934e-06	25.066	137.383	167.372	158.125	79.001	218.159	195.603	79.008	86.098	211.337	182.768	85.681	92.736	92.911	100.334	227.861	99.699	-8191	255	
35650.965	1	1	0	0	0.20545	0.18119	0.054032	0.26062	0.30939	0.18761	0.089464	0.09348	0.17982	0.036279	0.34959	0.17198	0.036267	0.14673	0.035653	0.18272	-1.575	-2.7125	-2.2167	-2.4167	-2.8438	-2.0708	-3.0062	-2.6458	-2.0271	-2.8896	-2.2542	-2.2104	-2.8563	-2.175	-2.4875	-2.575	261.956	407.287	113.890	378.062	245.956	365.335	337.407	356.933	406.691	109.378	324.194	334.038	162.642	257.555	133.391	111.970	0.00030252	0.00018688	0.00010948	1055.3	2.5799e-06	2.3614e-06	1147.1	219.35	2.8903e-06	3.4687e-06	277.28	77.616	60.834	17.653	3.8855e-06	24.352	0.00041965	0.0005163	0.00015693	1042.1	5.5081e-06	5.9648e-06	1139.9	218.52	5.563e-06	5.8163e-06	277.76	78.138	61.112	17.859	5.6508e-06	25.045	136.432	145.828	164.522	78.712	214.500	227.823	78.738	86.333	195.504	227.462	85.883	93.038	93.000	100.441	212.202	100.212	-8191	255	
35651.059	1	1	0	0	0.23527	0.093485	0.27271	0.25367	0.19663	0.016333	0.14021	0.16048	0.22433	0.22318	0.060468	0.27787	0.052369	0.051106	0.18539	0.23706	-1.4562	-2.5687	-2.0958	-2.0521	-2.7896	-2.3438	-2.6521	-2.5583	-1.9083	-2.7708	-2.3542	-2.1771	-2.7354	-2.1312	-2.3688	-2.6562	168.722	336.452	143.664	340.472	221.524	329.771	368.820	319.618	149.967	374.152	125.711	344.751	84.301	225.239	200.267	373.556	0.00031245	0.00029411	5.6889e-05	1055	1.2893e-06	2.418e-06	1151.9	219.53	1.902e-06	2.6196e-06	277.14	77.807	60.906	17.616	2.3706e-06	24.645	0.00040237	0.00051945	0.000147	1043.5	5.6382e-06	5.7251e-06	1139.9	218.64	5.471e-06	5.7409e-06	277.35	78.055	61.063	17.917	5.3689e-06	25.067	136.436	161.661	141.764	79.121	208.964	217.484	78.886	86.406	216.366	214.699	86.136	92.825	92.950	100.015	220.697	99.935	-8191	255	
35651.133	1	1	0	0	0.21589	0.094092	0.1545	0.1868	0.30769	0.16562	0.37987	0.32662	0.022639	0.12133	0.33331	0.053675	0.10719	0.14081	0.11054	0.061038	-1.5625	-2.6146	-2.2708	-2.0854	-2.8375	-2.1021	-2.45	-2.8854	-1.9937	-2.8292	-2.4958	-2.0958	-2.575	-2.1875	-2.2021	-2.65	149.450	252.950	82.610	320.539	403.968	168.859	368.938	393.544	123.604	82.679	340.534	251.257	262.707	170.045	254.938	160.026	0.00033271	0.00025097	0.00010189	1049.3	3.1602e-06	2.5358e-06	1152.4	219.86	2.9164e-06	2.3769e-06	277.26	77.726	60.898	17.511	3.9568e-06	24.702	0.00042328	0.0005188	0.0001475	1038.9	5.5899e-06	6.2142e-06	1140.5	218.82	5.7271e-06	5.7536e-06	277.63	78.21	61.133	17.817	5.9255e-06	25.157	132.362	161.932	148.880	78.912	214.809	210.487	79.003	86.402	206.932	254.730	85.839	92.803	92.849	100.702	190.322	100.003	-8191	255	
35651.254	1	1	0	0	0.3095	0.15855	0.23406	0.22152	0.23462	0.11172	0.29501	0.18557	0.23427	0.11136	0.21257	0.11579	0.27896	0.24764	0.11355	0.10098	-1.5063	-2.4	-2.5438	-1.8896	-2.8063	-2.1708	-2.4479	-2.8812	-1.9083	-2.5583	-2.5604	-2.0104	-2.7812	-2.2771	-2.1146	-2.8417	251.707	349.086	387.857	380.112	243.723	325.375	404.821	236.376	201.436	282.014	360.493	426.956	277.505	90.361	295.159	125.604	0.00033806	0.00025942	8.8245e-05	1051.8	2.0839e-06	2.3203e-06	1145.4	219.47	3.1584e-06	3.0316e-06	279.22	77.834	60.744	17.524	2.5344e-06	24.701	0.00044006	0.00055455	0.00014588	1041.5	5.4719e-06	5.7975e-06	1138.8	218.93	5.5086e-06	6.0958e-06	278.32	78.048	60.919	17.854	5.6654e-06	25.148	135.583	188.674	169.335	78.614	215.917	235.990	79.041	86.352	230.515	215.647	86.008	93.001	93.186	100.513	227.680	100.130	-8191	255	
35651.348	1	1	0	0	0.090014	0.25935	0.16166	0.29681	0.071145	0.0080844	0.30508	0.20083	0.13299	0.061858	0.25694	0.35711	0.015991	0.21879	0.2724	0.25273	-1.5375	-2.4188	-2.7604	-2.0438	-2.7667	-2.4437	-2.3375	-2.9958	-2.075	-2.4562	-2.8563	-2.0521	-2.65	-2.3958	-2.0833	-2.725	390.097	225.954	77.746	388.075	139.552	312.770	379.125	322.710	337.611	198.608	81.600	294.160	401.773	412.731	145.869	402.829	0.00030254	0.0002937	0.00010895	1054	2.5642e-06	3.5301e-06	1153.8	218.75	2.0492e-06	3.1236e-06	277.18	77.621	61.043	17.555	2.9727e-06	24.739	0.00041965	0.00056522	0.00014559	1042.7	5.9057e-06	6.3015e-06	1140.4	218.38	5.7346e-06	6.2222e-06	277.76	78.004	61.36	17.892	5.5963e-06	25.234	138.004	156.836	180.286	78.950	247.412	233.507	78.845	86.657	200.656	241.856	86.017	92.468	93.567	99.830	210.352	99.819	-8191	255	
35651.445	1	1	0	0	0.11658	0.19083	0.21872	0.37125	0.095027	0.19968	0.2206	0.27712	0.24718	0.10927	0.19032	0.43221	0.11329	0.10381	0.33884	0.22298	-1.6292	-2.35	-2.85	-1.9854	-2.6958	-2.6125	-2.0687	-2.8792	-2.1562	-2.3875	-2.7708	-2.2479	-2.7687	-2.5354	-1.8542	-2.7292	257.119	209.576	398.216	264.465	319.104	235.278	363.991	365.377	254.842	268.748	415.561	402.947	72.191	199.086	344.810	168.565	0.00031128	0.00030842	7.1402e-05	1059.8	3.7435e-06	2.7286e-06	1152.4	219.98	2.9147e-06	2.0668e-06	278.38	78.208	60.762	17.397	3.7697e-06	24.561	0.00040175	0.00054526	0.00014692	1042.3	6.0636e-06	6.0458e-06	1139	218.74	5.7312e-06	6.5728e-06	277.5	78.061	61.228	17.789	5.7536e-06	25.111	131.682	172.093	179.055	79.188	248.098	210.886	78.706	86.507	211.510	250.736	86.002	92.461	93.433	100.644	214.893	99.447	-8191	255	
35651.539	1	1	0	0	0.36797	0.1399	0.20998	0.21229	0.25163	0.26079	0.20604	0.22557	0.17407	0.15016	0.29958	0.18687	0.17961	0.37763	0.1376	0.22596	-2.0208	-2.0854	-2.7313	-2.1042	-2.4604	-2.5917	-2.125	-2.8	-2.2	-2.1667	-2.7542	-2.0646	-2.35	-2.7521	-2.0208	-2.6729	319.801	299.248	81.625	412.273	165.225	89.579	332.924	364.571	329.422	223.806	143.298	327.328	255.845	368.034	271.973	112.655	0.00030642	0.00023669	7.5727e-05	1049.7	2.738e-06	3.6723e-06	1150.2	219.93	2.2219e-06	3.0984e-06	278.18	77.39	60.743	17.608	3.9575e-06	24.684	0.00041721	0.00059651	0.00014582	1040.3	6.072e-06	6.0746e-06	1138	219.03	5.7647e-06	5.8546e-06	278.05	78.12	61.049	17.835	5.8928e-06	25.151	129.560	182.395	160.632	78.613	220.691	228.689	78.906	86.319	208.812	206.288	85.588	92.980	93.423	100.298	209.718	99.912	-8191	255	
35651.660	1	1	0	0	0.11314	0.20543	0.29952	0.091313	0.12879	0.095786	0.18845	0.16073	0.068572	0.35377	0.070122	0.41285	0.22733	0.20195	0.20925	0.096632	-1.8292	-1.9583	-2.6562	-2.05	-2.3312	-2.8479	-2.1708	-2.6604	-2.4042	-2.1708	-2.9542	-2.0667	-2.3729	-2.7812	-1.9583	-2.6063	334.310	92.440	427.558	420.081	260.934	416.781	391.556	297.936	294.275	158.414	350.468	352.118	422.497	80.528	392.930	396.458	0.00031796	0.00021085	8.2869e-05	1055.4	2.416e-06	2.6296e-06	1153.4	220.25	3.869e-06	3.0998e-06	278.46	77.676	60.564	17.633	1.9158e-06	24.301	0.00041837	0.00053338	0.00014865	1041.7	5.9624e-06	5.6239e-06	1139.2	219.1	5.4735e-06	6.3072e-06	278.71	78.016	60.752	17.855	5.7427e-06	25.069	134.747	175.368	161.390	78.926	226.555	197.389	78.710	86.360	201.778	208.620	86.036	93.006	93.206	100.398	184.057	99.571	-8191	255	
35651.734	1	1	0	0	0.32397	0.40877	0.35223	0.2902	0.12129	0.17915	0.2643	0.074195	0.19446	0.41786	0.31566	0.057492	0.18285	0.23387	0.17412	0.2558	-2.0083	-1.9396	-2.8208	-2.1125	-2.0583	-2.7083	-2.175	-2.6542	-2.3167	-1.9271	-2.8125	-2.15	-2.2604	-2.7583	-1.9562	-2.6375	383.700	107.632	286.600	376.780	247.109	342.650	408.073	352.812	181.368	192.215	339.247	339.011	104.267	123.973	250.677	308.879	0.00029425	0.00028063	9.5421e-05	1054	2.1273e-06	2.7201e-06	1146.7	219.67	4.0724e-06	2.7884e-06	279.52	77.012	60.72	17.393	3.2294e-06	24.507	0.00041319	0.0005539	0.00014996	1041.5	5.967e-06	5.675e-06	1138.4	218.96	5.4216e-06	6.0224e-06	278.38	77.858	61.067	17.812	5.7063e-06	25.102	135.980	157.711	164.724	78.908	218.145	220.682	79.017	86.545	204.157	224.622	86.159	92.964	93.556	100.354	230.305	100.291	-8191	255	
35651.852	1	1	0	0	0.056198	0.17013	0.25182	0.13587	0.31488	0.013212	0.1836	0.19484	0.12564	0.16468	0.2716	0.30394	0.076003	0.15651	0.1582	0.063959	-2.0896	-1.925	-2.7125	-2.2771	-2.2729	-2.7729	-2.2938	-2.5083	-2.575	-1.9479	-2.7979	-2.3563	-2.0917	-2.7438	-2.1167	-2.3208	129.552	76.107	240.557	199.839	195.155	131.290	377.075	76.023	307.961	185.468	86.756	383.717	178.357	427.221	128.050	362.619	0.00029539	0.00028791	5.3001e-05	1052.8	2.6499e-06	2.1222e-06	1147.2	218.83	2.8179e-06	3.0261e-06	278.4	77.975	60.529	17.516	3.1897e-06	24.579	0.00039846	0.00055352	0.00014522	1040.5	5.9893e-06	5.7198e-06	1138.4	218.61	5.3789e-06	6.1468e-06	278.54	78.094	60.956	17.862	5.78e-06	25.046	131.099	153.063	176.448	79.120	219.482	222.570	78.817	86.850	227.473	223.899	86.330	92.907	93.581	100.973	233.557	100.267	-8191	255	
#DATA ENDS
