BOXY.EXE: ISS Imagent and Oximeter Data Acquisition Program Version 0.80
Ascii Record File

#ACQ INFORMATION
2  Detector Channels 
16  External MUX Channels 
1  Auxiliary Channels 
5000  Waveform (CCF) Frequency (Hz)
1  Waveforms Skipped 
30  Waveforms Averaged 
1  Cycles Averaged 
16  Acquisitions per Waveform 
10.0806  Updata Rate (Hz) 

#FILE INFORMATION
TRUE -- External MUX Channel results are PARSED.
FALSE -- AC DC and Phase are NOT grouped.
TRUE -- Companion Program Settings File CREATED.
FALSE -- AC data not excluded
FALSE -- DC data not excluded
FALSE -- Phase data not excluded
FALSE -- Auxillary Chn. data not excluded
Tab delimiters

#CALIBRATION STATE
TRUE -- Waveform Calibration Values APPLIED.


#AUX CALIBRATION VALUES
Val Type	aux-1	

Term	1.0000e+00	
Factor	0.0000e+00	


#WF CALIBRATION VALUES
A = Detector Channel
Val Type	A-AC1	A-AC2	A-AC3	A-AC4	A-AC5	A-AC6	A-AC7	A-AC8	A-AC9	A-AC10	A-AC11	A-AC12	A-AC13	A-AC14	A-AC15	A-AC16	A-DC1	A-DC2	A-DC3	A-DC4	A-DC5	A-DC6	A-DC7	A-DC8	A-DC9	A-DC10	A-DC11	A-DC12	A-DC13	A-DC14	A-DC15	A-DC16	A-Ph1	A-Ph2	A-Ph3	A-Ph4	A-Ph5	A-Ph6	A-Ph7	A-Ph8	A-Ph9	A-Ph10	A-Ph11	A-Ph12	A-Ph13	A-Ph14	A-Ph15	A-Ph16	

Term	0.00000e+00	0.00000e+00	0.00000e+00	0.00000e+00	0.00000e+00	0.00000e+00	0.00000e+00	0.00000e+00	0.00000e+00	0.00000e+00	0.00000e+00	0.00000e+00	0.00000e+00	0.00000e+00	0.00000e+00	0.00000e+00	0.00000e+00	0.00000e+00	0.00000e+00	0.00000e+00	0.00000e+00	0.00000e+00	0.00000e+00	0.00000e+00	0.00000e+00	0.00000e+00	0.00000e+00	0.00000e+00	0.00000e+00	0.00000e+00	0.00000e+00	0.00000e+00	0.00000e+00	0.00000e+00	0.00000e+00	0.00000e+00	0.00000e+00	0.00000e+00	0.00000e+00	0.00000e+00	0.00000e+00	0.00000e+00	0.00000e+00	0.00000e+00	0.00000e+00	0.00000e+00	0.00000e+00	0.00000e+00	
Factor	1.00000e+00	1.00000e+00	1.00000e+00	1.00000e+00	1.00000e+00	1.00000e+00	1.00000e+00	1.00000e+00	1.00000e+00	1.00000e+00	1.00000e+00	1.00000e+00	1.00000e+00	1.00000e+00	1.00000e+00	1.00000e+00	1.00000e+00	1.00000e+00	1.00000e+00	1.00000e+00	1.00000e+00	1.00000e+00	1.00000e+00	1.00000e+00	1.00000e+00	1.00000e+00	1.00000e+00	1.00000e+00	1.00000e+00	1.00000e+00	1.00000e+00	1.00000e+00	X	X	X	X	X	X	X	X	X	X	X	X	X	X	X	X	

B = Detector Channel
Val Type	B-AC1	B-AC2	B-AC3	B-AC4	B-AC5	B-AC6	B-AC7	B-AC8	B-AC9	B-AC10	B-AC11	B-AC12	B-AC13	B-AC14	B-AC15	B-AC16	B-DC1	B-DC2	B-DC3	B-DC4	B-DC5	B-DC6	B-DC7	B-DC8	B-DC9	B-DC10	B-DC11	B-DC12	B-DC13	B-DC14	B-DC15	B-DC16	B-Ph1	B-Ph2	B-Ph3	B-Ph4	B-Ph5	B-Ph6	B-Ph7	B-Ph8	B-Ph9	B-Ph10	B-Ph11	B-Ph12	B-Ph13	B-Ph14	B-Ph15	B-Ph16	

Term	0.00000e+00	0.00000e+00	0.00000e+00	0.00000e+00	0.00000e+00	0.00000e+00	0.00000e+00	0.00000e+00	0.00000e+00	0.00000e+00	0.00000e+00	0.00000e+00	0.00000e+00	0.00000e+00	0.00000e+00	0.00000e+00	0.00000e+00	0.00000e+00	0.00000e+00	0.00000e+00	0.00000e+00	0.00000e+00	0.00000e+00	0.00000e+00	0.00000e+00	0.00000e+00	0.00000e+00	0.00000e+00	0.00000e+00	0.00000e+00	0.00000e+00	0.00000e+00	-1.01651e+02	-1.31598e+02	-1.20738e+02	-1.91400e+02	-6.33302e+01	-6.26078e+01	-1.55998e+02	-1.62015e+02	-5.85124e+01	-6.34004e+01	-1.71242e+02	-1.69256e+02	-1.82252e+02	-1.76911e+02	-6.36124e+01	-1.48894e+02	
Factor	1.65450e-05	1.63506e-04	4.61476e-05	7.96256e-01	1.42743e-06	1.71502e-06	1.68508e-01	5.36599e-02	1.14399e-06	1.82088e-06	9.19581e-02	2.79579e-02	3.18351e-02	9.46751e-03	1.44351e-06	1.32714e-02	9.20689e-06	1.42985e-05	3.97790e-06	4.00663e-01	1.55516e-07	1.58660e-07	8.09809e-02	2.75310e-02	1.46786e-07	1.58617e-07	4.56486e-02	1.40073e-02	1.65838e-02	4.88813e-03	1.51075e-07	6.63547e-03	X	X	X	X	X	X	X	X	X	X	X	X	X	X	X	X	



#DISTANCE SETTINGS
A = Detector Channel
A-1	A-2	A-3	A-4	A-5	A-6	A-7	A-8	A-9	A-10	A-11	A-12	A-13	A-14	A-15	A-16	

2.5000e+00	3.0000e+00	2.5000e+00	3.0000e+00	2.0000e+00	3.0000e+00	1.5000e+00	3.0000e+00	3.0000e+00	3.0000e+00	3.0000e+00	3.0000e+00	3.0000e+00	3.0000e+00	1.5000e+00	3.0000e+00	

B = Detector Channel
B-1	B-2	B-3	B-4	B-5	B-6	B-7	B-8	B-9	B-10	B-11	B-12	B-13	B-14	B-15	B-16	

1.0000e+01	1.0000e+01	1.0000e+01	1.4400e+00	1.0000e+01	1.0000e+01	1.5100e+00	1.9400e+00	1.0000e+01	1.0000e+01	1.9900e+00	2.4900e+00	2.4100e+00	2.9000e+00	1.0000e+01	2.9800e+00	




#DATA BEGINS
time	group	step	mark	flag	A-AC1	A-AC2	A-AC3	A-AC4	A-AC5	A-AC6	A-AC7	A-AC8	A-AC9	A-AC10	A-AC11	A-AC12	A-AC13	A-AC14	A-AC15	A-AC16	A-DC1	A-DC2	A-DC3	A-DC4	A-DC5	A-DC6	A-DC7	A-DC8	A-DC9	A-DC10	A-DC11	A-DC12	A-DC13	A-DC14	A-DC15	A-DC16	A-Ph1	A-Ph2	A-Ph3	A-Ph4	A-Ph5	A-Ph6	A-Ph7	A-Ph8	A-Ph9	A-Ph10	A-Ph11	A-Ph12	A-Ph13	A-Ph14	A-Ph15	A-Ph16	B-AC1	B-AC2	B-AC3	B-AC4	B-AC5	B-AC6	B-AC7	B-AC8	B-AC9	B-AC10	B-AC11	B-AC12	B-AC13	B-AC14	B-AC15	B-AC16	B-DC1	B-DC2	B-DC3	B-DC4	B-DC5	B-DC6	B-DC7	B-DC8	B-DC9	B-DC10	B-DC11	B-DC12	B-DC13	B-DC14	B-DC15	B-DC16	B-Ph1	B-Ph2	B-Ph3	B-Ph4	B-Ph5	B-Ph6	B-Ph7	B-Ph8	B-Ph9	B-Ph10	B-Ph11	B-Ph12	B-Ph13	B-Ph14	B-Ph15	B-Ph16	aux-1	digaux	

790.636	1	1	0	256	0.16935	0.16035	0.14282	0.10438	0.18682	0.084949	0.18037	0.26915	0.11983	0.1344	0.17717	0.1434	0.17462	0.13223	0.1611	0.11171	-1.0812	-0.49375	-1.2771	-0.81667	-0.70417	-1.5333	-1.0562	-1.3417	-1.4979	-0.58125	-1.5875	-1.0792	-0.78125	-1.4562	-0.85417	-1.0583	294.209	238.817	365.761	91.446	275.792	318.181	217.992	288.629	136.127	308.281	282.983	203.823	228.332	71.758	115.295	84.880	0.00017066	0.00032499	6.6998e-05	1104.3	1.5605e-06	2.5027e-06	1198.4	234.17	2.0409e-06	2.9505e-06	295.73	82.354	64.855	19.367	1.3513e-06	26.896	0.00020167	0.00020923	4.9881e-05	1086.8	2.1857e-06	1.969e-06	1176.6	232.31	2.1376e-06	2.0432e-06	294.29	83.098	65.316	19.49	2.0524e-06	27.164	171.270	107.363	110.919	26.416	190.132	171.774	26.939	34.353	180.971	180.357	33.830	40.693	41.281	47.735	188.475	47.495	-8191	255	
790.733	1	1	0	0	0.15054	0.19802	0.24474	0.024946	0.072286	0.085723	0.27722	0.4165	0.2851	0.24171	0.11987	0.20189	0.25477	0.091816	0.089626	0.26452	-1.0167	-0.45208	-1.1646	-1.1146	-0.55	-1.7271	-1.0521	-1.0583	-1.3375	-0.55417	-1.3062	-1.0562	-0.67292	-1.3854	-0.90625	-0.96042	338.000	109.567	360.044	297.890	244.906	95.551	302.090	286.822	351.126	184.845	21.269	22.808	336.455	23.968	116.426	72.471	0.00015749	0.00039436	9.8977e-05	1114.9	2.0676e-06	3.405e-06	1196.8	234.59	2.007e-06	1.7815e-06	299.39	82.832	65.136	19.271	2.5879e-06	26.974	0.00019801	0.00019386	4.9633e-05	1089.9	2.0868e-06	1.9793e-06	1176.7	232.45	2.0608e-06	2.0045e-06	295.52	83.241	65.37	19.488	2.1506e-06	27.136	174.717	117.081	116.357	26.640	165.955	168.096	26.910	34.360	203.460	153.893	33.930	40.644	41.254	47.850	184.046	47.457	-8191	255	
790.829	1	1	0	0	0.15941	0.20358	0.036225	0.15599	0.1571	0.072627	0.11711	0.25026	0.18527	0.21639	0.060944	0.15795	0.16554	0.1307	0.21096	0.22481	-1.1333	-0.51458	-1.4021	-1.2938	-0.56875	-1.5063	-1.1667	-0.93958	-1.4625	-0.64792	-1.1396	-1.1562	-0.61042	-1.4062	-0.6875	-0.83958	60.579	233.686	140.625	103.519	137.271	125.502	343.470	345.467	86.845	359.476	286.367	325.345	115.142	364.323	60.973	56.171	0.00015193	0.00032795	8.2655e-05	1115.4	2.2918e-06	3.4887e-06	1196.5	233.49	1.9935e-06	3.9717e-06	296.05	82.168	65.005	19.361	3.4648e-06	26.834	0.00019802	0.00018993	5.1273e-05	1091	2.1652e-06	1.8196e-06	1174.3	231.69	1.9682e-06	2.0422e-06	294.29	82.97	65.293	19.464	2.0219e-06	27.095	172.542	95.973	105.058	26.540	176.285	176.718	26.825	34.360	192.637	189.064	34.006	41.023	41.073	47.833	193.278	47.454	-8191	255	
790.925	1	1	0	0	0.03369	0.16451	0.25936	0.208	0.27933	0.14486	0.30766	0.27251	0.14808	0.20572	0.27071	0.10562	0.092923	0.15725	0.23933	0.15708	-1.0771	-0.7125	-1.2437	-1.2854	-0.54375	-1.4646	-1.2042	-0.90417	-1.55	-0.91458	-1.0458	-1.3958	-0.54792	-1.5063	-1.0479	-0.67708	190.677	207.618	265.523	351.530	59.245	143.913	265.573	43.736	321.140	368.868	371.845	113.151	336.964	176.757	74.891	90.408	0.00016231	0.00024467	7.8196e-05	1121.5	2.8384e-06	3.4667e-06	1193.5	232.95	1.535e-06	3.6402e-06	295.77	82.393	64.558	19.136	3.6172e-06	26.726	0.00018479	0.00018356	5.0511e-05	1087.3	2.1008e-06	1.9492e-06	1171.9	230.95	2.0272e-06	2.1241e-06	292.98	82.925	64.937	19.361	1.9199e-06	27.008	177.257	126.154	127.426	26.534	157.758	191.785	27.141	34.227	197.531	181.751	34.034	40.678	41.212	47.518	173.206	47.158	-8191	255	
791.021	1	1	0	0	0.12438	0.086317	0.16674	0.08856	0.20118	0.083952	0.28792	0.1872	0.18198	0.15094	0.29651	0.13041	0.11274	0.18604	0.054922	0.031083	-1.2771	-0.68125	-0.90833	-1.4583	-0.62917	-1.2687	-1.4917	-0.70833	-1.4583	-1.0583	-0.83542	-1.6021	-0.86458	-1.4271	-1.3271	-0.88542	366.385	367.138	85.555	209.799	358.404	27.045	370.519	217.363	279.245	31.263	345.584	274.642	63.982	41.621	180.461	102.204	0.00014369	0.00027837	8.7168e-05	1104.9	2.3451e-06	3.2885e-06	1190	233.35	2.2629e-06	2.8825e-06	296.12	82.319	65.215	19.143	2.2426e-06	26.699	0.00018538	0.00018746	5.0188e-05	1080.6	2.0794e-06	1.9185e-06	1169	230.9	1.9709e-06	1.9728e-06	292.65	82.892	65.184	19.333	1.8862e-06	26.985	169.090	94.040	117.033	26.809	198.807	166.671	26.868	34.491	201.806	174.262	34.169	40.543	40.997	47.566	157.241	47.051	-8191	255	
791.117	1	1	0	0	0.23335	0.10804	0.039224	0.083762	0.13761	0.13785	0.22187	0.26451	0.1801	0.096468	0.25637	0.33936	0.097008	0.23118	0.11121	0.22685	-0.99792	-1.0771	-0.93958	-1.5271	-0.71458	-1.0917	-1.4125	-0.61875	-1.4417	-0.9375	-0.56458	-1.4042	-0.76458	-1.0292	-1.4417	-0.62708	25.590	375.025	108.759	185.684	188.426	112.986	237.514	240.121	332.678	43.216	52.953	328.713	338.292	48.175	25.838	66.537	0.00016196	0.00032394	9.5376e-05	1115	2.1891e-06	3.2893e-06	1190.8	232.45	2.1064e-06	2.968e-06	298.37	82.639	65.051	19.248	3.2526e-06	26.663	0.00018728	0.00019103	5.1439e-05	1086.5	1.954e-06	1.9211e-06	1168.7	230.64	2.1195e-06	2.0382e-06	294.01	83.157	64.964	19.4	1.8979e-06	27.021	172.552	107.507	96.794	26.060	192.140	194.310	26.848	34.187	189.815	152.171	33.859	40.533	41.157	47.804	188.858	47.246	-8191	255	
791.238	1	1	0	0	0.32748	0.13474	0.22755	0.12864	0.11773	0.10112	0.40764	0.12084	0.11507	0.21163	0.30341	0.21828	0.10209	0.41483	0.15897	0.103	-1.0375	-0.87083	-0.49583	-1.375	-0.79375	-1.0625	-1.6625	-0.54792	-1.3583	-1.2104	-0.77917	-1.4979	-0.87917	-0.86458	-1.3667	-0.63333	85.904	75.710	372.492	17.512	99.614	272.623	300.746	55.756	101.264	152.622	307.201	126.813	169.085	348.379	255.640	35.936	0.00016277	0.00027264	9.8948e-05	1115.1	2.3216e-06	1.5754e-06	1185.3	232.45	3.0476e-06	3.0293e-06	295.12	82.825	65.027	19.146	2.7946e-06	26.601	0.00018163	0.00017149	5.2401e-05	1084.2	1.9582e-06	1.8781e-06	1167.3	230.67	1.9345e-06	1.8773e-06	292.57	82.921	64.968	19.377	1.8249e-06	26.908	173.615	91.562	101.878	26.869	180.130	199.327	26.757	34.055	182.039	167.119	33.915	40.964	40.897	47.405	167.371	47.487	-8191	255	
791.334	1	1	0	0	0.047337	0.38674	0.094933	0.1003	0.22619	0.3381	0.3521	0.07365	0.13445	0.26373	0.17074	0.12732	0.30678	0.26563	0.16163	0.058941	-0.8875	-1.1042	-0.61458	-1.7875	-0.80625	-0.78125	-1.7542	-0.57292	-0.98542	-1.3646	-0.71875	-1.4312	-1.075	-0.8875	-1.5812	-0.92917	164.974	192.150	102.250	300.726	343.866	354.764	214.978	103.412	129.623	153.304	346.255	194.502	25.317	247.180	172.697	152.243	0.00015974	0.00019808	8.5164e-05	1103.4	2.7262e-06	2.6892e-06	1190.3	231.86	3.2505e-06	2.7569e-06	294.9	82.116	64.225	19.109	2.4117e-06	26.531	0.00018581	0.00017286	4.7718e-05	1079.3	1.9929e-06	1.9171e-06	1167.3	230.15	2.0003e-06	1.9008e-06	292.17	82.567	64.882	19.26	1.8497e-06	26.831	174.780	82.587	119.504	26.421	155.937	158.105	26.915	34.505	215.527	177.613	34.155	41.040	41.322	47.872	203.482	47.597	-8191	255	
791.430	1	1	0	0	0.1837	0.25327	0.11345	0.17337	0.28439	0.22698	0.26083	0.20463	0.05302	0.18407	0.34622	0.15437	0.23893	0.16909	0.084047	0.14684	-0.89583	-1.1896	-0.6375	-1.6521	-1.1021	-0.84375	-1.6917	-0.79792	-0.94167	-1.3625	-0.59375	-1.4438	-1.2313	-0.60625	-1.4333	-0.64583	17.020	127.424	267.285	146.486	87.921	131.253	323.916	289.767	71.371	32.238	376.492	53.746	47.406	163.628	62.829	325.991	0.00014792	0.00035811	0.00012362	1093.8	3.6966e-06	3.5709e-06	1183.9	230.84	2.4675e-06	3.2786e-06	294.58	82.292	64.143	19.101	1.9896e-06	26.546	0.00018003	0.00015496	4.9931e-05	1074.1	2.0062e-06	1.9614e-06	1163.7	229.36	2.01e-06	1.839e-06	291.2	82.554	64.524	19.234	1.7034e-06	26.846	174.957	92.765	109.684	26.481	175.065	165.927	26.977	34.492	190.591	181.692	34.049	41.041	41.416	47.942	182.123	47.439	-8191	255	
791.526	1	1	0	0	0.17822	0.019836	0.25561	0.20527	0.22859	0.196	0.31631	0.14661	0.065099	0.05998	0.016158	0.085526	0.086259	0.079722	0.11416	0.24764	-0.6	-1.4792	-0.52917	-1.3833	-1.1417	-0.62708	-1.925	-0.96875	-0.92083	-1.6854	-0.63958	-1.3396	-1.3062	-0.27292	-1.5271	-1.0854	239.590	349.020	258.921	359.664	194.517	207.040	44.877	346.342	75.394	96.027	363.307	296.470	338.264	70.922	270.757	36.602	0.00016002	0.00035992	0.00010697	1107.1	2.7358e-06	2.6738e-06	1181.6	230.2	2.2373e-06	2.5496e-06	293.96	81.823	64.065	19.009	2.9483e-06	26.667	0.00018625	0.00017209	4.9318e-05	1078.6	1.8497e-06	1.9806e-06	1161.4	228.39	2.0419e-06	1.7534e-06	291.13	82.357	64.435	19.207	1.7559e-06	26.847	169.839	95.298	107.772	27.070	176.292	170.110	26.959	34.484	187.516	177.154	34.296	40.870	41.274	48.154	175.808	47.427	-8191	255	
791.621	1	1	0	0	0.052923	0.11953	0.082305	0.085864	0.11018	0.142	0.13127	0.057366	0.22268	0.27354	0.24587	0.1333	0.22697	0.19488	0.062743	0.11591	-0.39792	-1.6458	-0.47083	-1.3333	-1.2625	-0.43125	-1.6375	-1.0833	-0.92708	-1.5792	-0.75417	-1.3312	-1.5771	-0.4625	-1.525	-1.05	309.351	305.861	161.909	165.209	215.412	68.395	283.031	369.158	19.496	21.523	254.626	270.327	366.263	72.540	70.544	21.996	0.00014167	0.00024655	8.268e-05	1109.1	2.9819e-06	1.8788e-06	1176.6	229.95	1.8967e-06	3.1061e-06	293.49	81.837	63.889	19.078	1.8939e-06	26.438	0.00019022	0.00016592	4.8298e-05	1077.6	1.9546e-06	1.7935e-06	1157.9	228.36	2.0614e-06	1.76e-06	290.4	82.174	64.176	19.138	1.7204e-06	26.67	175.981	59.469	106.330	26.945	182.645	185.431	27.095	34.215	176.734	155.000	34.480	40.731	41.179	48.017	183.906	47.289	-8191	255	
791.717	1	1	0	0	0.27634	0.058793	0.22569	0.16687	0.30623	0.16735	0.16734	0.2006	0.11153	0.073528	0.1385	0.19905	0.15062	0.26849	0.04814	0.30022	-0.39167	-1.5417	-0.66042	-0.90833	-1.525	-0.52292	-1.5208	-1.1854	-0.63542	-1.7708	-0.73958	-1.0375	-1.5312	-0.63333	-1.3417	-1.2729	72.806	368.179	187.090	203.742	277.195	130.329	189.849	347.315	217.295	65.465	111.133	222.947	299.427	57.949	108.677	312.907	0.00015257	0.00028573	8.6632e-05	1095.9	1.9188e-06	2.951e-06	1177.4	229.16	1.5769e-06	3.1821e-06	290.21	81.518	63.538	18.774	2.8649e-06	26.28	0.00018326	0.00016339	4.5066e-05	1072.2	1.8111e-06	1.8682e-06	1152.7	226.94	1.9321e-06	1.6655e-06	288.34	81.683	63.685	18.922	1.6253e-06	26.466	169.142	103.087	109.372	27.101	193.420	179.419	27.159	34.496	195.442	174.166	34.098	41.006	41.560	48.457	205.186	47.845	-8191	255	
791.837	1	1	0	0	0.11836	0.08241	0.11054	0.33663	0.25202	0.3224	0.16259	0.073275	0.028365	0.21914	0.25189	0.092425	0.19914	0.40251	0.11955	0.18915	-0.16458	-1.6187	-0.96875	-0.875	-1.6313	-0.89583	-1.3062	-1.4625	-0.78542	-1.6125	-1.05	-0.86458	-1.4667	-0.87708	-1.3125	-1.4333	302.052	21.826	97.458	374.025	172.717	158.458	321.938	252.070	109.713	339.233	63.139	78.062	309.163	95.072	40.524	347.262	0.00015395	0.00023322	7.0575e-05	1082.5	2.4537e-06	2.85e-06	1160	225.32	1.6053e-06	2.8772e-06	288.53	79.593	62.837	18.554	3.3667e-06	26.016	0.00017025	0.00013441	4.132e-05	1056.1	1.5279e-06	1.5506e-06	1140.8	223.63	1.8036e-06	1.5184e-06	285.09	80.167	62.793	18.668	1.648e-06	26.188	173.330	102.223	113.189	27.009	167.680	178.859	27.264	34.506	188.515	165.287	34.259	41.211	41.604	48.205	196.162	47.685	-8191	255	
791.934	1	1	0	0	0.16672	0.12332	0.25881	0.050356	0.090295	0.20643	0.30745	0.20662	0.38408	0.27133	0.23569	0.18135	0.16485	0.22105	0.14035	0.073455	-0.25833	-1.4208	-0.89167	-1.0083	-1.625	-0.78958	-1.2333	-1.4562	-0.50208	-1.4208	-1.2417	-0.65	-1.6562	-0.875	-0.86458	-1.6083	213.796	329.275	259.942	138.099	103.560	225.750	352.276	357.714	329.860	280.724	64.292	338.989	300.194	314.439	307.903	169.998	0.00015151	0.00030075	6.8565e-05	1078.7	1.991e-06	4.197e-06	1157	225.9	2.7502e-06	2.9646e-06	288.38	79.823	62.892	18.46	2.2372e-06	25.943	0.00016971	0.00014844	4.1552e-05	1052.3	1.6206e-06	1.6041e-06	1135.8	223.35	1.8434e-06	1.5997e-06	284.78	80.296	62.741	18.639	1.743e-06	26.134	174.158	112.019	97.513	26.880	177.273	172.882	27.147	34.367	188.015	167.057	33.977	41.195	41.120	47.849	189.966	47.744	-8191	255	
792.030	1	1	0	0	0.25023	0.10561	0.11014	0.37348	0.05561	0.097844	0.2196	0.21069	0.2238	0.28126	0.17146	0.12443	0.30071	0.28011	0.17273	0.42259	-0.175	-1.4042	-1.1792	-0.65417	-1.5646	-0.72917	-1.2104	-1.5375	-0.49375	-1.3708	-1.475	-0.46458	-1.425	-0.93333	-0.84167	-1.6604	348.696	243.797	344.978	329.193	217.777	250.703	301.196	347.688	187.045	216.539	229.983	338.178	364.348	330.426	61.009	326.980	0.00016561	0.00028365	8.4214e-05	1085	3.6451e-06	2.4172e-06	1162.1	225.56	1.6191e-06	3.5843e-06	289.11	80.299	62.595	18.587	2.3708e-06	25.921	0.00017752	0.00014546	4.2555e-05	1054.7	1.7664e-06	1.6785e-06	1139.2	223.86	1.7718e-06	1.5944e-06	285.47	80.363	62.681	18.658	1.6952e-06	26.126	169.855	96.464	128.296	26.470	172.813	180.248	27.090	34.522	211.491	175.321	34.024	41.341	41.606	48.098	176.066	47.864	-8191	255	
792.101	1	1	0	0	0.34594	0.20924	0.15814	0.12892	0.10833	0.1841	0.22021	0.09725	0.15798	0.091027	0.18118	0.19295	0.067359	0.03534	0.13052	0.11272	-0.21042	-1.225	-1.0979	-0.625	-1.725	-0.875	-1.0125	-1.6104	-0.60208	-1.2417	-1.25	-0.50208	-1.6604	-1.0479	-0.73333	-1.5896	353.603	306.951	225.774	246.126	310.366	336.887	340.215	24.954	346.847	198.979	359.385	334.835	259.237	88.621	313.262	271.388	0.00014615	0.00029604	6.6601e-05	1076.8	2.6712e-06	2.8529e-06	1158.3	225.51	2.1692e-06	1.6609e-06	286.62	79.962	62.777	18.55	2.8451e-06	25.948	0.00017384	0.00014537	4.0185e-05	1050.3	1.5487e-06	1.7575e-06	1137.8	223.58	1.7978e-06	1.7055e-06	284.65	80.318	62.807	18.639	1.6744e-06	26.244	169.129	118.104	122.622	27.340	173.885	174.935	27.238	34.474	208.589	183.108	34.198	41.249	42.065	48.601	176.595	47.663	-8191	255	
792.222	1	1	0	0	0.13741	0.31769	0.11629	0.12635	0.1499	0.14509	0.235	0.22484	0.14211	0.18946	0.28793	0.10601	0.17921	0.052938	0.16399	0.16784	-0.2125	-1.0187	-1.525	-0.55625	-1.4688	-1.0708	-0.8875	-1.5938	-0.62292	-1.25	-1.5979	-0.62708	-1.3896	-1.1292	-0.7	-1.6771	178.075	206.716	95.841	77.507	254.734	20.537	227.273	226.655	367.392	251.455	313.709	91.019	150.485	25.594	291.845	177.391	0.00015082	0.00035794	8.6691e-05	1085.4	2.7889e-06	3.3828e-06	1161.8	226.28	2.62e-06	3.0491e-06	287.08	79.671	62.476	18.493	3.2215e-06	25.981	0.00017278	0.00015317	4.2e-05	1053.9	1.745e-06	1.6577e-06	1138.9	224.24	1.8893e-06	1.8277e-06	285.25	80.319	62.875	18.659	1.9117e-06	26.187	169.346	108.332	110.901	27.419	183.283	166.405	27.345	34.298	188.422	164.552	34.107	40.833	41.778	47.930	185.616	47.806	-8191	255	
792.318	1	1	0	0	0.082337	0.13612	0.22418	0.098568	0.053806	0.049135	0.13917	0.19187	0.20767	0.25552	0.1591	0.098963	0.11136	0.2424	0.17183	0.15266	-0.54375	-0.78958	-1.5312	-0.53333	-1.2667	-1.2458	-0.70833	-1.6583	-0.94375	-1.0333	-1.6771	-0.79375	-1.2542	-1.4625	-0.6	-1.4583	279.385	215.364	329.154	35.694	319.643	20.892	208.378	310.795	181.743	287.678	332.588	30.430	27.216	111.775	348.763	74.555	0.00015593	0.0002406	8.706e-05	1082.3	2.3383e-06	2.6852e-06	1159.7	225.9	1.9326e-06	4.2631e-06	287.62	80.254	62.99	18.483	2.5528e-06	25.843	0.00018395	0.00016256	4.5224e-05	1053.6	1.701e-06	1.6481e-06	1139.2	224.26	1.9229e-06	1.7187e-06	285.42	80.331	62.88	18.623	1.7273e-06	26.135	166.551	108.777	99.633	26.807	161.668	154.588	27.040	34.854	193.688	178.281	33.852	41.278	41.687	48.204	150.126	47.614	-8191	255	
792.414	1	1	0	0	0.13893	0.31988	0.11903	0.13524	0.23865	0.2221	0.14075	0.17763	0.087274	0.063139	0.082478	0.15457	0.16063	0.28193	0.079816	0.088295	-0.525	-0.51458	-1.6375	-0.64167	-1.1958	-1.4875	-0.675	-1.6208	-0.80208	-0.89583	-1.6521	-0.70208	-1.0708	-1.4438	-0.6	-1.4333	47.509	160.987	238.422	309.068	366.502	268.113	208.478	299.949	170.478	301.143	148.335	334.165	364.748	16.588	205.066	23.751	0.00014547	0.00029259	8.7855e-05	1067	2.5605e-06	3.6507e-06	1159.3	226.4	2.4941e-06	2.4757e-06	286.96	79.789	62.945	18.511	3.0706e-06	25.889	0.00017453	0.00016116	4.0392e-05	1049.4	1.7317e-06	1.659e-06	1138	224.07	1.9642e-06	1.6952e-06	284.45	80.251	62.889	18.581	1.8422e-06	26.136	180.178	131.090	106.785	26.771	171.145	151.945	27.203	34.440	195.857	159.555	34.235	41.358	41.541	48.035	177.004	47.440	-8191	255	
792.510	1	1	0	0	0.030709	0.11471	0.068944	0.35839	0.24716	0.22121	0.1558	0.20098	0.1954	0.055225	0.11116	0.12696	0.043525	0.13515	0.12174	0.14484	-0.69375	-0.51042	-1.6146	-0.71458	-1.0688	-1.4833	-0.84167	-1.55	-1.2167	-0.60625	-1.7583	-0.71875	-1.1042	-1.5438	-0.61875	-1.3292	360.684	302.564	143.399	257.184	187.622	19.301	278.685	296.763	102.388	32.834	322.174	140.982	115.356	55.508	169.873	122.130	0.00015621	0.00014697	6.2494e-05	1075.7	2.9788e-06	2.8076e-06	1157.6	225.97	2.0206e-06	2.6206e-06	288.23	79.786	63.065	18.55	2.3849e-06	26.013	0.00018228	0.00016038	3.9779e-05	1052.8	1.6504e-06	1.6643e-06	1137.2	223.93	1.8599e-06	1.9203e-06	285.32	80.145	62.907	18.648	1.7877e-06	26.148	173.617	105.540	98.862	26.644	180.701	174.332	27.255	34.360	171.380	146.509	34.276	41.231	41.498	48.039	184.310	48.185	-8191	255	
792.629	1	1	0	0	0.18057	0.22048	0.10941	0.28309	0.077789	0.20227	0.30613	0.39551	0.30033	0.35773	0.19725	0.20848	0.084512	0.15661	0.29184	0.21359	-0.73958	-0.35625	-1.6208	-0.94167	-0.8375	-1.6229	-0.75833	-1.2583	-1.2604	-0.5875	-1.6104	-1.2062	-0.75417	-1.6458	-0.59167	-1.1063	187.974	256.243	217.484	313.285	279.587	75.403	332.194	245.960	50.755	205.263	330.933	347.433	302.768	154.143	278.260	20.266	0.00016462	0.00041846	8.2896e-05	1071.7	2.4282e-06	2.7278e-06	1162.6	225.2	2.1739e-06	4.2017e-06	288.9	80.083	63.094	18.451	1.7839e-06	26.15	0.00017202	0.00016014	4.1528e-05	1050.5	1.6861e-06	1.5337e-06	1138.3	224.01	1.7458e-06	1.8538e-06	285.95	80.196	63.005	18.622	1.7934e-06	26.221	178.066	118.682	117.596	26.686	187.924	166.262	27.155	34.502	211.355	160.040	34.550	41.126	42.047	48.356	169.389	48.150	-8191	255	
792.725	1	1	0	0	0.12954	0.37195	0.16466	0.12266	0.059839	0.044694	0.18649	0.20034	0.39794	0.28336	0.22277	0.18722	0.067759	0.27608	0.308	0.049732	-1.1646	-0.50833	-1.3771	-1.0417	-0.82292	-1.5271	-0.87292	-1.225	-1.3917	-0.625	-1.575	-1.2104	-0.63125	-1.6	-0.75417	-0.96875	133.559	169.239	140.492	256.259	277.158	366.549	238.262	45.831	331.749	346.800	37.408	35.520	29.486	321.613	226.769	332.074	0.00016493	0.00025876	9.2055e-05	1080.5	1.971e-06	1.4187e-06	1155.8	226.11	1.5697e-06	4.2183e-06	288.28	79.878	62.886	18.588	2.6898e-06	26.007	0.00017386	0.00016089	3.9713e-05	1053.6	1.7596e-06	1.5602e-06	1135.4	223.98	1.7666e-06	1.7352e-06	286.02	80.172	62.834	18.667	1.7531e-06	26.217	172.543	95.444	131.989	27.005	176.253	185.760	27.168	34.372	165.409	150.652	34.010	41.172	41.410	47.974	189.899	48.066	-8191	255	
792.799	1	1	0	0	0.2326	0.10693	0.34759	0.06319	0.13228	0.085344	0.4095	0.19438	0.1519	0.17058	0.12978	0.31008	0.18962	0.22393	0.025717	0.085775	-1.0354	-0.67292	-1.5375	-1.2229	-0.53958	-1.5167	-0.88333	-1.0063	-1.5812	-0.70417	-1.2708	-1.4208	-0.88542	-1.4854	-1.0021	-0.82917	240.533	354.700	141.564	126.744	234.702	180.224	319.439	353.588	64.783	99.531	208.332	302.592	334.221	348.724	53.785	62.070	0.0001489	0.00034099	8.9489e-05	1083.1	3.5999e-06	3.7594e-06	1158.2	226.72	1.713e-06	2.704e-06	290.26	79.79	62.41	18.473	2.9833e-06	26.203	0.00016707	0.00015836	4.0575e-05	1054.5	1.8331e-06	1.574e-06	1137.2	224.34	1.8195e-06	1.7144e-06	286.36	80.419	62.75	18.631	1.7175e-06	26.259	170.067	124.822	100.311	26.840	193.140	156.929	27.040	34.567	173.302	180.835	34.317	41.154	41.663	48.416	183.720	47.621	-8191	255	
792.918	1	1	0	0	0.27369	0.19204	0.097358	0.30886	0.2041	0.21287	0.22507	0.17676	0.10592	0.071702	0.13687	0.29631	0.095482	0.12454	0.32085	0.31106	-1.0708	-0.63958	-1.0854	-1.3062	-0.61875	-1.4188	-1.2437	-0.76875	-1.3438	-0.87083	-1.1896	-1.4875	-0.44375	-1.5479	-0.86458	-0.74167	351.301	145.503	138.681	276.247	127.024	94.483	316.516	355.979	114.430	114.008	215.101	105.341	363.609	248.169	124.136	362.964	0.0001298	0.00029859	0.00010613	1085.3	2.4881e-06	4.0352e-06	1160.3	225.91	2.2844e-06	3.1738e-06	288.52	80.594	62.31	18.501	2.7678e-06	26.019	0.00015991	0.00016226	4.4246e-05	1055.3	1.7583e-06	1.4521e-06	1138.5	224.44	1.7578e-06	1.796e-06	286.46	80.43	62.817	18.66	1.6971e-06	26.229	172.569	97.672	108.583	26.854	175.729	182.025	27.167	34.608	185.829	176.807	34.272	40.967	41.518	47.928	199.400	47.814	-8191	255	
793.014	1	1	0	0	0.17169	0.034312	0.084303	0.16772	0.14416	0.20142	0.2026	0.35563	0.10596	0.19413	0.093469	0.33814	0.13904	0.13427	0.19033	0.14895	-1.2417	-0.63333	-1.0271	-1.5063	-0.74375	-1.3917	-1.1917	-0.85625	-1.4438	-0.68542	-1.1479	-1.3937	-0.59792	-1.4229	-1.0083	-0.50625	77.796	360.229	353.119	346.070	55.969	225.380	303.513	262.895	85.544	185.088	332.949	372.338	321.652	92.917	127.083	185.717	0.00016199	0.00034222	6.2608e-05	1085.2	2.6688e-06	3.2823e-06	1157.5	225.9	3.1031e-06	3.7949e-06	289.1	79.923	62.232	18.477	2.7351e-06	25.986	0.00016185	0.00015559	4.0989e-05	1055.5	1.7661e-06	1.5066e-06	1136.9	224.04	1.7342e-06	1.6803e-06	285.61	80.228	62.622	18.623	1.7311e-06	26.172	169.831	102.066	109.236	27.315	157.762	184.912	27.289	34.526	193.252	143.220	34.239	41.158	41.361	48.543	169.389	47.727	-8191	255	
793.110	1	1	0	0	0.20501	0.28726	0.23735	0.080095	0.12102	0.15328	0.12276	0.20874	0.10408	0.19608	0.33144	0.074055	0.23933	0.11588	0.24455	0.044547	-1.0562	-0.7375	-0.79375	-1.4833	-0.61875	-1.2292	-1.325	-0.46875	-1.6917	-0.73333	-0.80625	-1.7083	-0.70208	-1.1063	-1.4562	-0.5875	279.866	94.252	276.399	157.516	331.061	206.748	367.689	62.155	315.018	48.519	303.321	301.955	111.407	78.967	265.237	121.472	0.00013017	0.00023842	0.00010037	1080.4	1.7822e-06	3.1386e-06	1158.8	225.07	2.1029e-06	3.3578e-06	290.06	79.71	62.209	18.438	2.7159e-06	25.94	0.00016187	0.00015678	4.4619e-05	1052.9	1.7528e-06	1.5598e-06	1139.7	224.02	1.7269e-06	1.6427e-06	285.66	80.232	62.694	18.626	1.6209e-06	26.115	172.339	95.795	111.490	26.987	195.468	161.256	27.270	34.372	221.376	164.649	34.192	41.006	41.193	48.629	190.069	47.622	-8191	255	
793.206	1	1	0	0	0.033051	0.18324	0.22763	0.17969	0.069892	0.029863	0.33378	0.20021	0.16249	0.09603	0.13157	0.14265	0.10226	0.42135	0.14011	0.27598	-1.1479	-0.88542	-0.75417	-1.575	-0.51667	-1.2771	-1.6667	-0.75833	-1.5104	-1.125	-0.6875	-1.4042	-0.525	-1.0271	-1.5104	-0.56875	224.021	58.201	149.036	318.496	241.279	229.814	347.672	231.977	91.114	235.802	356.841	211.564	76.291	20.567	266.436	32.663	0.00015364	0.00023754	8.8408e-05	1084.3	3.2186e-06	2.7034e-06	1157	226.61	2.5512e-06	4.1026e-06	289.25	80.003	62.17	18.55	1.2664e-06	26.076	0.00016131	0.00014799	4.3086e-05	1054.5	1.6358e-06	1.5195e-06	1137.4	223.94	1.662e-06	1.5313e-06	285.53	80.279	62.612	18.603	1.5114e-06	26.187	179.839	70.244	113.489	26.895	175.620	193.832	27.140	34.524	186.011	153.672	34.476	40.975	41.677	48.401	208.239	47.743	-8191	255	
793.327	1	1	0	0	0.12673	0.19004	0.11953	0.17479	0.10635	0.20055	0.24191	0.29312	0.17251	0.19061	0.17562	0.28637	0.094912	0.22913	0.22471	0.24888	-0.99792	-0.98125	-0.5375	-1.5792	-0.55833	-0.9875	-1.6	-0.65208	-1.2771	-1.2687	-0.825	-1.5312	-0.70833	-1.0771	-1.4813	-0.6375	273.674	75.910	330.153	285.556	238.352	71.311	265.714	319.263	166.234	147.676	155.067	307.756	363.388	299.445	263.758	291.660	0.00015852	0.00027509	7.632e-05	1074.3	2.6006e-06	2.7499e-06	1158.8	225.97	2.9053e-06	3.2606e-06	288.33	79.561	62.603	18.567	2.206e-06	25.888	0.00015961	0.00013813	3.9547e-05	1051.1	1.5688e-06	1.5228e-06	1135.7	223.39	1.6581e-06	1.5026e-06	285.75	79.999	62.486	18.6	1.4214e-06	26.158	167.651	112.525	112.227	26.994	176.361	177.815	26.986	34.622	204.472	178.710	34.222	41.168	41.356	48.384	188.082	47.652	-8191	255	
793.399	1	1	0	0	0.31935	0.4218	0.23856	0.22986	0.1184	0.081133	0.24416	0.24054	0.27252	0.18468	0.14449	0.16273	0.13046	0.091593	0.36733	0.17871	-0.71458	-1.225	-0.48333	-1.6688	-0.96875	-0.875	-1.7271	-0.82917	-1.3104	-1.3917	-0.58333	-1.6104	-1.0854	-0.85833	-1.6646	-0.63542	315.351	113.581	320.347	199.306	370.248	364.815	270.849	252.867	235.577	277.488	253.971	286.219	349.643	258.320	28.529	298.889	0.0001651	0.00034666	7.2851e-05	1069	2.3637e-06	3.0435e-06	1153.8	225.88	1.7262e-06	3.3822e-06	288.36	80.164	62.314	18.288	3.9003e-06	25.822	0.00016292	0.0001406	3.9273e-05	1047.1	1.56e-06	1.5278e-06	1135.1	223.39	1.6195e-06	1.3882e-06	285.33	80.019	62.468	18.539	1.4122e-06	26.031	172.623	115.255	125.891	26.571	188.621	154.535	27.005	34.341	171.372	161.324	34.300	41.442	41.537	48.362	180.571	47.453	-8191	255	
793.519	1	1	0	0	0.1044	0.1637	0.1771	0.28727	0.19344	0.089578	0.099255	0.042519	0.14181	0.10354	0.012338	0.29242	0.32619	0.17923	0.10415	0.3007	-0.625	-1.3667	-0.38542	-1.3542	-1.1333	-0.71042	-1.7625	-0.72292	-1.0438	-1.5167	-0.59583	-1.2792	-1.1688	-0.60833	-1.4604	-0.90208	309.694	291.652	36.466	211.055	50.359	171.474	268.989	294.775	293.306	139.766	368.858	317.995	22.274	99.700	119.401	34.137	0.00015654	0.0002763	7.2848e-05	1076.2	3.4313e-06	3.1907e-06	1152.2	223.95	2.6223e-06	2.4517e-06	288	79.445	62.432	18.425	2.6334e-06	25.814	0.00016141	0.00012806	3.7873e-05	1047.4	1.4836e-06	1.5106e-06	1132.4	222.72	1.6559e-06	1.3172e-06	284.11	79.872	62.425	18.568	1.438e-06	25.975	169.573	97.376	115.109	27.131	183.196	167.083	27.051	34.254	185.531	164.840	34.107	41.207	41.731	48.059	169.550	47.857	-8191	255	
793.614	1	1	0	0	0.07116	0.068867	0.23581	0.075831	0.14592	0.085954	0.13455	0.057452	0.074315	0.22795	0.13492	0.20105	0.074345	0.32774	0.27777	0.067066	-0.63958	-1.4896	-0.53542	-1.3167	-1.1313	-0.59375	-1.6208	-0.9	-1.0063	-1.6271	-0.82083	-1.1979	-1.1458	-0.68333	-1.5604	-0.84375	93.501	275.553	275.683	246.743	362.111	68.055	289.704	333.238	365.353	184.769	67.943	21.080	84.205	97.260	23.525	282.189	0.00015354	0.00031299	7.6626e-05	1071.8	2.7175e-06	2.259e-06	1151.5	224.63	2.9288e-06	3.1389e-06	287.06	79.317	62.318	18.368	3.0211e-06	25.801	0.00015985	0.00012094	3.6994e-05	1046.2	1.5117e-06	1.4835e-06	1130	222.26	1.6847e-06	1.3182e-06	283.17	79.741	62.335	18.497	1.3421e-06	26.034	173.592	136.646	111.149	27.036	172.918	178.447	27.204	34.517	189.781	180.272	33.827	41.207	41.563	48.446	188.350	47.589	-8191	255	
793.710	1	1	0	0	0.091384	0.13469	0.092573	0.036592	0.14084	0.11445	0.24363	0.068581	0.11982	0.23186	0.10862	0.066025	0.084055	0.077183	0.29724	0.11557	-0.3875	-1.5333	-0.66875	-1.1896	-1.2062	-0.62083	-1.4583	-1.1583	-0.75208	-1.5875	-0.63125	-1.3542	-1.4042	-0.47292	-1.4312	-1.15	136.942	346.658	227.840	72.587	175.767	288.302	336.187	364.042	173.079	156.851	38.453	28.954	348.273	151.597	313.144	363.274	0.00014759	0.00033871	5.5759e-05	1077.6	3.3568e-06	2.3977e-06	1149.5	223.25	1.6921e-06	3.317e-06	287.02	79.654	61.979	18.47	3.3078e-06	25.838	0.0001574	0.00013125	3.6323e-05	1046.3	1.4952e-06	1.4461e-06	1129.3	222.05	1.6027e-06	1.3208e-06	283.25	79.897	62.129	18.555	1.4588e-06	26.008	176.156	109.814	122.634	27.023	173.691	172.758	26.967	34.815	196.572	180.236	34.068	41.427	41.712	48.360	165.226	47.182	-8191	255	
793.806	1	1	0	0	0.035379	0.30172	0.076969	0.10486	0.23588	0.38304	0.18095	0.060299	0.16988	0.10243	0.16453	0.17774	0.20155	0.21039	0.095217	0.27872	-0.42292	-1.5854	-0.66042	-1.0187	-1.3896	-0.56875	-1.5771	-1.1208	-0.55417	-1.6333	-0.85	-1.1271	-1.3292	-0.62917	-1.2542	-1.2646	284.047	162.258	109.184	260.257	169.453	128.433	23.346	335.907	169.446	196.961	79.725	29.376	331.091	199.236	66.492	264.160	0.00016239	0.00022587	7.1384e-05	1075.4	3.8676e-06	2.0722e-06	1147.8	224.61	2.3527e-06	3.1875e-06	287.21	79.18	62.19	18.424	2.7578e-06	25.707	0.00016653	0.00012758	3.8635e-05	1046.9	1.5354e-06	1.5873e-06	1130.2	222.26	1.7458e-06	1.3925e-06	283.52	79.723	62.431	18.54	1.4871e-06	25.969	175.622	109.240	118.394	26.501	175.203	188.985	27.160	34.712	174.676	173.820	34.239	40.773	41.605	48.244	200.542	47.441	-8191	255	
793.926	1	1	0	0	0.16512	0.074702	0.13421	0.13155	0.15405	0.29159	0.21107	0.16327	0.29915	0.097249	0.27808	0.23153	0.19589	0.31286	0.018433	0.14977	-0.3625	-1.325	-0.825	-0.8875	-1.6063	-0.69792	-1.3333	-1.4271	-0.60833	-1.4708	-0.80417	-0.93958	-1.4542	-0.70833	-1.0979	-1.4937	56.864	336.418	355.008	132.833	314.538	145.051	313.752	309.766	354.959	287.648	54.440	297.416	197.449	367.325	60.315	368.163	0.00016561	0.00024924	0.00010594	1074.9	2.2965e-06	2.4469e-06	1150.7	224.01	1.9091e-06	3.2382e-06	288.87	79.304	61.773	18.311	3.1341e-06	25.766	0.00016958	0.00012282	3.8876e-05	1046.2	1.4463e-06	1.4838e-06	1130.1	221.94	1.629e-06	1.4371e-06	284.42	79.525	62.115	18.501	1.5133e-06	25.983	170.968	103.606	132.076	26.608	169.236	175.052	27.064	34.504	198.073	162.448	33.784	40.748	41.826	48.388	184.809	47.884	-8191	255	
794.023	1	1	0	0	0.10562	0.18175	0.24306	0.166	0.2763	0.24	0.2825	0.26139	0.21398	0.056099	0.24852	0.13637	0.18507	0.22982	0.21128	0.26342	-0.022917	-1.2812	-1.0583	-0.7	-1.6125	-0.70833	-1.1167	-1.4354	-0.4375	-1.6125	-0.90208	-0.52917	-1.7083	-0.79167	-0.90417	-1.5229	213.694	110.728	99.459	199.967	19.479	62.670	342.919	350.898	236.741	220.773	310.597	370.933	126.713	71.556	228.527	269.714	0.00015876	0.00034881	9.4436e-05	1074.4	2.1804e-06	2.8776e-06	1151.4	222.95	2.1357e-06	3.914e-06	286.7	79.141	61.929	18.392	2.0387e-06	25.709	0.0001658	0.00012609	3.5809e-05	1046.9	1.3831e-06	1.4213e-06	1129.3	222.16	1.6825e-06	1.4606e-06	283.45	79.848	62.196	18.49	1.4815e-06	25.955	170.511	92.681	125.419	27.232	170.974	192.925	27.347	34.619	211.797	175.806	34.133	41.314	41.299	48.397	187.814	47.573	-8191	255	
794.094	1	1	0	0	0.097116	0.079094	0.098704	0.060159	0.1479	0.099951	0.067189	0.3634	0.17106	0.25334	0.089866	0.16146	0.26326	0.085781	0.28456	0.26292	-0.33125	-1.2604	-1.1354	-0.7375	-1.4771	-0.54167	-0.975	-1.5896	-0.66458	-1.3521	-1.2812	-0.59167	-1.3083	-0.74375	-0.85833	-1.6396	102.783	85.784	134.930	372.848	304.105	283.196	273.244	318.832	80.785	288.808	287.099	47.573	50.454	61.129	21.664	173.333	0.00015255	0.00017219	7.2143e-05	1069.8	2.8736e-06	1.7224e-06	1154	223.75	1.8267e-06	2.1376e-06	286.2	79.488	62.315	18.392	2.8128e-06	25.848	0.00016125	0.00012696	3.5428e-05	1047.6	1.4557e-06	1.4094e-06	1131.2	222.15	1.6666e-06	1.451e-06	283.44	79.876	62.276	18.542	1.5983e-06	26.022	171.392	81.345	104.868	26.938	152.139	175.578	27.183	34.646	180.576	180.821	34.286	41.231	41.371	48.362	175.651	47.835	-8191	255	
794.190	1	1	0	0	0.18024	0.28135	0.07313	0.38754	0.26247	0.16368	0.074158	0.26578	0.075946	0.069126	0.1766	0.14163	0.016676	0.12725	0.22391	0.11881	-0.2875	-1.2938	-1.3083	-0.49792	-1.35	-0.92708	-0.86667	-1.7396	-0.76667	-1.1083	-1.4396	-0.70833	-1.4292	-1.0167	-0.65	-1.7188	152.550	116.880	115.474	344.992	257.890	347.925	283.025	323.580	220.302	160.745	254.774	115.081	373.091	62.802	374.710	336.625	0.00015015	0.00037107	8.0232e-05	1076.8	1.8852e-06	2.3557e-06	1149	224.27	1.2006e-06	3.0975e-06	287.35	78.834	62.374	18.336	2.4197e-06	25.804	0.00016122	0.00012869	3.5851e-05	1046.1	1.3993e-06	1.4732e-06	1130.8	222.31	1.6143e-06	1.3525e-06	283.59	79.485	62.287	18.468	1.5221e-06	26.025	177.240	109.332	122.297	26.764	177.885	180.023	27.370	34.715	210.538	176.214	34.215	41.078	41.719	48.545	187.578	47.729	-8191	255	
794.287	1	1	0	0	0.14259	0.21513	0.082043	0.2701	0.22156	0.10918	0.042495	0.050815	0.31503	0.13534	0.033961	0.059699	0.30093	0.16818	0.16652	0.02847	-0.3125	-0.9625	-1.4667	-0.63958	-1.3375	-1.1958	-0.97083	-1.8563	-0.70625	-1.1104	-1.5771	-0.55625	-1.4375	-1.2104	-0.50208	-1.4479	132.865	268.457	41.616	317.219	314.848	214.254	274.297	35.768	139.413	87.144	336.874	282.624	95.578	162.478	95.533	204.894	0.00015989	0.00036362	0.00010848	1070	2.9366e-06	3.8869e-06	1147.6	224.51	1.7665e-06	2.2123e-06	284.51	78.976	61.704	18.221	2.9366e-06	25.883	0.0001597	0.00012767	3.5594e-05	1040.7	1.3468e-06	1.4005e-06	1128.7	222.2	1.629e-06	1.4844e-06	283.14	79.43	62.156	18.419	1.6162e-06	26.023	175.693	103.710	129.209	26.856	173.452	158.516	27.092	34.800	180.605	184.019	34.038	41.358	42.025	48.189	155.677	47.923	-8191	255	
794.407	1	1	0	0	0.22205	0.18971	0.23796	0.12943	0.048056	0.085788	0.18637	0.26579	0.33238	0.15642	0.13408	0.12552	0.050531	0.13192	0.16749	0.1485	-0.58542	-0.83333	-1.45	-0.42292	-1.325	-1.1875	-0.76042	-1.4688	-0.9875	-0.91458	-1.5208	-0.55	-1.3458	-1.3604	-0.55208	-1.5854	112.153	240.315	369.955	267.088	45.434	319.436	299.627	354.010	314.824	176.826	69.244	215.439	195.127	373.781	123.038	307.373	0.00014834	0.0003782	6.9879e-05	1075.7	1.8557e-06	2.8294e-06	1150.7	223.15	2.5374e-06	3.9078e-06	286.59	79.263	62.18	18.307	2.5246e-06	25.828	0.00015429	0.00014215	3.7624e-05	1045.9	1.3585e-06	1.4002e-06	1127.5	221.71	1.5712e-06	1.5488e-06	283.35	79.57	62.322	18.407	1.6439e-06	25.992	170.528	117.524	151.995	26.987	180.243	184.144	27.206	34.972	201.929	169.605	34.113	41.235	41.397	48.222	158.127	48.240	-8191	255	
794.503	1	1	0	0	0.31097	0.23188	0.19839	0.16159	0.14032	0.26069	0.42291	0.11925	0.084036	0.10371	0.10457	0.3104	0.17089	0.12136	0.26423	0.2266	-0.5125	-0.88333	-1.5208	-0.56042	-1.1042	-1.35	-0.80417	-1.4312	-0.9875	-0.71042	-1.6833	-0.66458	-0.95625	-1.4917	-0.60417	-1.3167	87.236	309.400	148.504	299.756	219.419	260.337	367.580	93.169	183.650	244.093	247.973	351.121	340.153	78.213	23.965	233.570	0.00015658	0.00021423	6.7297e-05	1063.2	2.5871e-06	2.118e-06	1145.7	223.84	1.8803e-06	2.5786e-06	286.7	78.869	62.045	18.191	2.9313e-06	25.563	0.0001504	0.0001361	3.4367e-05	1043.9	1.502e-06	1.348e-06	1126.2	221.73	1.5767e-06	1.528e-06	283.31	79.57	62.108	18.401	1.6612e-06	25.868	179.498	85.081	120.623	26.893	161.800	173.675	26.891	34.855	170.642	171.416	34.091	40.950	41.930	48.632	170.637	47.534	-8191	255	
794.600	1	1	0	0	0.12741	0.3151	0.25483	0.077088	0.28785	0.1725	0.18592	0.20463	0.078633	0.14381	0.13283	0.066402	0.2276	0.14752	0.12686	0.1438	-0.80417	-0.58958	-1.6688	-0.64167	-0.79167	-1.4333	-0.72917	-1.5083	-1.1812	-0.47917	-1.6042	-0.87708	-0.88125	-1.5521	-0.52292	-1.3813	71.877	296.167	328.810	257.933	237.063	198.507	349.503	216.672	316.762	42.954	364.539	273.937	303.860	214.189	374.315	39.615	0.00014597	0.00036635	8.4047e-05	1059.7	1.4221e-06	2.935e-06	1145.9	224.55	2.1263e-06	2.4708e-06	286.69	79.161	62.216	18.431	3.1403e-06	25.818	0.00015487	0.0001395	3.4525e-05	1039.6	1.5461e-06	1.3946e-06	1126.1	221.88	1.6061e-06	1.5006e-06	282.73	79.438	62.101	18.458	1.4648e-06	26.015	170.535	98.855	121.987	27.118	150.131	155.563	27.147	34.778	198.892	170.632	34.471	41.365	41.644	48.677	191.618	47.808	-8191	255	
794.696	1	1	0	0	0.24265	0.12148	0.1257	0.16059	0.12976	0.089633	0.18898	0.30237	0.11595	0.14704	0.13016	0.22743	0.085694	0.10694	0.24141	0.29296	-0.86875	-0.35208	-1.5625	-0.80208	-0.79583	-1.5396	-0.79792	-1.2104	-1.3125	-0.45625	-1.5042	-0.9125	-0.6375	-1.1708	-0.69375	-1.0604	103.407	148.192	251.910	99.612	364.039	138.765	291.113	331.985	149.060	232.986	157.222	215.817	332.331	160.719	61.899	50.775	0.00015332	0.0002464	7.701e-05	1067.5	2.4333e-06	3.1531e-06	1152	222.92	1.6156e-06	4.4715e-06	286.1	79.261	62.069	18.368	1.4363e-06	25.9	0.00015936	0.000144	3.5171e-05	1041.4	1.5565e-06	1.3208e-06	1127.4	221.22	1.585e-06	1.4794e-06	283.57	79.485	62.144	18.414	1.4459e-06	25.951	172.342	108.565	102.371	27.035	174.451	186.813	27.335	34.703	190.352	169.485	34.264	41.327	41.652	48.250	171.958	47.648	-8191	255	
794.790	1	1	0	0	0.15335	0.2444	0.10024	0.059553	0.086891	0.11568	0.027546	0.020196	0.13196	0.086969	0.22938	0.23844	0.13181	0.21675	0.14552	0.050639	-0.99583	-0.62292	-1.2917	-1.0292	-0.7875	-1.4875	-0.83958	-1.0896	-1.2938	-0.71458	-1.5458	-1.2667	-0.65417	-1.3687	-0.7625	-1.05	160.670	31.686	32.896	22.144	67.327	278.465	82.941	329.928	211.661	131.488	243.765	365.283	64.502	102.866	318.061	20.307	0.00014986	0.00029819	0.00010918	1060.4	2.4373e-06	4.2046e-06	1146.9	223.45	2.5784e-06	2.3725e-06	285.85	78.65	61.91	18.186	2.6747e-06	25.716	0.00015711	0.00013503	3.3961e-05	1040.1	1.5367e-06	1.229e-06	1126	221.41	1.555e-06	1.4527e-06	282.84	79.285	62.163	18.414	1.5517e-06	25.921	170.149	86.882	94.831	26.882	171.321	158.607	26.903	34.884	206.513	171.158	34.565	41.242	42.151	48.397	186.396	47.915	-8191	255	
794.888	1	1	0	0	0.048379	0.18714	0.43022	0.17977	0.22951	0.088794	0.0809	0.10905	0.35282	0.12272	0.16344	0.2659	0.10558	0.16791	0.27797	0.21573	-1.1729	-0.53542	-1.2271	-1.3375	-0.7	-1.5646	-1.1771	-0.87708	-1.5292	-0.63542	-1.1896	-1.4604	-0.36667	-1.4917	-0.74375	-0.78125	92.674	168.865	264.733	79.243	152.496	205.049	299.207	150.928	37.132	174.522	41.650	28.150	62.681	34.465	148.223	209.996	0.00015975	0.00035739	0.00011077	1081.9	2.6221e-06	1.4509e-06	1148.5	223.75	2.2238e-06	2.6562e-06	286.08	79.037	62.059	18.272	2.8921e-06	25.742	0.00015736	0.00013426	3.5569e-05	1046.9	1.5555e-06	1.2481e-06	1125.6	221.61	1.5015e-06	1.4662e-06	282.76	79.54	61.94	18.434	1.5086e-06	25.933	173.942	104.592	115.702	26.826	195.379	187.258	27.186	34.696	174.073	169.087	34.507	41.039	41.418	48.508	193.830	47.938	-8191	255	
795.007	1	1	0	0	0.050833	0.24031	0.40359	0.10779	0.23962	0.056913	0.26656	0.22888	0.20062	0.27958	0.14649	0.21146	0.46496	0.10396	0.19302	0.17241	-1.2208	-0.70625	-1.1396	-1.4542	-0.6125	-1.6063	-1.1375	-0.99375	-1.5375	-0.84167	-1.1771	-1.4292	-0.70833	-1.5875	-1.1021	-0.84583	38.716	173.067	258.249	116.825	247.372	144.546	271.215	189.098	55.995	288.107	344.670	201.636	356.335	194.003	375.079	97.189	0.00016674	0.00025362	8.2911e-05	1065.8	1.95e-06	2.4195e-06	1145	224.16	2.4525e-06	2.9012e-06	284.35	78.901	62.011	18.238	2.6902e-06	25.72	0.0001484	0.00013911	3.5594e-05	1038.9	1.491e-06	1.3126e-06	1123.3	221.22	1.514e-06	1.3651e-06	282.03	79.365	62.101	18.401	1.4292e-06	25.857	172.687	117.875	109.802	27.261	157.854	160.054	27.058	34.623	203.209	160.475	34.231	41.285	41.428	48.419	165.931	47.997	-8191	255	
795.103	1	1	0	0	0.19792	0.14843	0.067058	0.064766	0.15221	0.22342	0.03684	0.2112	0.12767	0.059144	0.16107	0.28871	0.31292	0.36347	0.17961	0.13366	-1.1313	-0.69167	-0.8125	-1.5104	-0.49375	-1.5063	-1.45	-0.78542	-1.6042	-0.86667	-1.0333	-1.4562	-0.90625	-1.2437	-1.1646	-0.54167	146.834	204.256	333.500	67.632	72.723	331.782	280.779	364.429	228.233	281.550	212.844	216.054	360.001	332.685	244.665	208.074	0.00015242	0.00029294	9.3425e-05	1066.8	1.7584e-06	3.8289e-06	1149.4	222.91	1.9007e-06	2.8783e-06	285.78	79.483	62.064	18.212	2.437e-06	25.765	0.0001536	0.00013464	3.8503e-05	1040.8	1.5931e-06	1.3919e-06	1124.3	221.22	1.4657e-06	1.4061e-06	282.28	79.707	62.197	18.416	1.4151e-06	25.962	173.055	98.039	113.119	26.599	202.819	176.540	27.241	34.794	183.627	180.003	34.389	41.506	41.941	48.274	198.402	47.870	-8191	255	
795.199	1	1	0	0	0.16816	0.17648	0.16432	0.15676	0.252	0.23483	0.27185	0.14123	0.13591	0.12689	0.095209	0.085573	0.19309	0.11733	0.088551	0.083129	-1.05	-0.925	-0.83333	-1.6042	-0.60208	-1.4396	-1.3312	-0.70208	-1.5042	-0.96667	-0.92292	-1.7	-0.74167	-1.0708	-1.4333	-0.56042	49.685	154.658	90.216	55.337	373.268	176.896	312.865	313.546	330.359	352.835	25.327	375.403	295.227	172.600	131.250	372.016	0.00014708	0.00034737	9.5474e-05	1060.8	2.7818e-06	2.9052e-06	1146	223.12	2.4495e-06	3.0555e-06	284.57	78.973	61.798	18.359	2.6958e-06	25.76	0.00015615	0.00013003	3.9945e-05	1041.8	1.5412e-06	1.386e-06	1124.9	221.36	1.5085e-06	1.4074e-06	282.55	79.245	61.974	18.452	1.4544e-06	25.942	172.975	98.504	120.189	26.877	181.979	167.442	27.407	34.652	203.037	177.365	34.434	41.113	41.309	48.539	161.465	47.907	-8191	255	
795.295	1	1	0	0	0.057303	0.13954	0.16971	0.134	0.26953	0.21205	0.31974	0.16078	0.17362	0.18897	0.10807	0.16921	0.11433	0.091686	0.07791	0.099264	-1.1021	-1.1583	-0.7	-1.4604	-0.6375	-1.2375	-1.4354	-0.68333	-1.4375	-1.0396	-0.85	-1.5729	-0.94583	-1.0417	-1.4083	-0.66458	64.536	104.636	62.007	361.576	225.876	235.662	351.176	302.286	97.411	317.277	40.270	131.119	364.853	302.034	186.831	211.951	0.00015571	0.00021182	6.2833e-05	1055.3	3.2895e-06	2.1846e-06	1143.3	223.56	1.8186e-06	4.2835e-06	286.57	79.529	61.519	18.258	2.2314e-06	25.685	0.00015318	0.00013018	3.7765e-05	1035.7	1.5762e-06	1.4283e-06	1124.1	221.19	1.4859e-06	1.4606e-06	282.42	79.497	61.862	18.466	1.5189e-06	25.902	170.080	90.583	118.357	26.673	179.810	188.889	27.281	34.879	188.314	163.428	34.400	41.704	41.840	48.733	156.690	47.731	-8191	255	
795.391	1	1	0	0	0.2181	0.15725	0.30854	0.037388	0.13905	0.10951	0.18973	0.11305	0.33114	0.14987	0.1067	0.060375	0.18238	0.14335	0.087472	0.25888	-0.99375	-1.1646	-0.75208	-1.6896	-0.9	-0.81042	-1.5333	-0.76667	-1.275	-1.3813	-0.73958	-1.5063	-0.87292	-0.76667	-1.5104	-0.92083	88.740	192.209	231.663	153.904	350.867	325.224	62.998	340.964	131.944	304.116	59.215	351.867	355.987	352.717	357.005	342.107	0.00016636	0.00030038	0.00011733	1067.3	2.4006e-06	3.9586e-06	1136.7	222.32	2.046e-06	2.8288e-06	286.86	79.363	61.77	18.173	4.0047e-06	25.62	0.0001559	0.00012982	3.9075e-05	1040.5	1.4962e-06	1.5757e-06	1120.5	220.78	1.5275e-06	1.4834e-06	282.12	79.431	61.921	18.404	1.5262e-06	25.921	171.678	87.016	121.950	27.295	181.160	173.691	27.125	34.684	207.978	190.111	34.493	41.312	41.885	48.550	171.647	47.785	-8191	255	
795.488	1	1	0	0	0.16218	0.13709	0.043961	0.11419	0.40917	0.23586	0.1435	0.17078	0.13984	0.14013	0.20436	0.47279	0.21839	0.13257	0.28768	0.15206	-0.84167	-1.3396	-0.82083	-1.4833	-1.0229	-0.93542	-1.7	-0.76667	-1.1542	-1.3208	-0.56042	-1.4729	-1.025	-0.775	-1.4542	-0.84375	95.223	219.810	197.951	284.433	370.668	337.605	324.244	23.814	206.411	80.661	266.672	207.539	345.305	371.680	203.442	318.900	0.00015786	0.00031545	4.3076e-05	1067.2	3.4864e-06	2.3789e-06	1143	223.25	2.6138e-06	3.6807e-06	285.25	79.137	61.93	18.336	3.2571e-06	25.52	0.00015828	0.00012598	4.0889e-05	1038.5	1.4612e-06	1.5e-06	1123.4	221.21	1.5779e-06	1.496e-06	282.75	79.467	62.037	18.45	1.4355e-06	25.887	169.760	128.838	126.546	26.566	174.294	182.219	26.979	34.749	199.868	168.876	34.308	41.292	41.610	48.533	179.129	47.871	-8191	255	
795.584	1	1	0	0	0.12903	0.10182	0.032591	0.21035	0.22398	0.19045	0.28753	0.26459	0.17772	0.11174	0.15997	0.24653	0.12516	0.18946	0.12191	0.074737	-0.72083	-1.4312	-0.55	-1.3396	-1.1125	-0.70625	-1.7458	-0.89375	-1.0812	-1.5375	-0.65417	-1.3979	-1.2979	-0.68125	-1.4688	-0.88125	180.197	184.255	248.123	173.024	156.563	124.950	340.508	254.831	119.052	206.105	128.717	333.098	255.927	288.005	22.472	52.214	0.00016339	0.00024613	9.3262e-05	1064.8	2.7107e-06	2.991e-06	1148.7	222.92	2.3124e-06	3.3643e-06	285.4	78.96	61.862	18.393	3.1883e-06	25.825	0.00016229	0.00012875	3.832e-05	1039.6	1.4356e-06	1.4636e-06	1127.2	221.63	1.5957e-06	1.3975e-06	282.54	79.43	62.036	18.466	1.3981e-06	25.951	168.081	109.137	138.194	26.823	163.953	172.765	27.431	34.813	179.725	168.373	34.400	41.619	41.863	48.582	166.578	47.851	-8191	255	
795.703	1	1	0	0	0.22421	0.098313	0.16845	0.11144	0.23564	0.11659	0.053763	0.37944	0.088067	0.080062	0.23216	0.2181	0.12178	0.26029	0.25826	0.11166	-0.55208	-1.6187	-0.61458	-1.3062	-1.3	-0.65	-1.7792	-0.93125	-0.77708	-1.5333	-0.85	-1.4333	-1.2958	-0.76458	-1.4208	-0.91875	245.184	74.022	212.770	300.757	297.610	181.925	283.076	305.862	65.034	95.753	75.777	26.290	338.396	133.961	121.014	163.748	0.00014239	0.00030121	5.8616e-05	1070.8	2.9038e-06	3.0764e-06	1143.6	222.24	2.3523e-06	2.9305e-06	284.45	78.764	61.438	18.366	3.0096e-06	25.792	0.00015441	0.00012752	3.7309e-05	1042.8	1.4797e-06	1.4435e-06	1124.4	221.08	1.6397e-06	1.3664e-06	282.53	79.493	61.932	18.459	1.4207e-06	25.955	166.837	101.248	125.563	27.440	163.929	162.620	27.345	34.774	195.677	171.275	34.310	41.372	41.869	48.446	188.036	48.257	-8191	255	
795.799	1	1	0	0	0.16059	0.098747	0.17491	0.28301	0.14706	0.15312	0.40923	0.2484	0.081134	0.13051	0.17598	0.19642	0.10386	0.21456	0.047888	0.2531	-0.38542	-1.5104	-0.70208	-0.96875	-1.5042	-0.52917	-1.7854	-1.1583	-0.70417	-1.275	-0.76042	-1.0646	-1.5875	-0.525	-1.575	-1.2167	222.112	57.436	134.103	352.165	249.486	289.855	339.043	284.138	346.186	173.930	314.037	236.578	264.597	342.526	194.428	328.377	0.00015794	0.00033732	0.00010089	1070	2.6199e-06	3.1025e-06	1146.5	223.28	2.8042e-06	3.5785e-06	284.88	79.489	62.085	18.259	2.2063e-06	25.754	0.00016532	0.00013259	3.6373e-05	1041.2	1.4372e-06	1.4712e-06	1127.5	221.3	1.6302e-06	1.378e-06	282.58	79.507	62.241	18.437	1.472e-06	25.963	174.695	96.403	115.023	27.591	165.532	169.979	27.270	34.644	193.377	191.448	34.475	41.509	41.857	48.615	168.871	47.935	-8191	255	
795.895	1	1	0	0	0.25909	0.12026	0.13754	0.25007	0.30698	0.18657	0.30245	0.14735	0.17048	0.26894	0.29381	0.054203	0.30586	0.14167	0.19313	0.079768	-0.39375	-1.3146	-0.78958	-0.98542	-1.2771	-0.77917	-1.3813	-1.2354	-0.51458	-1.475	-0.82083	-0.81042	-1.4146	-0.51875	-1.3396	-1.3333	324.701	361.827	269.464	19.242	26.524	308.499	258.739	25.127	25.258	268.501	307.312	106.042	181.878	220.653	103.369	314.281	0.00015972	0.00025563	8.7779e-05	1078.3	2.2798e-06	2.0766e-06	1146.4	223.89	2.7838e-06	3.4744e-06	286.91	79.681	62.063	18.323	2.8808e-06	25.759	0.00017029	0.00012401	3.9025e-05	1044	1.6038e-06	1.5955e-06	1127.2	221.66	1.6455e-06	1.3387e-06	283.34	79.62	62.119	18.429	1.5004e-06	25.956	170.507	115.986	133.341	26.984	179.022	168.115	27.369	34.638	185.976	170.480	34.336	41.394	41.730	48.660	185.614	47.915	-8191	255	
795.991	1	1	0	0	0.15297	0.24639	0.1077	0.017481	0.0217	0.065186	0.39541	0.29131	0.34197	0.0855	0.24197	0.3028	0.16748	0.20208	0.070758	0.016926	-0.33542	-1.4583	-0.97083	-0.76458	-1.4937	-0.60625	-1.4958	-1.2875	-0.64583	-1.4604	-1.125	-0.69167	-1.6437	-0.64792	-1.1146	-1.3417	52.110	19.802	167.493	173.214	40.211	29.510	285.879	226.809	124.231	52.683	55.554	279.273	350.987	158.928	302.181	365.693	0.00014963	0.00030229	9.4441e-05	1069.3	2.2546e-06	2.3505e-06	1149.6	224.42	2.5576e-06	2.2775e-06	284.19	79.332	62.16	18.246	1.7823e-06	25.782	0.00016352	0.00012776	3.9928e-05	1042.3	1.4823e-06	1.5697e-06	1127.2	221.47	1.8214e-06	1.4067e-06	282.52	79.5	62.388	18.408	1.5265e-06	25.931	176.006	105.034	97.027	27.707	180.355	172.972	27.412	34.900	206.659	190.320	34.124	41.502	41.676	48.762	184.306	47.975	-8191	255	
796.085	1	1	0	0	0.29043	0.12286	0.20359	0.29379	0.11887	0.12657	0.27145	0.33949	0.15773	0.10328	0.04393	0.15479	0.052782	0.13668	0.17458	0.16332	-0.21458	-1.4583	-1.1292	-0.94375	-1.7333	-0.80208	-1.0688	-1.5875	-0.72292	-1.4229	-1.1625	-0.83333	-1.3937	-0.75417	-1.1208	-1.6	132.752	70.844	136.137	217.478	296.137	103.565	268.130	357.899	107.458	113.985	143.632	292.391	134.580	358.089	232.067	302.937	0.00014903	0.00028605	9.1239e-05	1076.4	2.6788e-06	3.0565e-06	1150.7	224.41	2.5993e-06	3.9318e-06	285.34	79.251	61.87	18.3	3.2747e-06	25.903	0.00016471	0.00013119	3.9754e-05	1047.2	1.5046e-06	1.5516e-06	1129.5	221.95	1.7929e-06	1.5336e-06	283.62	79.689	62.202	18.473	1.7024e-06	26.055	169.245	101.526	121.728	27.105	190.662	162.403	27.492	34.661	213.597	173.998	34.375	41.518	41.782	48.775	163.471	47.837	-8191	255	
796.182	1	1	0	0	0.077974	0.082167	0.13613	0.2111	0.26674	0.32433	0.34711	0.18672	0.23228	0.11463	0.10514	0.19718	0.10713	0.16226	0.056596	0.20806	-0.175	-1.4208	-1.1792	-0.58958	-1.5854	-1.0833	-1.1625	-1.7646	-0.65833	-1.2958	-1.2604	-0.65208	-1.3479	-0.73125	-0.86875	-1.5438	355.399	343.535	329.197	268.251	97.105	194.260	323.103	316.373	88.111	85.973	80.540	241.748	160.950	267.039	217.421	36.274	0.00016413	0.0003701	9.7937e-05	1071.2	3.1907e-06	3.0072e-06	1155.1	223.53	2.2998e-06	2.6268e-06	285.8	79.127	62.411	18.315	3.0607e-06	25.998	0.00017202	0.00014716	3.8702e-05	1046.3	1.6102e-06	1.5526e-06	1131.2	222.08	1.7731e-06	1.5082e-06	282.97	79.755	62.497	18.491	1.7144e-06	26.02	167.772	105.161	117.638	26.885	196.159	174.059	27.500	34.679	219.800	158.016	34.289	41.385	41.895	48.531	158.145	47.764	-8191	255	
796.280	1	1	0	0	0.20721	0.074342	0.11563	0.049127	0.1388	0.19764	0.14717	0.16371	0.027568	0.19037	0.1846	0.21633	0.29958	0.12131	0.13357	0.33994	-0.27083	-1.1583	-1.2896	-0.69375	-1.4312	-1.0458	-0.77083	-1.7021	-0.5375	-1.1542	-1.4917	-0.70833	-1.6375	-1.325	-0.74167	-1.7125	213.063	120.591	245.350	207.282	156.298	126.203	266.584	125.842	64.737	83.834	189.056	346.737	165.579	335.274	290.398	165.712	0.00016971	0.00033247	7.833e-05	1064.5	3.7275e-06	3.4171e-06	1151.7	224.36	1.6427e-06	1.6556e-06	286.36	79.369	62.535	18.424	2.5314e-06	25.789	0.00016676	0.00014114	3.6522e-05	1045.1	1.5393e-06	1.5278e-06	1130	221.93	1.7052e-06	1.4599e-06	283.61	79.633	62.253	18.493	1.6398e-06	26.012	171.025	90.801	116.069	26.932	177.685	179.456	27.418	34.808	188.226	162.515	34.250	41.421	41.973	48.135	152.746	48.154	-8191	255	
796.398	1	1	0	0	0.28861	0.16958	0.087247	0.24912	0.082079	0.20265	0.3424	0.21835	0.41636	0.028838	0.12102	0.081748	0.18516	0.142	0.22075	0.1794	-0.40208	-0.9125	-1.3708	-0.6	-1.4333	-1.0875	-0.925	-1.4646	-1.0083	-1.0125	-1.6063	-0.7375	-1.4146	-1.3417	-0.69167	-1.6896	285.048	68.223	242.244	51.091	138.962	338.697	347.206	280.216	367.407	257.151	333.727	362.716	24.892	105.840	103.975	95.190	0.00015562	0.00027213	0.00011254	1071.7	2.5462e-06	3.0259e-06	1148.6	223.62	1.0215e-06	3.4791e-06	285.69	79.157	62.172	18.302	3.5055e-06	25.934	0.00015978	0.00014471	3.8453e-05	1044.8	1.3828e-06	1.4174e-06	1128.1	221.89	1.6253e-06	1.5525e-06	283.23	79.478	62.22	18.477	1.5435e-06	25.974	168.752	120.348	107.800	26.814	182.384	164.681	27.398	34.579	193.850	160.258	34.597	41.287	42.139	48.217	178.712	48.169	-8191	255	
796.495	1	1	0	0	0.20219	0.28319	0.079661	0.52391	0.20554	0.41113	0.28714	0.12376	0.22309	0.12293	0.1869	0.065853	0.16491	0.25942	0.14843	0.27	-0.40208	-0.67917	-1.4667	-0.71667	-1.2625	-1.2563	-0.73958	-1.5021	-0.93125	-0.66667	-1.5438	-0.83125	-1.2979	-1.2646	-0.68125	-1.4958	87.445	253.398	86.701	326.191	278.671	152.820	304.283	232.034	306.873	347.825	312.763	166.952	375.221	201.762	81.682	330.076	0.00015247	0.00034159	8.4208e-05	1070.6	2.6679e-06	4.2654e-06	1146.8	223.54	3.0643e-06	4.2348e-06	285.96	78.868	62.093	18.24	2.9569e-06	25.87	0.00015955	0.00014024	3.6903e-05	1044.3	1.4567e-06	1.4633e-06	1127.5	222.11	1.6367e-06	1.5184e-06	283.01	79.431	62.217	18.401	1.5051e-06	25.959	172.451	111.022	86.096	26.873	174.205	173.580	27.482	34.844	181.779	171.686	34.458	41.110	41.747	48.634	171.581	47.970	-8191	255	
796.591	1	1	0	0	0.25839	0.23371	0.069643	0.14331	0.23788	0.15358	0.20108	0.17397	0.19453	0.082849	0.016288	0.091904	0.25165	0.16311	0.21489	0.09913	-0.80833	-0.71667	-1.4896	-0.84375	-1.1167	-1.5958	-0.72292	-1.4104	-1.2104	-0.58333	-1.6417	-0.75417	-0.97917	-1.6083	-0.46875	-1.5479	240.843	153.224	168.570	292.890	336.148	327.738	122.731	313.602	120.286	106.552	320.835	77.601	268.571	38.717	55.377	129.383	0.00015537	0.00022747	9.2219e-05	1068	2.058e-06	3.0153e-06	1144.2	223.21	2.3359e-06	2.1477e-06	284.87	79.115	62.246	18.429	2.8098e-06	25.655	0.00015882	0.00013852	3.382e-05	1041.8	1.5568e-06	1.2944e-06	1124.9	221.48	1.4336e-06	1.4811e-06	282.5	79.355	61.909	18.472	1.5237e-06	25.875	172.888	112.612	133.689	27.484	175.010	169.195	27.365	35.071	196.775	159.270	34.432	41.505	42.053	48.692	175.288	48.303	-8191	255	
796.687	1	1	0	0	0.27181	0.13276	0.07522	0.024947	0.11194	0.14566	0.19929	0.31253	0.2437	0.11064	0.13235	0.2307	0.066777	0.093833	0.18403	0.27789	-0.89792	-0.62292	-1.6833	-0.825	-0.84583	-1.4104	-0.72917	-1.5958	-1.3625	-0.59167	-1.5292	-0.97292	-0.84792	-1.5812	-0.675	-1.1583	328.025	312.659	236.878	22.169	137.023	259.970	248.768	284.960	155.654	77.431	329.536	34.192	269.715	260.936	76.879	302.372	0.00015661	0.00034608	7.37e-05	1054.9	1.881e-06	2.0561e-06	1144.6	224.11	3.307e-06	3.6154e-06	286.23	78.655	61.641	18.253	1.4944e-06	25.561	0.00015575	0.00013205	3.3025e-05	1034.8	1.4738e-06	1.3215e-06	1122.3	221.27	1.5602e-06	1.4609e-06	282.54	79.191	61.859	18.4	1.4044e-06	25.841	171.111	112.087	122.554	27.266	145.105	203.092	27.420	34.975	205.687	172.959	34.493	41.469	41.667	48.144	156.643	48.511	-8191	255	
796.783	1	1	0	0	0.19847	0.15066	0.021052	0.12374	0.072998	0.16652	0.050036	0.13063	0.088823	0.15652	0.18808	0.16905	0.2164	0.13416	0.011535	0.21488	-1.0938	-0.61875	-1.3	-1.0875	-0.83542	-1.3	-1.0229	-1.2833	-1.2479	-0.77292	-1.6479	-1.05	-0.75417	-1.6125	-0.75625	-1.0542	243.540	200.558	151.457	367.595	31.266	107.468	83.113	257.906	200.697	239.058	289.230	366.690	56.533	24.811	177.873	340.215	0.00015847	0.00032663	8.1269e-05	1062.1	2.161e-06	3.8923e-06	1141.1	223.22	2.9159e-06	2.9652e-06	284.63	78.649	61.864	18.303	3.2651e-06	25.862	0.00015095	0.00014391	3.4135e-05	1037.3	1.4314e-06	1.2544e-06	1121.8	221.39	1.429e-06	1.4629e-06	281.94	79.224	62.009	18.436	1.4843e-06	25.946	169.337	109.067	116.117	27.041	182.091	179.740	27.287	35.003	178.899	175.670	34.698	41.237	42.101	48.660	187.925	48.394	-8191	255	
796.879	1	1	0	0	0.39827	0.22401	0.15368	0.076727	0.28482	0.26257	0.095965	0.13587	0.11518	0.28042	0.020201	0.11043	0.20877	0.23414	0.17743	0.32527	-1.0167	-0.62083	-1.4438	-1.175	-0.65	-1.5542	-1.0479	-0.88958	-1.4646	-0.53125	-1.275	-1.2417	-0.66667	-1.4375	-0.95208	-0.96042	92.058	116.985	218.092	115.392	103.127	257.137	212.467	348.610	28.055	168.825	294.437	210.479	44.165	312.313	187.917	334.130	0.00016227	0.0002755	8.849e-05	1065.4	1.6816e-06	1.7268e-06	1143.3	223.53	2.2474e-06	2.9928e-06	284.07	79.283	62.289	18.359	2.4017e-06	25.798	0.00015209	0.00013354	3.4823e-05	1039.9	1.4823e-06	1.2772e-06	1125.1	221.39	1.488e-06	1.4626e-06	282.01	79.357	62.117	18.421	1.4053e-06	25.97	172.320	118.261	119.540	27.371	183.040	162.057	27.538	35.199	187.110	144.935	34.798	41.316	42.068	48.615	181.155	48.117	-8191	255	
797.000	1	1	0	0	0.17663	0.35778	0.09986	0.25018	0.13588	0.05897	0.35604	0.21896	0.1837	0.23326	0.16591	0.13573	0.3333	0.039027	0.10757	0.32055	-1.2771	-0.51458	-1.3083	-1.2604	-0.61667	-1.4708	-0.99583	-0.88542	-1.4542	-0.56042	-1.3083	-1.2917	-0.61875	-1.3833	-1.0042	-0.85417	82.787	328.105	88.031	66.745	216.543	170.268	338.214	64.442	29.369	93.794	327.915	104.671	154.522	327.113	66.535	107.754	0.00015546	0.00032479	8.4677e-05	1074.4	2.6091e-06	3.0694e-06	1143.3	223.83	2.0979e-06	3.514e-06	286.38	78.508	61.872	18.336	2.2508e-06	25.654	0.00014576	0.00012985	3.4069e-05	1041.3	1.4716e-06	1.2832e-06	1123	221.37	1.433e-06	1.4001e-06	282.21	79.166	61.96	18.405	1.4009e-06	25.901	175.976	104.596	113.173	27.267	185.756	171.854	27.525	34.842	172.497	157.603	34.567	41.640	41.822	49.060	179.978	48.064	-8191	255	
797.094	1	1	0	0	0.15968	0.11045	0.081386	0.1006	0.14393	0.20889	0.11874	0.024909	0.14618	0.21507	0.10524	0.091249	0.31281	0.22362	0.20251	0.051281	-1.4562	-0.66042	-1.0833	-1.5708	-0.5875	-1.3188	-1.1812	-1	-1.5208	-0.68333	-1.05	-1.4125	-0.5625	-1.4521	-1.2646	-0.75417	59.417	49.898	373.345	248.280	328.253	204.824	262.890	326.570	207.342	141.980	248.548	184.455	313.276	302.952	49.836	34.994	0.00015169	0.00024454	8.8362e-05	1069.4	2.0844e-06	2.6016e-06	1144.3	223.63	1.7748e-06	3.8795e-06	284.38	78.728	61.576	18.417	2.267e-06	25.753	0.000148	0.00012237	3.3257e-05	1040	1.5422e-06	1.302e-06	1122.2	220.86	1.3923e-06	1.4312e-06	281.4	79.193	61.909	18.408	1.4056e-06	25.879	175.440	119.304	143.483	27.273	203.136	174.426	27.503	35.245	191.804	157.527	34.869	41.515	42.193	48.847	173.082	48.163	-8191	255	
797.190	1	1	0	0	0.17644	0.1543	0.39456	0.15991	0.0811	0.091806	0.25547	0.35233	0.13953	0.081329	0.27803	0.1639	0.14543	0.39312	0.10111	0.055349	-1.1125	-0.925	-0.94375	-1.4792	-0.56042	-1.2667	-1.3042	-0.73542	-1.5333	-0.71042	-0.97292	-1.4271	-0.56042	-1.2979	-1.3021	-0.56667	337.994	300.260	187.842	52.895	58.686	40.882	356.437	269.122	311.419	285.164	308.506	236.811	242.097	140.911	170.308	283.486	0.00013697	0.00035027	5.9845e-05	1066.6	2.5428e-06	3.4552e-06	1144.2	222.39	2.0768e-06	3.471e-06	284.48	78.789	61.808	18.255	3.0491e-06	25.958	0.00014347	0.00013107	3.7309e-05	1039.8	1.4865e-06	1.3152e-06	1123.9	220.7	1.481e-06	1.3965e-06	282.12	79.23	62.017	18.413	1.3172e-06	25.943	171.389	102.657	130.738	27.367	169.532	186.936	27.676	34.955	193.743	173.668	34.794	41.836	42.086	48.906	191.898	48.260	-8191	255	
797.262	1	1	0	0	0.22197	0.077064	0.17276	0.26383	0.11471	0.13506	0.13286	0.29332	0.098151	0.11192	0.28107	0.20152	0.14362	0.17405	0.20095	0.13568	-1.05	-0.94167	-0.85417	-1.4937	-0.55833	-1.1333	-1.3229	-0.47708	-1.6229	-0.9625	-0.625	-1.5833	-0.65417	-1.0729	-1.4562	-0.60417	119.040	167.826	68.660	344.133	355.365	321.849	327.413	343.023	151.746	215.673	231.896	275.416	177.631	22.260	188.910	73.585	0.00015121	0.00024821	9.1201e-05	1067.4	2.5825e-06	2.1527e-06	1145.5	223.28	2.2411e-06	2.2741e-06	284.99	78.83	62.026	18.386	2.2211e-06	25.681	0.00014743	0.00012952	3.5362e-05	1036.5	1.4745e-06	1.1754e-06	1123.8	221.17	1.4798e-06	1.3525e-06	281.99	79.24	62.102	18.435	1.3729e-06	25.899	172.155	88.404	109.897	27.326	174.023	159.250	27.602	34.922	170.474	177.796	34.650	41.256	42.426	48.915	175.229	48.197	-8191	255	
797.383	1	1	0	0	0.10097	0.16194	0.15708	0.10569	0.12381	0.30463	0.38616	0.16005	0.17732	0.26365	0.14491	0.32095	0.15241	0.091433	0.30669	0.25273	-1.1063	-1.0542	-0.55417	-1.4104	-0.91667	-1.0688	-1.5646	-0.725	-1.4146	-1.1688	-0.80625	-1.5354	-0.66667	-0.96875	-1.4562	-0.64583	249.409	28.275	358.199	215.578	264.579	340.348	306.592	311.236	342.092	113.801	302.774	347.708	142.728	81.225	32.938	337.419	0.00015505	0.00038659	7.3373e-05	1053.6	2.4724e-06	3.1011e-06	1136.7	223.29	2.3323e-06	3.4626e-06	284.45	78.879	61.885	18.307	2.5729e-06	25.643	0.00014888	0.00012151	3.6588e-05	1037.8	1.33e-06	1.4091e-06	1122	220.92	1.4174e-06	1.3743e-06	281.72	79.212	62.024	18.402	1.4166e-06	25.853	171.267	121.969	110.058	27.236	190.482	183.450	27.365	35.196	198.511	174.806	34.690	41.587	41.766	48.656	177.139	48.148	-8191	255	
797.479	1	1	0	0	0.13383	0.071813	0.34514	0.12764	0.26142	0.036191	0.33517	0.2171	0.24708	0.06569	0.15924	0.19699	0.057726	0.036985	0.13807	0.14727	-0.95208	-1.1604	-0.58958	-1.4875	-0.88333	-0.64583	-1.6354	-0.71458	-1.2	-1.2146	-0.81667	-1.3729	-0.94167	-0.97292	-1.375	-0.68958	93.743	356.048	345.055	363.413	271.767	93.211	294.169	307.544	254.099	248.375	83.189	353.285	70.379	28.631	44.352	341.163	0.00014648	0.00037374	6.8715e-05	1070.5	3.3987e-06	3.0615e-06	1142.6	223.57	2.5348e-06	2.4252e-06	285.46	78.9	61.417	18.413	2.4818e-06	25.588	0.00014616	0.00012222	3.7865e-05	1040.8	1.4716e-06	1.5588e-06	1124.4	221.21	1.4663e-06	1.4517e-06	282.95	79.433	61.869	18.44	1.3291e-06	25.881	170.443	95.498	133.815	27.162	169.144	174.592	27.344	35.058	207.200	192.474	34.649	41.435	42.122	48.837	169.893	48.189	-8191	255	
797.575	1	1	0	0	0.38112	0.086098	0.085768	0.1754	0.29365	0.070511	0.29382	0.16626	0.1331	0.052267	0.1806	0.13614	0.13337	0.18098	0.21862	0.044047	-0.95208	-1.4167	-0.475	-1.5229	-0.93333	-0.86458	-1.8417	-0.975	-0.99583	-1.5292	-0.65	-1.5896	-1.0083	-0.80417	-1.5917	-0.73333	341.433	148.472	67.839	251.689	17.334	33.198	359.808	341.933	188.937	360.315	287.414	128.686	302.604	90.166	281.140	287.630	0.00016211	0.00026721	9.0208e-05	1062	2.0358e-06	4.3177e-06	1146.6	222.36	2.4215e-06	4.2968e-06	283.88	79.58	61.92	18.234	2.7532e-06	25.724	0.00015667	0.00013071	3.8221e-05	1039	1.3831e-06	1.4709e-06	1125.1	220.99	1.5694e-06	1.373e-06	282.69	79.455	61.904	18.421	1.3175e-06	25.934	171.807	81.638	109.172	27.685	171.037	176.183	27.592	34.943	182.784	174.957	34.816	41.844	42.192	48.943	168.096	48.186	-8191	255	
797.671	1	1	0	0	0.089626	0.19328	0.050229	0.21876	0.079408	0.18394	0.26047	0.25395	0.029503	0.0040249	0.22664	0.17873	0.20633	0.12108	0.13735	0.19254	-0.69375	-1.575	-0.60625	-1.3188	-1.0917	-0.62708	-1.6708	-0.58333	-1.0271	-1.375	-0.7375	-1.5063	-1.1896	-0.66458	-1.6667	-0.85208	99.788	192.836	336.569	336.333	143.333	91.707	281.668	38.806	308.251	251.553	110.354	313.392	364.187	350.221	115.202	130.825	0.00015732	0.00029003	6.2301e-05	1061.1	3.0888e-06	3.0126e-06	1145	222.71	1.5214e-06	2.6839e-06	286.31	79.106	61.827	18.27	2.57e-06	25.824	0.00016078	0.00011996	3.7981e-05	1038.3	1.4865e-06	1.426e-06	1122.8	220.89	1.5581e-06	1.3446e-06	282.35	79.409	62.076	18.374	1.3021e-06	25.991	174.640	115.637	104.723	27.177	185.923	166.991	27.375	34.703	185.929	170.320	34.457	41.297	41.842	48.918	188.392	47.678	-8191	255	
797.792	1	1	0	0	0.17345	0.37357	0.21518	0.10714	0.27802	0.18816	0.20291	0.074668	0.03663	0.098754	0.15332	0.21462	0.13017	0.25589	0.059566	0.18285	-0.41458	-1.4417	-0.525	-1.3646	-1.1292	-0.7375	-1.7833	-0.77917	-0.77292	-1.6333	-1.0063	-1.1979	-1.4458	-0.65833	-1.4208	-1.1083	375.474	53.176	27.127	140.424	335.508	350.356	284.792	230.910	267.420	176.755	334.943	23.125	73.608	77.862	144.030	35.518	0.00015277	0.00032157	9.5613e-05	1066	2.8516e-06	3.6472e-06	1143.7	223.54	2.4802e-06	2.5399e-06	284.88	79.018	61.619	18.274	2.695e-06	25.606	0.00015588	0.00011856	3.6348e-05	1039.2	1.411e-06	1.4564e-06	1123	220.73	1.5972e-06	1.2679e-06	281.61	79.275	61.906	18.435	1.269e-06	25.9	166.955	88.217	105.502	27.195	168.975	166.966	27.504	34.670	182.638	168.093	34.564	41.628	41.970	48.760	169.904	48.452	-8191	255	
797.863	1	1	0	0	0.19597	0.2836	0.10212	0.38251	0.1926	0.15944	0.41504	0.25098	0.25399	0.22109	0.11209	0.16015	0.1795	0.22245	0.13496	0.31528	-0.30625	-1.5479	-0.64375	-1.1271	-1.6583	-0.71458	-1.5312	-1.1333	-0.75208	-1.4896	-0.99792	-0.76875	-1.2542	-0.50417	-1.2708	-1.3583	282.419	297.570	366.250	174.252	28.462	181.980	295.343	140.186	286.177	93.372	277.412	163.087	144.136	22.170	349.511	193.355	0.00015958	0.00037652	5.7774e-05	1069.2	2.4332e-06	2.6916e-06	1144.9	222.88	2.0899e-06	3.4286e-06	284.55	78.721	61.902	18.284	2.4289e-06	25.61	0.00015272	0.00012172	3.5378e-05	1039.9	1.3883e-06	1.3374e-06	1122.2	220.8	1.5896e-06	1.3466e-06	281.9	79.206	61.924	18.418	1.4176e-06	25.818	175.503	114.028	109.259	27.493	158.939	175.097	27.746	35.216	192.631	171.220	34.551	41.275	41.839	48.621	183.053	48.089	-8191	255	
797.960	1	1	0	0	0.40797	0.08838	0.2628	0.18662	0.22484	0.25481	0.24175	0.24924	0.11047	0.13071	0.12867	0.08054	0.22821	0.24777	0.078132	0.0097732	-0.38958	-1.3958	-0.84375	-0.79792	-1.5021	-0.78542	-1.5167	-1.3604	-0.48125	-1.5167	-1.1021	-0.9	-1.5979	-0.65625	-1.3146	-1.3375	81.962	126.379	287.387	229.812	209.974	167.981	340.037	297.790	347.357	184.153	18.027	59.883	36.955	265.778	351.102	296.781	0.00014568	0.00024439	6.4023e-05	1060.2	1.8474e-06	2.1798e-06	1143	222.55	2.0772e-06	3.7e-06	283.37	79.108	62.227	18.31	2.0961e-06	25.709	0.00015546	0.00011537	3.208e-05	1035.1	1.3391e-06	1.3013e-06	1121.8	220.52	1.5743e-06	1.2253e-06	280.8	79.266	61.919	18.406	1.3852e-06	25.903	177.747	96.375	104.142	27.377	162.561	183.084	27.379	34.962	173.229	180.184	34.655	41.403	42.008	48.635	165.212	48.401	-8191	255	
798.080	1	1	0	0	0.21332	0.22274	0.17523	0.10238	0.15115	0.25101	0.23719	0.20148	0.18551	0.32235	0.14057	0.12186	0.044357	0.23761	0.13405	0.087773	-0.14792	-1.2729	-0.97083	-0.75625	-1.35	-0.68958	-1.3167	-1.425	-0.49792	-1.4375	-1.2375	-0.775	-1.7188	-0.87708	-1.0229	-1.4688	51.023	163.172	95.143	37.842	185.416	193.005	327.274	147.828	21.715	282.516	137.569	339.419	144.283	77.263	165.903	319.055	0.00015537	0.00037557	5.9621e-05	1068	2.3474e-06	2.5916e-06	1143.9	222.86	2.6149e-06	3.4859e-06	283.53	78.955	61.437	18.166	2.873e-06	25.681	0.00015663	0.00011338	3.1641e-05	1038.1	1.3721e-06	1.2726e-06	1122	220.35	1.6003e-06	1.1358e-06	280.8	79.157	61.691	18.352	1.4626e-06	25.869	170.236	104.729	137.284	26.779	201.649	170.010	27.685	34.898	206.616	150.905	34.235	41.545	41.903	48.636	156.836	48.098	-8191	255	
798.175	1	1	0	0	0.14276	0.26675	0.21178	0.14716	0.36516	0.13331	0.41423	0.33678	0.093037	0.21135	0.22877	0.4669	0.049084	0.17396	0.066465	0.2125	-0.42083	-1.3917	-1.1854	-0.51667	-1.4646	-0.9125	-1.1979	-1.65	-0.52292	-1.4	-1.2396	-0.71667	-1.4417	-0.78542	-1.0854	-1.4813	205.391	158.580	70.212	374.459	289.543	318.255	354.560	17.868	185.569	301.218	329.636	268.618	285.216	47.558	260.492	172.748	0.0001485	0.00024425	0.0001055	1067.9	2.3942e-06	2.3196e-06	1141.8	223.07	2.6638e-06	3.8609e-06	282.82	79.031	61.811	18.369	3.2542e-06	25.729	0.00015776	0.00010608	3.2851e-05	1037	1.2807e-06	1.2742e-06	1122.3	220.85	1.5669e-06	1.3681e-06	281.08	79.196	61.842	18.418	1.5501e-06	25.873	172.608	104.694	99.569	27.345	153.832	158.061	27.422	34.787	173.941	202.721	34.553	41.682	41.888	48.079	184.281	47.514	-8191	255	
798.271	1	1	0	0	0.13849	0.06843	0.18111	0.12195	0.050325	0.18987	0.15504	0.38369	0.35241	0.15882	0.35616	0.14804	0.049758	0.16741	0.16353	0.09331	-0.2125	-1.1187	-1.0938	-0.63958	-1.5562	-1.0646	-0.92917	-1.6625	-0.31667	-1.0938	-1.3667	-0.72083	-1.625	-0.89167	-0.83125	-1.7479	283.907	145.996	92.364	91.403	74.471	370.027	314.177	345.523	250.464	39.053	239.855	285.520	285.973	289.262	349.499	301.262	0.00013993	0.00030084	7.7352e-05	1063.6	2.7173e-06	2.0007e-06	1144	223	1.64e-06	2.9447e-06	284.69	78.752	61.984	18.233	1.2881e-06	25.716	0.00015446	0.00013149	3.5304e-05	1037.1	1.3741e-06	1.386e-06	1123.2	221.08	1.6443e-06	1.336e-06	282.22	79.219	62.007	18.395	1.4437e-06	25.901	172.082	113.316	118.179	27.403	171.783	184.177	27.415	34.640	200.938	171.344	34.113	41.562	41.577	48.488	220.302	48.235	-8191	255	
798.391	1	1	0	0	0.23775	0.10303	0.29211	0.17992	0.094817	0.12942	0.27046	0.22891	0.34719	0.34004	0.14501	0.058681	0.23502	0.17539	0.090405	0.11558	-0.6	-1.1083	-1.4083	-0.66667	-1.5021	-0.90208	-1	-1.6	-0.65	-1.1021	-1.3333	-0.625	-1.3604	-1.0042	-0.68333	-1.5063	229.103	346.357	229.642	343.330	171.182	260.205	68.505	341.818	288.640	243.498	94.599	319.540	22.913	69.044	55.294	297.137	0.0001633	0.00027834	9.5382e-05	1063	1.7989e-06	3.2323e-06	1142.9	222.21	2.1466e-06	3.5322e-06	284.3	78.516	61.988	18.288	3.2412e-06	25.789	0.0001635	0.00012976	3.4707e-05	1038.6	1.3812e-06	1.378e-06	1123.8	221.04	1.5263e-06	1.4447e-06	282.06	79.111	61.894	18.382	1.5375e-06	25.886	171.359	121.053	128.950	27.266	188.942	164.786	27.211	35.007	211.633	191.247	34.302	41.207	42.062	48.512	170.896	48.695	-8191	255	
798.463	1	1	0	0	0.099645	0.34724	0.24941	0.15665	0.10036	0.25247	0.3907	0.072579	0.20252	0.098459	0.10058	0.0436	0.24111	0.31894	0.17936	0.11148	-0.45208	-0.95208	-1.4083	-0.62708	-1.3979	-1.2417	-0.75833	-1.4625	-0.98333	-0.98542	-1.6229	-0.64792	-1.2188	-1.2292	-0.59167	-1.4458	296.670	366.756	309.848	277.080	204.403	123.250	336.001	30.420	86.086	253.992	368.104	272.229	42.771	99.374	207.046	343.551	0.00014674	0.00019898	6.9224e-05	1059.4	2.4287e-06	2.0378e-06	1144.6	222.65	2.0181e-06	2.6099e-06	285.88	79.09	62.064	18.238	2.9053e-06	25.599	0.00015445	0.00013104	3.358e-05	1037.7	1.4327e-06	1.3727e-06	1124.2	221.04	1.7226e-06	1.5958e-06	282.59	79.414	62.125	18.435	1.6474e-06	25.896	177.797	88.163	117.140	26.805	169.966	159.617	27.360	34.678	217.562	171.034	34.373	41.283	41.805	48.202	182.978	47.730	-8191	255	
798.559	1	1	0	0	0.11632	0.098414	0.19932	0.11918	0.23991	0.2414	0.076757	0.068658	0.084063	0.15721	0.24797	0.057678	0.067701	0.11999	0.22373	0.33332	-0.56458	-0.82917	-1.6521	-0.50208	-1.3167	-1.125	-0.71042	-1.5167	-0.98542	-0.49375	-1.4937	-0.725	-1.2437	-1.3833	-0.50833	-1.4917	211.253	274.296	286.117	312.895	286.071	362.588	355.714	63.661	126.489	23.712	361.710	350.131	153.849	159.320	71.275	158.781	0.00015735	0.0002412	9.4248e-05	1065.3	2.4527e-06	2.2002e-06	1141.1	223.79	2.3383e-06	2.2383e-06	286.96	78.926	62.085	18.244	2.3189e-06	25.795	0.00016804	0.00015177	3.7633e-05	1040.4	1.6744e-06	1.5807e-06	1123.1	221.63	1.6088e-06	1.5624e-06	282.83	79.358	62.082	18.402	1.6524e-06	26.009	170.386	110.121	128.024	27.153	174.126	191.529	27.399	34.802	188.674	148.735	34.412	41.093	41.694	48.318	182.238	47.539	-8191	255	
798.680	1	1	0	0	0.091533	0.076323	0.027839	0.093679	0.22767	0.19986	0.29238	0.18121	0.13953	0.16126	0.19261	0.3818	0.25852	0.063795	0.21999	0.46598	-0.62708	-0.60625	-1.4062	-0.80208	-0.98125	-1.3646	-0.61875	-1.4354	-1.2229	-0.61875	-1.6208	-0.72708	-0.9125	-1.6104	-0.79375	-1.2833	143.937	327.600	52.037	174.144	96.310	96.113	262.081	185.043	336.098	150.864	268.102	77.788	79.269	292.249	304.983	49.142	0.00014722	0.00027343	7.3192e-05	1049.5	1.9964e-06	2.1148e-06	1141.8	222.87	1.9618e-06	2.3097e-06	285.09	78.994	61.757	18.253	2.4299e-06	25.573	0.00015913	0.00014695	3.513e-05	1036.2	1.5743e-06	1.4326e-06	1122.7	221.18	1.64e-06	1.4903e-06	281.8	79.325	61.889	18.386	1.5438e-06	25.925	177.264	125.047	122.406	26.980	164.847	138.986	27.407	34.854	204.154	170.767	34.340	41.190	41.670	48.465	177.381	47.750	-8191	255	
798.776	1	1	0	0	0.17027	0.19027	0.15103	0.2595	0.23874	0.15977	0.26725	0.13423	0.26903	0.069783	0.25637	0.18682	0.21653	0.031163	0.32098	0.1937	-0.92083	-0.57083	-1.6104	-0.90833	-0.81042	-1.6688	-0.73958	-1.175	-1.2854	-0.57292	-1.4062	-0.95833	-0.84167	-1.6292	-0.57083	-1.1125	291.058	96.091	298.068	304.697	292.976	49.044	269.271	287.812	141.483	342.857	298.073	275.959	284.179	211.905	110.777	358.741	0.00015517	0.00033691	6.4195e-05	1066.9	2.3586e-06	1.057e-06	1142.2	222.98	1.4517e-06	2.625e-06	284.55	79.346	61.766	18.168	2.6422e-06	25.579	0.00016319	0.00014981	3.5494e-05	1041.3	1.6148e-06	1.3774e-06	1123.3	221.38	1.5908e-06	1.6655e-06	282.19	79.411	61.867	18.355	1.5627e-06	25.865	175.208	92.894	123.621	26.829	188.899	177.414	27.218	34.541	224.434	187.634	34.623	41.450	41.960	48.693	187.792	48.167	-8191	255	
798.872	1	1	0	0	0.1601	0.11408	0.18219	0.34706	0.083838	0.13208	0.23149	0.27327	0.13322	0.3764	0.16059	0.071923	0.064804	0.20049	0.074885	0.019179	-0.84167	-0.31875	-1.3354	-0.9	-0.75208	-1.7354	-0.96667	-1.1521	-1.5	-0.66667	-1.6292	-0.93125	-0.87292	-1.5688	-0.61458	-0.9875	97.589	272.298	326.892	375.989	248.310	108.119	235.818	288.297	243.598	214.776	151.897	174.218	360.101	159.706	294.595	118.702	0.00016795	0.00038458	8.6408e-05	1060.2	2.2936e-06	2.3421e-06	1145.2	223.28	1.9191e-06	3.0798e-06	286.13	78.659	61.643	18.307	2.2344e-06	25.739	0.00016576	0.00014629	3.5254e-05	1036.3	1.6031e-06	1.4048e-06	1122.2	221.15	1.5691e-06	1.5852e-06	282.67	78.987	61.923	18.387	1.4692e-06	25.84	168.483	117.568	123.243	26.842	171.799	190.377	27.293	34.810	184.343	154.208	34.441	41.339	41.620	48.658	184.018	47.819	-8191	255	
798.968	1	1	0	0	0.4608	0.13142	0.10711	0.16727	0.2791	0.24657	0.37579	0.31131	0.23222	0.061865	0.091876	0.2035	0.20156	0.099389	0.13297	0.10462	-0.99375	-0.66875	-1.25	-1.1375	-0.71875	-1.4792	-0.8125	-1.1688	-1.4583	-0.74583	-1.3042	-1.2458	-0.80625	-1.4521	-0.97083	-0.97708	21.244	17.731	139.042	268.275	127.840	25.992	306.660	283.887	155.251	245.117	335.967	177.200	319.997	255.999	76.744	343.606	0.00015304	0.00021403	9.1337e-05	1060.6	2.0966e-06	2.803e-06	1142.4	223.1	2.9736e-06	2.768e-06	285.68	78.706	61.89	18.28	3.9227e-06	25.653	0.00015598	0.0001367	3.4334e-05	1036.4	1.5652e-06	1.3298e-06	1123	221.09	1.5327e-06	1.5554e-06	282.53	79.127	61.937	18.43	1.6335e-06	25.933	170.634	123.616	109.687	26.642	154.097	153.683	27.248	34.689	180.415	167.921	34.420	41.396	41.948	48.573	172.613	48.120	-8191	255	
799.087	1	1	0	0	0.19528	0.10031	0.32881	0.19105	0.045055	0.20176	0.18601	0.46671	0.27377	0.19693	0.22011	0.14595	0.043303	0.19233	0.23328	0.042318	-1.0938	-0.67708	-1.1187	-1.2375	-0.7	-1.5375	-1.1187	-0.6625	-1.5854	-0.76042	-1.2104	-1.2812	-0.59375	-1.35	-1.0063	-0.80417	370.441	193.490	372.695	157.728	125.226	171.410	65.563	105.484	156.000	199.083	331.517	369.350	280.105	236.126	84.726	241.136	0.00015291	0.00025805	7.5189e-05	1062.3	2.2831e-06	2.7789e-06	1147.6	223.02	3.3505e-06	2.2367e-06	286.46	78.604	62.037	18.328	3.2976e-06	25.692	0.0001602	0.00014599	4.0641e-05	1041.1	1.6439e-06	1.4749e-06	1125	221.11	1.6217e-06	1.4632e-06	282.23	79.305	62.108	18.398	1.5262e-06	25.861	175.900	124.086	124.879	27.106	174.592	162.565	27.336	34.939	202.899	182.040	34.582	41.273	41.722	48.790	171.815	48.162	-8191	255	
799.159	1	1	0	0	0.096293	0.12907	0.19736	0.31787	0.35146	0.23585	0.038565	0.15457	0.06459	0.075225	0.27055	0.059692	0.094774	0.20143	0.31835	0.38399	-1.4188	-0.52917	-0.9875	-1.3375	-0.49583	-1.25	-1.1604	-0.70208	-1.5688	-0.72708	-0.98125	-1.4854	-0.47083	-1.5375	-1.0604	-0.76042	154.236	121.874	316.722	249.319	318.721	102.975	76.843	159.669	320.731	64.019	316.896	120.616	122.681	282.818	319.026	323.422	0.00015566	0.00040238	0.00010193	1065.2	2.1306e-06	3.5827e-06	1148.3	222.93	2.6647e-06	3.2076e-06	285.66	78.995	61.508	18.255	2.1256e-06	25.712	0.00015485	0.00013741	3.5088e-05	1037.4	1.5782e-06	1.3526e-06	1123.1	221.23	1.4483e-06	1.3879e-06	282.13	79.246	61.797	18.417	1.405e-06	25.849	167.790	96.682	100.582	27.234	174.031	173.552	27.502	34.940	191.465	168.879	34.149	41.099	41.856	48.436	160.525	48.398	-8191	255	
799.255	1	1	0	0	0.20341	0.11605	0.19661	0.11542	0.20883	0.074142	0.39618	0.18276	0.066651	0.15367	0.14935	0.11511	0.12799	0.172	0.043093	0.16436	-1.2229	-0.86458	-0.82292	-1.5229	-0.53958	-1.1354	-1.4688	-0.625	-1.6229	-1.0521	-0.88333	-1.6583	-0.54167	-1.3917	-1.2833	-0.40625	27.732	328.677	80.552	302.828	54.686	292.586	17.822	21.402	138.684	370.549	315.107	47.390	50.516	244.029	133.898	168.530	0.00014918	0.00024132	0.00011153	1068.5	3.1347e-06	2.4146e-06	1141	223.11	1.6845e-06	3.4613e-06	283.56	78.789	61.714	18.276	2.0707e-06	25.63	0.0001551	0.00012651	3.774e-05	1038.1	1.559e-06	1.3727e-06	1123	220.94	1.4517e-06	1.4213e-06	282.43	78.996	61.632	18.355	1.45e-06	25.793	166.346	110.160	129.627	26.886	139.896	160.926	27.399	34.787	207.609	167.541	34.544	41.489	42.235	48.845	177.855	47.814	-8191	255	
799.351	1	1	0	0	0.33631	0.077376	0.22141	0.37858	0.17889	0.23609	0.10605	0.12308	0.12506	0.387	0.21996	0.15675	0.15185	0.064291	0.15243	0.15061	-1.1833	-0.85833	-0.93333	-1.5063	-0.7125	-1.2729	-1.4312	-0.77708	-1.2917	-0.9625	-0.85	-1.65	-0.85625	-1.1021	-1.5375	-0.6875	166.170	98.234	321.125	357.977	358.181	199.417	188.673	314.459	81.521	173.656	218.563	323.649	316.411	54.127	345.221	147.228	0.00016281	0.00032131	0.00010275	1070.8	2.5769e-06	2.1112e-06	1141.7	222.76	1.8345e-06	3.7846e-06	284.07	78.903	62.031	18.256	2.4459e-06	25.624	0.00015479	0.0001339	3.9033e-05	1040.1	1.4771e-06	1.3374e-06	1120.4	220.62	1.5813e-06	1.4014e-06	281.94	79.196	61.881	18.399	1.315e-06	25.83	172.375	110.462	126.453	26.816	193.532	159.726	27.500	35.124	182.741	165.332	34.653	41.526	42.014	48.380	152.718	48.068	-8191	255	
799.472	1	1	0	0	0.081246	0.33929	0.20519	0.13769	0.18766	0.01453	0.18793	0.13717	0.058439	0.28311	0.19845	0.22497	0.13731	0.18135	0.24977	0.19813	-0.95	-1.0312	-0.66875	-1.65	-0.6625	-1.0729	-1.5958	-0.77083	-1.5042	-1.2021	-0.72708	-1.6208	-0.89583	-1.0833	-1.6167	-0.51875	352.185	219.287	268.598	229.137	89.176	155.251	231.066	164.808	342.478	138.931	27.342	80.358	150.608	271.963	289.678	274.525	0.00016102	0.00028613	8.3557e-05	1069.1	1.7212e-06	1.5243e-06	1139.8	221.17	2.7337e-06	3.4375e-06	283.66	78.417	61.346	18.293	2.6143e-06	25.739	0.00015136	0.00012916	3.6845e-05	1036.2	1.514e-06	1.4359e-06	1118.7	220.16	1.4908e-06	1.4186e-06	281.4	79.029	61.783	18.34	1.2857e-06	25.822	171.519	85.275	143.199	27.127	166.154	144.147	27.261	35.042	172.514	179.584	34.695	41.746	42.046	49.151	182.995	48.026	-8191	255	
799.568	1	1	0	0	0.25381	0.28025	0.073638	0.14248	0.078293	0.089961	0.28251	0.40589	0.1291	0.28283	0.43838	0.24475	0.077428	0.022592	0.16643	0.14591	-1.0208	-1.2188	-0.6375	-1.5521	-0.7625	-0.79792	-1.6708	-0.63125	-1.1125	-1.4375	-0.51875	-1.6167	-1.0063	-0.55625	-1.5583	-0.62917	86.121	42.571	177.475	315.593	26.568	253.624	60.944	323.198	236.948	146.378	347.921	92.084	190.422	363.300	355.507	91.230	0.00015683	0.0003035	0.00010197	1063.3	2.5915e-06	3.7314e-06	1143.7	222.25	2.2868e-06	3.207e-06	284.03	79.244	61.619	18.166	2.1809e-06	25.923	0.0001475	0.00012621	3.8884e-05	1037.3	1.4748e-06	1.5007e-06	1119.8	220.44	1.5244e-06	1.4447e-06	281.84	79.187	61.746	18.329	1.3433e-06	25.92	173.708	103.624	119.462	27.401	186.247	171.021	27.433	35.206	199.943	169.372	34.624	41.471	41.553	48.699	172.326	48.127	-8191	255	
799.664	1	1	0	0	0.26173	0.22592	0.26267	0.081076	0.34788	0.17211	0.24938	0.16382	0.18788	0.28852	0.38929	0.15256	0.51662	0.018837	0.060283	0.30089	-0.72292	-1.2979	-0.59375	-1.3687	-0.8125	-0.59375	-1.6729	-0.6375	-1.1938	-1.4292	-0.69375	-1.4292	-1.0896	-0.63542	-1.6313	-0.78542	235.699	241.080	229.794	151.471	252.310	353.231	328.499	33.541	174.375	341.594	373.095	324.434	40.057	157.207	188.831	31.519	0.00014812	0.00030212	9.0948e-05	1068.4	2.5224e-06	3.8338e-06	1139.9	222.11	2.5292e-06	3.5247e-06	286.29	78.879	61.336	18.287	3.0757e-06	25.551	0.00014792	0.00012645	3.7889e-05	1037.5	1.4395e-06	1.5119e-06	1117.5	220.3	1.5464e-06	1.2957e-06	281.86	79.115	61.618	18.333	1.337e-06	25.805	175.903	98.262	124.447	26.982	181.350	198.161	27.443	35.080	195.863	153.837	34.605	41.363	42.076	48.589	172.966	48.258	-8191	255	
799.760	1	1	0	0	0.32495	0.11579	0.21134	0.19264	0.31929	0.1501	0.028743	0.029305	0.11762	0.1227	0.041485	0.27426	0.24725	0.092873	0.22334	0.062463	-0.70417	-1.2437	-0.52292	-1.3854	-1.1146	-0.57708	-1.7042	-0.8125	-0.94167	-1.2854	-0.75625	-1.5083	-1.2396	-0.57708	-1.3396	-0.77917	277.583	48.013	236.740	111.112	169.421	111.528	340.260	312.357	291.809	111.158	146.602	242.657	70.269	358.281	87.949	252.998	0.00015555	0.00026403	6.3096e-05	1058.6	2.7147e-06	3.5521e-06	1138.1	221.72	2.2258e-06	3.7935e-06	283.75	78.317	61.209	18.179	2.0775e-06	25.639	0.00015728	0.00011603	3.6771e-05	1033.1	1.3199e-06	1.3803e-06	1118.2	219.9	1.5079e-06	1.3013e-06	281.37	78.844	61.514	18.282	1.2394e-06	25.724	174.343	108.436	108.427	27.194	171.985	178.366	27.338	35.136	194.946	159.811	34.869	41.546	41.863	49.112	195.121	48.509	-8191	255	
799.856	1	1	0	0	0.24604	0.1511	0.18742	0.061978	0.33367	0.19732	0.18686	0.20196	0.15624	0.20855	0.11021	0.25337	0.17675	0.21201	0.099047	0.19423	-0.45417	-1.4479	-0.5125	-1.3396	-1.2896	-0.66042	-1.6229	-1.1292	-0.76875	-1.4875	-0.50208	-1	-1.4375	-0.75	-1.4542	-1.0104	69.426	45.073	25.103	144.880	80.543	319.258	39.994	345.240	269.387	91.050	114.065	364.362	276.949	148.392	213.886	18.163	0.0001452	0.00021228	7.5232e-05	1053.8	2.058e-06	2.9447e-06	1136	221.93	1.749e-06	1.6721e-06	283.95	78.28	61.26	18.197	3.2587e-06	25.539	0.00015278	0.00012353	3.2942e-05	1033.3	1.3951e-06	1.4088e-06	1115.6	220.19	1.5278e-06	1.2379e-06	281.21	78.854	61.476	18.26	1.3968e-06	25.732	178.986	99.708	106.862	27.515	163.497	153.301	27.526	34.736	193.274	179.478	34.595	41.569	42.379	48.697	184.074	47.957	-8191	255	
799.952	1	1	0	0	0.11506	0.18194	0.23578	0.26247	0.34441	0.12554	0.28954	0.050271	0.20716	0.14853	0.14681	0.23036	0.23544	0.28595	0.16815	0.19803	-0.30833	-1.6375	-0.6125	-1.1083	-1.4021	-0.59375	-1.5375	-1.2042	-0.57708	-1.6187	-0.92292	-1.1104	-1.4917	-0.77917	-1.3979	-1.1437	206.362	321.716	282.894	261.039	178.486	47.536	323.303	173.262	152.033	309.104	51.043	346.801	105.367	312.427	241.085	72.049	0.00014437	0.00031599	9.1613e-05	1049.5	2.4392e-06	2.3613e-06	1138.7	221.13	2.8359e-06	4.1067e-06	283.57	78.97	61.12	18.23	3.0017e-06	25.608	0.00015193	0.00011552	3.3307e-05	1030.5	1.3073e-06	1.339e-06	1117.3	219.87	1.5468e-06	1.2613e-06	280.77	79.007	61.456	18.317	1.3304e-06	25.758	173.878	116.716	142.351	27.132	213.950	194.773	27.347	34.982	193.288	170.334	34.603	41.843	41.889	48.953	192.765	48.123	-8191	255	
800.073	1	1	0	0	0.138	0.13958	0.075191	0.13317	0.07929	0.19709	0.34563	0.072619	0.020755	0.10966	0.24144	0.29871	0.1329	0.15573	0.1683	0.20255	-0.34583	-1.5354	-0.73542	-0.86458	-1.6667	-0.74792	-1.4813	-1.3833	-0.5625	-1.4583	-1.0312	-0.92708	-1.5771	-0.775	-1.0729	-1.2188	22.446	322.127	213.374	110.731	51.216	105.889	282.682	185.571	288.864	304.056	344.683	85.153	141.494	296.401	27.751	263.538	0.00015977	0.00028518	0.00012567	1063.5	2.7531e-06	3.1968e-06	1139	220.87	2.5746e-06	2.521e-06	284.81	78.705	61.601	18.237	2.0378e-06	25.626	0.00016093	0.000116	3.4483e-05	1034.5	1.2376e-06	1.3605e-06	1116.7	219.57	1.5443e-06	1.2184e-06	280.86	78.68	61.677	18.298	1.2495e-06	25.734	171.277	121.355	120.111	27.554	186.212	169.230	27.691	34.905	176.493	173.045	34.616	41.752	42.191	48.798	184.433	48.002	-8191	255	
800.169	1	1	0	0	0.026048	0.27358	0.15038	0.20545	0.12585	0.33001	0.16898	0.19353	0.24876	0.029788	0.05836	0.16143	0.35167	0.073336	0.28026	0.4138	-0.14792	-1.4896	-0.88542	-0.79375	-1.5438	-0.73542	-1.4521	-1.2146	-0.69583	-1.625	-1.0125	-0.78958	-1.5458	-0.84167	-0.88542	-1.4521	105.607	267.031	185.052	27.911	162.743	175.088	305.567	349.240	57.070	77.965	266.612	33.057	285.078	51.548	26.471	372.595	0.00015802	0.00028467	9.7675e-05	1064.9	2.5193e-06	2.4439e-06	1138	221.27	2.1969e-06	3.2563e-06	283.47	78.21	61.278	18.176	2.9318e-06	25.643	0.000157	0.00011719	3.4036e-05	1038.2	1.2639e-06	1.3033e-06	1116.2	219.6	1.5425e-06	1.1781e-06	280.51	78.861	61.58	18.254	1.3666e-06	25.798	172.763	99.015	119.841	26.893	181.872	162.547	27.509	35.137	213.062	160.587	34.599	41.542	42.310	48.942	184.495	48.423	-8191	255	
800.264	1	1	0	0	0.040944	0.2519	0.1258	0.13782	0.035744	0.059094	0.11746	0.086344	0.03224	0.093628	0.35968	0.18545	0.2207	0.32271	0.24635	0.22317	-0.14375	-1.4083	-1.0646	-0.64375	-1.5125	-0.77708	-1.1125	-1.5521	-0.57917	-1.2708	-1.2167	-0.73125	-1.4271	-0.92708	-1.0333	-1.4229	24.084	153.151	24.524	26.797	373.480	315.262	191.504	281.300	27.509	366.233	243.438	274.617	349.164	28.069	31.208	41.518	0.00014828	0.00022593	0.00010318	1059.2	1.9886e-06	2.1054e-06	1141.6	221.33	2.6585e-06	2.6361e-06	283.42	78.349	61.264	18.355	2.8486e-06	25.557	0.00016359	0.00011659	3.6373e-05	1034.1	1.3352e-06	1.3162e-06	1117.2	219.56	1.5887e-06	1.3525e-06	280.62	78.866	61.535	18.308	1.4292e-06	25.754	169.212	86.403	115.791	27.337	187.759	155.171	27.539	35.063	199.132	165.185	34.708	41.621	42.363	48.853	181.595	48.374	-8191	255	
800.360	1	1	0	0	0.18188	0.10968	0.22086	0.33212	0.36513	0.26589	0.043068	0.22357	0.046658	0.1571	0.086873	0.063628	0.14788	0.35057	0.13438	0.18457	-0.28958	-1.4125	-1.4042	-0.66458	-1.5667	-0.84375	-0.97292	-1.7125	-0.65417	-1.1313	-1.4937	-0.65833	-1.375	-0.94583	-0.55	-1.5458	90.695	301.965	271.706	217.579	236.381	96.187	181.625	303.215	185.564	322.207	253.550	357.572	334.752	350.234	76.633	267.724	0.00015426	0.00027239	0.00010019	1052.5	2.7071e-06	2.5165e-06	1136.6	223.05	1.6772e-06	3.3123e-06	283.98	77.974	61.4	18.135	2.7586e-06	25.482	0.00015717	0.00011728	3.3224e-05	1030.4	1.4194e-06	1.3483e-06	1115.8	220.04	1.5009e-06	1.3806e-06	280.92	78.833	61.637	18.258	1.4519e-06	25.716	173.361	124.118	101.999	27.418	172.768	185.664	27.641	35.081	198.782	173.596	34.595	41.844	41.767	48.958	186.123	48.248	-8191	255	
800.456	1	1	0	0	0.083445	0.19906	0.064702	0.43961	0.23393	0.063651	0.068012	0.075904	0.16628	0.18284	0.061919	0.042631	0.2295	0.22279	0.044059	0.12085	-0.33125	-0.96042	-1.3604	-0.53333	-1.2792	-0.96875	-0.84792	-1.5292	-0.79375	-0.95417	-1.4583	-0.51875	-1.3542	-1.1396	-0.7125	-1.5625	93.847	259.447	364.018	249.183	160.919	368.387	339.037	186.461	95.157	320.299	242.812	214.250	322.418	39.587	251.420	318.520	0.00015438	0.00031032	9.0666e-05	1063.9	2.3781e-06	2.0954e-06	1137.9	221.39	2.1695e-06	3.4488e-06	283.17	78.71	61.34	18.101	3.4689e-06	25.4	0.00015462	0.00012392	3.3207e-05	1030	1.3118e-06	1.2855e-06	1116.3	219.76	1.5088e-06	1.3658e-06	280.23	78.985	61.502	18.244	1.4714e-06	25.691	177.760	121.679	115.342	26.736	163.019	172.075	27.918	34.953	201.263	167.494	34.752	41.828	42.141	48.894	181.205	48.482	-8191	255	
#DATA ENDS
