BOXY.EXE: ISS Imagent and Oximeter Data Acquisition Program Version 0.80
Ascii Record File

#ACQ INFORMATION
2  Detector Channels 
16  External MUX Channels 
1  Auxiliary Channels 
5000  Waveform (CCF) Frequency (Hz)
1  Waveforms Skipped 
30  Waveforms Averaged 
1  Cycles Averaged 
16  Acquisitions per Waveform 
10.0806  Updata Rate (Hz) 

#FILE INFORMATION
TRUE -- External MUX Channel results are PARSED.
FALSE -- AC DC and Phase are NOT grouped.
TRUE -- Companion Program Settings File CREATED.
FALSE -- AC data not excluded
FALSE -- DC data not excluded
FALSE -- Phase data not excluded
FALSE -- Auxillary Chn. data not excluded
Tab delimiters

#CALIBRATION STATE
TRUE -- Waveform Calibration Values APPLIED.


#AUX CALIBRATION VALUES
Val Type	aux-1	

Term	1.0000e+00	
Factor	0.0000e+00	


#WF CALIBRATION VALUES
A = Detector Channel
Val Type	A-AC1	A-AC2	A-AC3	A-AC4	A-AC5	A-AC6	A-AC7	A-AC8	A-AC9	A-AC10	A-AC11	A-AC12	A-AC13	A-AC14	A-AC15	A-AC16	A-DC1	A-DC2	A-DC3	A-DC4	A-DC5	A-DC6	A-DC7	A-DC8	A-DC9	A-DC10	A-DC11	A-DC12	A-DC13	A-DC14	A-DC15	A-DC16	A-Ph1	A-Ph2	A-Ph3	A-Ph4	A-Ph5	A-Ph6	A-Ph7	A-Ph8	A-Ph9	A-Ph10	A-Ph11	A-Ph12	A-Ph13	A-Ph14	A-Ph15	A-Ph16	

Term	0.00000e+00	0.00000e+00	0.00000e+00	0.00000e+00	0.00000e+00	0.00000e+00	0.00000e+00	0.00000e+00	0.00000e+00	0.00000e+00	0.00000e+00	0.00000e+00	0.00000e+00	0.00000e+00	0.00000e+00	0.00000e+00	0.00000e+00	0.00000e+00	0.00000e+00	0.00000e+00	0.00000e+00	0.00000e+00	0.00000e+00	0.00000e+00	0.00000e+00	0.00000e+00	0.00000e+00	0.00000e+00	0.00000e+00	0.00000e+00	0.00000e+00	0.00000e+00	0.00000e+00	0.00000e+00	0.00000e+00	0.00000e+00	0.00000e+00	0.00000e+00	0.00000e+00	0.00000e+00	0.00000e+00	0.00000e+00	0.00000e+00	0.00000e+00	0.00000e+00	0.00000e+00	0.00000e+00	0.00000e+00	
Factor	1.00000e+00	1.00000e+00	1.00000e+00	1.00000e+00	1.00000e+00	1.00000e+00	1.00000e+00	1.00000e+00	1.00000e+00	1.00000e+00	1.00000e+00	1.00000e+00	1.00000e+00	1.00000e+00	1.00000e+00	1.00000e+00	1.00000e+00	1.00000e+00	1.00000e+00	1.00000e+00	1.00000e+00	1.00000e+00	1.00000e+00	1.00000e+00	1.00000e+00	1.00000e+00	1.00000e+00	1.00000e+00	1.00000e+00	1.00000e+00	1.00000e+00	1.00000e+00	X	X	X	X	X	X	X	X	X	X	X	X	X	X	X	X	

B = Detector Channel
Val Type	B-AC1	B-AC2	B-AC3	B-AC4	B-AC5	B-AC6	B-AC7	B-AC8	B-AC9	B-AC10	B-AC11	B-AC12	B-AC13	B-AC14	B-AC15	B-AC16	B-DC1	B-DC2	B-DC3	B-DC4	B-DC5	B-DC6	B-DC7	B-DC8	B-DC9	B-DC10	B-DC11	B-DC12	B-DC13	B-DC14	B-DC15	B-DC16	B-Ph1	B-Ph2	B-Ph3	B-Ph4	B-Ph5	B-Ph6	B-Ph7	B-Ph8	B-Ph9	B-Ph10	B-Ph11	B-Ph12	B-Ph13	B-Ph14	B-Ph15	B-Ph16	

Term	0.00000e+00	0.00000e+00	0.00000e+00	0.00000e+00	0.00000e+00	0.00000e+00	0.00000e+00	0.00000e+00	0.00000e+00	0.00000e+00	0.00000e+00	0.00000e+00	0.00000e+00	0.00000e+00	0.00000e+00	0.00000e+00	0.00000e+00	0.00000e+00	0.00000e+00	0.00000e+00	0.00000e+00	0.00000e+00	0.00000e+00	0.00000e+00	0.00000e+00	0.00000e+00	0.00000e+00	0.00000e+00	0.00000e+00	0.00000e+00	0.00000e+00	0.00000e+00	-2.23846e+00	-1.31119e+02	-1.35896e+02	-1.81478e+02	-5.32445e+01	-6.29258e+01	-1.58115e+02	-1.62015e+02	-5.21912e+01	-6.51356e+01	-1.73607e+02	-1.71776e+02	-1.83012e+02	-1.76573e+02	-5.74558e+01	-1.49837e+02	
Factor	3.30459e-05	1.49444e-04	4.39707e-05	1.58432e-01	1.72561e-06	1.36174e-06	1.67435e-01	4.77828e-02	1.66550e-06	1.80684e-06	9.40725e-02	2.82132e-02	5.96618e-02	8.24392e-03	1.74084e-06	1.21984e-02	3.04457e-06	3.32303e-06	9.25805e-07	8.43004e-02	3.58660e-08	3.66680e-08	8.32303e-02	2.54810e-02	3.58404e-08	3.65924e-08	4.79435e-02	1.44760e-02	3.08274e-02	4.42958e-03	3.60998e-08	6.29450e-03	X	X	X	X	X	X	X	X	X	X	X	X	X	X	X	X	



#DISTANCE SETTINGS
A = Detector Channel
A-1	A-2	A-3	A-4	A-5	A-6	A-7	A-8	A-9	A-10	A-11	A-12	A-13	A-14	A-15	A-16	

2.5000e+00	3.0000e+00	2.5000e+00	3.0000e+00	2.0000e+00	3.0000e+00	1.5000e+00	3.0000e+00	3.0000e+00	3.0000e+00	3.0000e+00	3.0000e+00	3.0000e+00	3.0000e+00	1.5000e+00	3.0000e+00	

B = Detector Channel
B-1	B-2	B-3	B-4	B-5	B-6	B-7	B-8	B-9	B-10	B-11	B-12	B-13	B-14	B-15	B-16	

1.0000e+01	1.0000e+01	1.0000e+01	1.4400e+00	1.0000e+01	1.0000e+01	1.5100e+00	1.9400e+00	1.0000e+01	1.0000e+01	1.9900e+00	2.4900e+00	2.4100e+00	2.9000e+00	1.0000e+01	2.9800e+00	




#DATA BEGINS
time	group	step	mark	flag	A-AC1	A-AC2	A-AC3	A-AC4	A-AC5	A-AC6	A-AC7	A-AC8	A-AC9	A-AC10	A-AC11	A-AC12	A-AC13	A-AC14	A-AC15	A-AC16	A-DC1	A-DC2	A-DC3	A-DC4	A-DC5	A-DC6	A-DC7	A-DC8	A-DC9	A-DC10	A-DC11	A-DC12	A-DC13	A-DC14	A-DC15	A-DC16	A-Ph1	A-Ph2	A-Ph3	A-Ph4	A-Ph5	A-Ph6	A-Ph7	A-Ph8	A-Ph9	A-Ph10	A-Ph11	A-Ph12	A-Ph13	A-Ph14	A-Ph15	A-Ph16	B-AC1	B-AC2	B-AC3	B-AC4	B-AC5	B-AC6	B-AC7	B-AC8	B-AC9	B-AC10	B-AC11	B-AC12	B-AC13	B-AC14	B-AC15	B-AC16	B-DC1	B-DC2	B-DC3	B-DC4	B-DC5	B-DC6	B-DC7	B-DC8	B-DC9	B-DC10	B-DC11	B-DC12	B-DC13	B-DC14	B-DC15	B-DC16	B-Ph1	B-Ph2	B-Ph3	B-Ph4	B-Ph5	B-Ph6	B-Ph7	B-Ph8	B-Ph9	B-Ph10	B-Ph11	B-Ph12	B-Ph13	B-Ph14	B-Ph15	B-Ph16	aux-1	digaux	

1615.072	1	1	0	768	0.092554	0.093602	0.067483	0.25988	0.088833	0.12987	0.23228	0.32128	0.20138	0.26372	0.12727	0.29489	0.088093	0.30249	0.10587	0.11699	-1.4562	-2.8479	-2.3521	-1.9854	-2.6833	-2.0375	-2.3958	-2.6813	-1.8708	-2.6937	-2.7208	-1.8542	-2.8417	-2.2938	-2.05	-2.8583	290.283	449.731	479.531	467.043	375.295	320.490	414.727	478.492	291.448	308.252	478.991	482.437	175.181	488.208	295.304	403.018	0.0018022	0.0019251	0.0001132	1234.6	3.2357e-05	1.7091e-05	1265.8	447.72	2.3895e-05	2.2504e-05	495	189.37	169.84	81.988	2.0842e-05	92.228	0.0045911	0.0049411	0.0013841	1285	5.3471e-05	5.5231e-05	1307.5	459.88	5.4485e-05	5.6017e-05	531.73	197.97	198.83	84.141	5.2477e-05	95.636	310.493	227.866	347.620	149.423	326.650	220.912	147.923	154.649	257.453	299.636	152.529	156.943	160.206	164.515	260.709	160.329	-8191	255	
1615.168	1	1	0	0	0.13942	0.058399	0.17481	0.051556	0.092268	0.06478	0.21249	0.16821	0.17398	0.27418	0.2289	0.31964	0.24713	0.079843	0.19608	0.21763	-1.6979	-2.3604	-2.4875	-1.9458	-2.7354	-2.3688	-2.3479	-3.0771	-2.0042	-2.4625	-2.7687	-1.95	-2.675	-2.4875	-1.8729	-2.8271	478.252	434.995	477.667	441.478	184.353	323.841	358.531	140.879	224.731	306.623	438.182	467.500	449.998	362.808	391.684	437.775	0.0019218	0.0012597	6.8713e-05	1238.3	2.305e-05	1.3938e-05	1267.1	449.97	1.4291e-05	1.1575e-05	496.24	190.13	170.34	82.364	1.2477e-05	92.785	0.0044344	0.0046872	0.0013017	1275.7	4.9655e-05	5.0942e-05	1299.5	458.92	5.0323e-05	5.1657e-05	530.79	197.72	197.03	84.268	5.0852e-05	95.676	314.612	319.307	256.961	149.453	285.924	318.424	147.884	155.040	297.670	276.553	152.628	156.829	160.195	164.542	237.739	160.523	-8191	255	
1615.265	1	1	0	0	0.33738	0.086515	0.18328	0.39118	0.17791	0.26969	0.10361	0.11442	0.13418	0.18939	0.099442	0.39601	0.14783	0.37938	0.16011	0.20287	-1.6562	-2.2604	-2.5771	-1.8708	-2.5042	-2.3354	-2.1208	-2.7729	-2.0021	-2.1625	-2.8917	-1.8917	-2.6625	-2.4375	-1.7812	-2.9167	487.842	180.758	489.858	455.328	315.950	141.435	491.321	434.941	479.112	430.659	474.209	450.098	410.649	456.814	296.500	166.819	0.0016868	0.00090254	0.00040533	1250.9	1.8086e-05	1.1707e-05	1282.7	451.14	1.8461e-05	1.958e-06	501.92	191.72	171.08	82.944	1.0988e-05	93.803	0.0043627	0.0046311	0.0012954	1281.7	4.9426e-05	5.0567e-05	1307.9	459.53	4.8633e-05	5.0031e-05	533.35	198.75	195.65	84.561	4.8179e-05	96.56	318.199	197.404	286.048	149.164	331.771	405.948	148.129	154.943	280.423	188.947	152.439	157.036	160.298	164.513	215.948	160.533	-8191	255	
1615.361	1	1	0	0	0.2224	0.20937	0.079382	0.26225	0.31362	0.066782	0.36031	0.055623	0.19021	0.18848	0.25989	0.19346	0.18607	0.3949	0.18562	0.14464	-1.6063	-2.2	-2.6813	-2.0771	-2.3833	-2.4646	-2.0458	-2.7833	-2.0083	-1.9354	-2.9938	-2.0167	-2.5375	-2.5938	-1.8396	-2.9042	489.528	254.484	313.445	434.045	187.720	442.586	429.975	401.989	460.864	199.187	453.219	436.417	483.830	471.048	194.125	465.694	0.0016434	0.0021906	0.00024982	1247.1	1.2873e-05	1.4361e-05	1277.1	451.16	1.3094e-05	3.7643e-05	498.78	191.99	172.7	83.735	5.3494e-06	93.442	0.004169	0.0044767	0.0012453	1277.4	4.848e-05	5.0086e-05	1303.6	458.26	4.8811e-05	5.0501e-05	531.22	199.28	197.66	85.633	5.0899e-05	96.817	302.640	349.314	295.898	149.203	185.852	280.047	147.751	154.959	255.030	258.107	152.416	157.113	160.266	164.541	334.282	160.335	-8191	255	
1615.457	1	1	0	0	0.050442	0.16031	0.29425	0.20046	0.2462	0.29488	0.35403	0.28356	0.14224	0.072061	0.11498	0.2327	0.16001	0.27637	0.27066	0.29362	-1.9354	-2.0542	-2.6458	-2.0958	-2.3375	-2.7146	-1.8354	-2.8875	-2.2438	-2.0604	-2.9562	-2.2125	-2.4875	-2.7917	-1.7375	-2.7646	162.505	383.708	143.059	421.316	396.299	143.847	405.823	463.221	374.972	376.227	190.812	487.787	492.908	448.195	398.329	457.961	0.0018438	0.002291	0.00078309	1238.6	1.8495e-05	1.2292e-05	1263.9	449.37	9.9684e-06	2.9625e-05	498.19	193.2	172.17	84.533	1.4024e-06	94.822	0.0044405	0.004767	0.0013265	1277	5.1314e-05	5.2473e-05	1300.7	458.75	5.1394e-05	5.2515e-05	531.62	199.41	197.79	86.09	4.9575e-05	97.489	310.462	221.081	326.734	149.409	244.340	359.478	147.754	154.853	308.729	193.199	152.470	157.377	160.399	164.363	269.542	160.371	-8191	255	
1615.553	1	1	0	0	0.11551	0.097968	0.14973	0.25864	0.24043	0.25599	0.086219	0.42245	0.42459	0.23847	0.087099	0.054694	0.043787	0.22007	0.13712	0.30451	-1.9312	-1.8813	-2.6667	-2.2104	-2.1354	-2.5479	-2.1396	-2.6167	-2.3917	-1.6958	-2.8063	-2.1104	-1.9667	-2.9021	-1.7917	-2.4333	258.677	445.238	452.662	444.213	439.641	343.575	196.259	417.891	462.117	448.966	149.223	171.455	293.324	140.718	307.799	141.294	0.0016823	0.00053246	0.00020362	1234.2	1.1344e-05	6.526e-06	1269.7	452.46	3.2072e-05	1.0357e-05	501.6	193.37	171.62	85.11	2.5032e-05	95.093	0.0042492	0.0045473	0.0012487	1272.2	4.8979e-05	4.9895e-05	1298.6	458.46	4.8628e-05	4.9845e-05	531.89	200.11	197.78	86.543	4.9054e-05	98.122	304.502	242.847	184.203	149.496	174.964	278.771	148.295	154.866	285.912	353.474	152.311	157.171	160.084	164.516	268.359	160.480	-8191	255	
1615.674	1	1	0	0	0.018694	0.11362	0.1373	0.54654	0.21945	0.1971	0.21474	0.1231	0.11697	0.098904	0.14157	0.24774	0.077328	0.30808	0.1456	0.1238	-2.2208	-1.7896	-2.6146	-2.2687	-1.9354	-2.5854	-2.1396	-2.6729	-2.6792	-1.8146	-2.5625	-2.3417	-1.9896	-2.9833	-1.95	-2.6625	197.839	333.388	299.519	496.855	137.480	372.096	415.254	459.682	157.485	469.968	259.885	472.295	336.371	150.147	217.549	356.281	0.0020411	0.00076901	0.00027264	1241.3	1.3071e-05	1.9101e-05	1280.1	450.87	2.9677e-05	1.154e-05	501.42	194.96	173.39	84.695	2.9824e-05	95.006	0.0043162	0.0046041	0.001289	1279.6	5.0152e-05	5.1468e-05	1310	459.6	5.1169e-05	5.2276e-05	535.99	202.48	200.49	86.631	5.0917e-05	98.463	306.137	200.367	264.889	149.383	242.837	203.458	148.038	154.947	266.518	197.246	152.748	157.062	160.492	164.725	292.283	160.527	-8191	255	
1615.768	1	1	0	0	0.21278	0.17397	0.052357	0.5083	0.1423	0.12965	0.31028	0.12995	0.12506	0.24914	0.096381	0.34309	0.21087	0.43912	0.16892	0.11758	-2.2062	-1.7708	-2.4333	-2.4958	-1.7708	-2.6937	-2.2521	-2.2979	-2.6542	-1.8625	-2.5792	-2.4792	-2.0854	-2.8354	-1.8729	-2.3312	215.623	244.831	166.228	470.103	200.533	369.326	444.176	484.234	244.480	429.583	469.519	153.098	351.797	450.184	454.911	160.557	0.0022931	0.0003378	0.00017356	1247.2	1.2914e-05	1.4755e-05	1276.2	449.97	2.1592e-05	2.1605e-06	499.46	194.52	172.94	84.947	1.278e-05	94.691	0.0044727	0.0046573	0.0013018	1279.9	4.9838e-05	5.0179e-05	1303	457.04	4.9e-05	5.0238e-05	530.44	200.43	198.1	86.408	4.8958e-05	97.787	313.633	357.868	174.203	149.432	312.628	290.732	148.067	155.189	259.291	156.961	152.609	156.911	160.448	164.574	278.372	160.305	-8191	255	
1615.864	1	1	0	0	0.24377	0.14689	0.18298	0.18627	0.17164	0.22778	0.19879	0.26256	0.039108	0.16743	0.15189	0.2144	0.078843	0.10394	0.20291	0.020613	-2.1917	-1.7229	-2.5104	-2.4354	-1.9271	-2.6021	-2.15	-2.2396	-2.8271	-1.8458	-2.7021	-2.6708	-1.8604	-2.8771	-2.1667	-2.2729	292.784	256.318	257.056	469.475	393.617	258.631	384.139	141.004	457.335	342.554	476.303	471.429	239.261	491.557	418.162	201.549	0.0021444	0.0007166	0.00039552	1236.4	2.3387e-05	2.6915e-05	1270.3	449.62	1.4477e-05	2.3445e-06	499.03	194.2	172.61	84.798	6.5674e-06	95.13	0.0042361	0.0044572	0.0012459	1270	4.8451e-05	4.9231e-05	1296.5	455.92	4.795e-05	4.8749e-05	528.71	200.34	197.1	86.108	4.7397e-05	97.392	317.502	175.201	207.980	149.226	287.527	277.911	148.191	155.065	289.064	357.086	152.693	156.965	160.113	164.562	176.126	160.862	-8191	255	
1615.960	1	1	0	0	0.10353	0.07836	0.12776	0.18084	0.18714	0.29884	0.27157	0.2504	0.33963	0.11678	0.14656	0.18254	0.22457	0.31737	0.33612	0.14052	-2.4896	-1.8646	-2.3271	-2.6646	-1.9167	-2.6625	-2.3937	-2.3375	-2.8	-1.9688	-2.3854	-2.7792	-1.7104	-2.7812	-2.1312	-2.1063	367.482	148.008	456.053	267.456	203.256	269.598	393.872	462.896	484.194	194.284	186.334	425.364	256.201	474.176	435.159	422.498	0.0020779	0.00051725	0.00061099	1238.7	1.8847e-05	1.2247e-05	1279	450.07	1.1471e-05	1.0145e-05	501.64	196	173.06	85.622	2.5825e-05	96.487	0.0040849	0.0042689	0.0011941	1267.1	4.4917e-05	4.5137e-05	1293.3	454.1	4.3015e-05	4.3371e-05	524.51	199.46	192.54	86.305	4.2467e-05	97.885	316.368	232.282	190.839	149.463	273.505	324.598	148.172	155.106	191.100	346.180	152.720	157.343	160.372	164.833	299.798	160.449	-8191	255	
1616.056	1	1	0	0	0.05398	0.2265	0.15755	0.43836	0.040361	0.14216	0.28812	0.35492	0.084696	0.20868	0.13067	0.2804	0.13862	0.20599	0.31492	0.052427	-2.4688	-1.8729	-2.0167	-2.7438	-1.75	-2.675	-2.5417	-2.0604	-2.7562	-2.0375	-2.0292	-2.9604	-1.8062	-2.6646	-2.2542	-1.9708	406.948	368.424	187.870	422.206	427.122	252.634	451.437	445.894	476.767	207.459	405.222	142.433	201.680	149.767	451.949	314.832	0.0023598	0.0025071	0.000119	1241.2	9.9211e-06	6.5324e-06	1288.1	452.77	1.9515e-05	8.0041e-06	505.55	197.51	174.7	85.108	4.2685e-06	95.499	0.0037073	0.0039483	0.001105	1265	4.2914e-05	4.4019e-05	1299.2	455.27	4.3358e-05	4.4024e-05	528.68	200.59	193.76	85.86	4.418e-05	97.573	318.495	182.422	482.642	149.381	298.189	270.855	147.854	155.316	297.455	364.461	152.598	157.316	160.430	164.825	286.057	160.492	-8191	255	
1616.153	1	1	0	0	0.3091	0.22572	0.039807	0.23716	0.04475	0.11905	0.36676	0.16522	0.15905	0.065773	0.22394	0.16577	0.20462	0.28885	0.38787	0.3253	-2.3354	-1.9312	-1.8667	-2.9	-1.7313	-2.3458	-2.5167	-1.8687	-2.7146	-2.0604	-1.8833	-2.8458	-1.9854	-2.4333	-2.4979	-1.7812	349.978	424.812	384.654	441.223	188.549	184.928	419.902	489.180	268.899	395.389	485.547	477.415	470.116	468.976	202.168	424.345	0.0019737	0.0022216	5.412e-05	1243.5	1.2289e-05	1.2698e-05	1276.1	448.7	7.037e-06	1.0735e-05	499.99	193.89	171.22	84.351	1.5872e-05	94.925	0.0038772	0.0041558	0.00118	1272	4.5748e-05	4.7511e-05	1299.8	454.45	4.6694e-05	4.7517e-05	528.97	199.22	194.65	85.426	4.5872e-05	97.014	325.380	259.889	460.870	149.684	372.395	253.412	148.166	155.309	253.752	242.111	153.130	157.591	160.272	164.734	329.588	160.762	-8191	255	
1616.273	1	1	0	0	0.20002	0.24467	0.21582	0.0061974	0.1422	0.12429	0.20151	0.62097	0.10584	0.049421	0.12065	0.21393	0.19127	0.26094	0.27583	0.41359	-2.4437	-2.0667	-1.8146	-3.0479	-1.8146	-2.2083	-2.6917	-1.8833	-2.5208	-2.3729	-1.9396	-3.0083	-1.9333	-2.3688	-2.6833	-2.0708	326.283	164.691	182.750	457.471	338.589	407.911	381.603	440.559	240.341	149.717	477.138	155.830	247.578	492.599	398.288	473.135	0.0020712	0.00034295	0.00047046	1241.2	2.9676e-05	5.125e-06	1273.3	449.71	1.2155e-05	1.9504e-05	499.79	195.19	172.46	85.093	3.1418e-05	96.015	0.0039551	0.0041647	0.0011522	1263.8	4.4069e-05	4.539e-05	1289.9	453.52	4.4375e-05	4.5847e-05	526.45	199.84	194.34	86.346	4.5525e-05	98.05	316.506	210.289	255.799	149.413	290.723	493.677	148.279	155.298	391.899	184.969	152.614	157.195	159.965	164.754	326.933	160.215	-8191	255	
1616.369	1	1	0	0	0.13607	0.10607	0.30231	0.18712	0.10769	0.11976	0.31358	0.25874	0.49166	0.082081	0.14765	0.20315	0.26521	0.058324	0.16365	0.23414	-2.2667	-2.4146	-1.8979	-2.8542	-1.9958	-2.0354	-2.9625	-2.0104	-2.4125	-2.4792	-1.8729	-2.7917	-2.2	-2.2292	-2.8667	-2.0812	213.873	412.752	414.706	410.073	449.336	247.694	468.011	449.639	425.461	158.028	363.607	177.261	468.398	438.121	269.159	472.785	0.002124	0.0011924	0.00012542	1241.2	2.2766e-05	1.6933e-05	1276.3	448.06	1.5459e-05	8.5176e-06	500.48	195.19	175.17	85.262	2.0296e-05	96.415	0.0039242	0.0041817	0.0011699	1266	4.4531e-05	4.6248e-05	1296.9	453.63	4.4637e-05	4.6067e-05	528.32	200.66	195.7	86.64	4.5559e-05	98.478	307.042	218.971	280.548	149.388	285.272	231.121	147.883	154.833	260.025	394.528	152.546	157.023	160.425	164.642	222.002	160.515	-8191	255	
1616.466	1	1	0	0	0.17362	0.2104	0.080125	0.43927	0.20005	0.034955	0.1051	0.32918	0.14875	0.17778	0.087668	0.084083	0.25074	0.38089	0.14757	0.21872	-2.2333	-2.5104	-1.7292	-2.8229	-2.2271	-1.8833	-2.9979	-1.9521	-2.1604	-2.6104	-2.0042	-2.875	-2.3792	-2.2083	-2.7313	-2.1958	322.568	228.447	488.515	462.065	270.420	203.587	413.903	426.526	263.573	166.272	480.926	468.869	314.678	463.916	195.936	489.683	0.0021243	0.0014855	0.00011645	1248.5	1.9777e-05	1.3385e-05	1295.2	450.05	2.1682e-05	1.2757e-05	500.6	196.69	173.12	84.73	2.6957e-05	95.66	0.0039848	0.0042145	0.0011722	1273.9	4.5341e-05	4.6771e-05	1307.3	454.74	4.5436e-05	4.6421e-05	529.28	201.24	195.35	85.982	4.5868e-05	97.78	323.312	193.809	407.036	149.545	379.405	210.193	147.957	154.787	261.727	227.462	152.775	157.034	159.899	164.799	263.607	160.506	-8191	255	
1616.562	1	1	0	0	0.18035	0.1994	0.34532	0.30373	0.11506	0.21732	0.10105	0.41552	0.0083243	0.30064	0.20373	0.098901	0.15851	0.36487	0.26874	0.17293	-1.8146	-2.4396	-1.5646	-2.6583	-2.3583	-1.8563	-2.9938	-2.1104	-2.1937	-2.7583	-1.9542	-2.6396	-2.4896	-2.0312	-2.5875	-2.2958	214.741	477.777	187.178	496.178	252.475	292.418	434.387	480.363	138.817	294.418	422.605	264.032	441.257	436.762	429.435	433.774	0.0022187	0.0019805	0.00017171	1249.9	2.9009e-05	5.2072e-06	1280.7	450.3	1.4985e-05	1.8443e-05	498.44	193.66	171.38	84.125	1.0054e-05	93.638	0.004009	0.0042484	0.0011914	1281.1	4.5808e-05	4.7167e-05	1302	454.75	4.6119e-05	4.7464e-05	526.95	199.82	195.08	85.616	4.7587e-05	96.64	309.606	208.851	349.607	149.685	278.053	418.765	148.006	155.156	322.634	362.045	152.663	156.945	160.338	164.532	273.750	160.377	-8191	255	
1616.658	1	1	0	0	0.12334	0.3385	0.2567	0.17981	0.073123	0.24389	0.40654	0.23666	0.27711	0.12451	0.33054	0.31101	0.098214	0.16465	0.12083	0.27499	-1.6708	-2.6854	-2.0958	-2.5563	-2.4479	-1.8229	-2.9562	-2.1521	-1.9833	-2.9667	-2.0104	-2.4833	-2.5958	-2.1188	-2.6479	-2.375	248.070	367.202	182.870	408.301	141.163	328.367	416.865	489.264	391.656	421.415	145.166	419.496	143.325	454.496	237.058	466.795	0.0020746	0.0016978	0.00063345	1250.7	1.384e-05	6.4789e-06	1277.4	447.03	1.091e-05	2.8964e-06	498.88	195.39	172.15	84.961	1.1312e-05	95.579	0.0041147	0.0043635	0.0011954	1276.5	4.5682e-05	4.5816e-05	1291.8	450.64	4.231e-05	4.1926e-05	519.23	197.35	190	85.578	4.0678e-05	96.687	304.922	436.396	237.623	149.553	215.218	486.579	148.208	154.980	214.600	469.995	152.348	157.316	160.320	164.676	238.128	160.586	-8191	255	
1616.752	1	1	0	0	0.17391	0.23857	0.047385	0.17852	0.19787	0.11822	0.1651	0.25865	0.17295	0.11708	0.38332	0.26493	0.15411	0.49042	0.29564	0.095439	-1.5792	-2.8063	-1.6688	-2.2313	-2.4333	-1.8104	-2.7938	-2.4146	-1.8708	-2.7833	-1.9688	-2.4604	-2.7188	-1.8937	-2.6292	-2.4813	321.339	260.738	469.665	456.383	465.607	182.126	404.347	453.967	244.147	471.651	429.957	436.837	296.151	469.523	294.937	380.870	0.0023038	0.0013436	0.00072714	1248.9	2.5106e-05	1.9118e-05	1280.5	448.79	2.1888e-05	1.8159e-05	502.73	194.82	171.32	84.986	2.4946e-05	95.789	0.0035984	0.0037757	0.0010377	1263.8	4.0509e-05	4.1441e-05	1286	450.71	4.0065e-05	4.0634e-05	518.04	196.83	187.75	85.032	3.8291e-05	96.525	307.552	250.713	209.783	149.593	260.226	269.280	148.321	155.161	248.367	360.381	152.795	157.606	160.530	164.801	268.780	160.392	-8191	255	
1616.848	1	1	0	0	0.34576	0.16499	0.31184	0.15848	0.31927	0.16481	0.040852	0.10942	0.16545	0.087343	0.21161	0.28127	0.14337	0.35787	0.15152	0.55336	-1.3208	-2.7188	-1.8021	-2.4854	-2.6146	-1.9208	-2.7125	-2.7396	-1.7208	-2.7375	-2.3021	-2.3312	-2.9479	-1.9542	-2.4646	-2.6667	416.440	313.740	266.828	463.752	485.296	362.342	149.002	378.111	398.295	331.908	422.200	395.955	454.023	474.107	310.108	450.586	0.0020257	0.0025541	0.00034562	1249.7	1.753e-05	2.2871e-05	1287.1	452.14	1.6236e-05	1.675e-05	509.36	197.11	173	85.085	1.9466e-05	96.433	0.0033497	0.0034738	0.00096721	1258.8	3.7614e-05	3.8713e-05	1290.8	451.6	3.8652e-05	3.9006e-05	522.29	198.4	188.54	85.14	3.6893e-05	97.115	310.681	218.576	493.912	149.858	328.170	274.607	148.366	155.277	387.572	301.421	152.597	157.357	160.434	164.736	253.669	160.489	-8191	255	
1616.945	1	1	0	0	0.086817	0.10927	0.33088	0.20914	0.15432	0.23922	0.21854	0.17831	0.11855	0.14045	0.078678	0.26887	0.056227	0.17904	0.35706	0.11135	-1.4542	-2.8167	-2.0917	-2.0917	-2.7021	-1.8417	-2.5958	-2.7458	-1.7771	-2.6375	-2.375	-2.125	-2.9208	-2.0771	-2.1979	-2.7687	331.453	164.089	328.856	405.059	482.576	368.857	440.757	387.807	366.560	324.640	311.101	419.447	235.641	476.275	300.315	381.485	0.0018331	0.00053517	0.00027784	1246.2	2.2511e-05	4.0317e-06	1288	452.94	6.4658e-06	1.764e-05	503.51	196.55	174.03	85.772	2.8656e-05	96.009	0.0031717	0.0033329	0.00092297	1257.1	3.552e-05	3.5828e-05	1283.2	450.44	3.5121e-05	3.5778e-05	516.07	197.29	186.99	85.497	3.5809e-05	96.694	317.491	176.962	142.682	149.665	280.021	468.228	148.147	155.035	298.704	269.708	152.575	157.447	160.454	164.383	282.776	160.388	-8191	255	
1617.041	1	1	0	0	0.21711	0.22387	0.10267	0.11819	0.12908	0.24112	0.19017	0.40992	0.068552	0.20511	0.10665	0.51515	0.17254	0.3656	0.069676	0.40956	-1.4083	-2.7083	-2.0979	-2.0396	-2.5479	-1.8687	-2.4854	-2.725	-1.8917	-2.5521	-2.4313	-2.0812	-2.7354	-2.0979	-2.1604	-2.7625	298.303	260.822	156.453	412.015	441.934	191.533	155.218	398.479	330.558	345.130	444.236	450.437	392.397	456.489	181.004	372.051	0.0022395	0.0027642	0.00067156	1247.6	2.0245e-05	7.1515e-06	1286.2	450.84	1.9906e-05	3.914e-06	499.67	195.22	170.94	84.661	2.7084e-05	95.594	0.0031508	0.003301	0.0009228	1254.6	3.6258e-05	3.7406e-05	1281.8	449.54	3.726e-05	3.8227e-05	516.94	197.18	187.67	84.932	3.8223e-05	96.495	308.012	159.651	251.881	149.601	243.246	362.386	148.193	154.960	345.264	264.749	152.864	157.268	160.116	164.566	297.771	160.500	-8191	255	
1617.161	1	1	0	0	0.16777	0.21121	0.15562	0.17556	0.10237	0.059561	0.40067	0.054468	0.10338	0.16453	0.082324	0.13877	0.12164	0.4777	0.3268	0.23751	-1.3417	-2.5729	-2.375	-2.0896	-2.75	-1.9562	-2.2021	-2.9104	-1.7521	-2.3333	-2.4813	-1.9979	-2.6354	-2.4437	-2.0563	-3.0479	320.286	150.151	204.536	439.210	482.365	335.051	484.614	186.987	367.975	224.271	478.480	495.625	361.972	469.194	338.462	408.847	0.0018265	0.00092951	0.0003122	1248.1	1.9066e-05	1.0631e-05	1278	450.72	1.5307e-05	1.739e-05	503.25	196.54	172.75	85.542	1.915e-05	96.675	0.0033491	0.0035218	0.00098681	1257.7	3.7517e-05	3.8235e-05	1280.7	449.37	3.668e-05	3.7181e-05	516.84	197.64	187.25	85.557	3.7054e-05	97.107	320.244	220.032	240.603	149.586	294.046	240.284	148.205	154.985	274.513	263.202	152.821	157.172	160.183	164.859	286.830	160.516	-8191	255	
1617.233	1	1	0	0	0.21777	0.036145	0.20987	0.21117	0.38978	0.086652	0.20449	0.24276	0.082357	0.072377	0.23173	0.20663	0.21798	0.42927	0.28713	0.32066	-1.4062	-2.3833	-2.5042	-2.0021	-2.675	-2.2396	-2.0938	-3.05	-1.9646	-2.4021	-2.7833	-1.7938	-2.6479	-2.4792	-1.8062	-2.8542	461.987	265.700	327.080	399.840	435.411	412.406	420.765	432.176	162.707	142.364	479.189	491.211	434.398	435.630	150.197	472.095	0.0022486	0.0022127	0.00025817	1245.6	5.732e-06	7.7127e-07	1290.3	452.24	1.0583e-05	2.864e-06	506.13	197.76	174.1	86.534	9.581e-06	97.891	0.0032501	0.0033924	0.00093626	1253.4	3.5802e-05	3.6317e-05	1280.2	449.94	3.5188e-05	3.5792e-05	519.55	198.55	187.18	86.379	3.6017e-05	98.237	314.957	493.063	258.646	149.997	261.814	387.985	148.115	155.131	314.773	476.159	152.708	157.314	160.563	164.476	288.603	160.565	-8191	255	
1617.354	1	1	0	0	0.24932	0.2714	0.10305	0.19466	0.15168	0.097373	0.16141	0.32543	0.095793	0.28868	0.2007	0.19803	0.12178	0.33391	0.09664	0.18952	-1.5708	-2.1292	-2.4333	-1.8875	-2.5146	-2.3187	-1.8729	-2.8104	-2.0354	-2.1292	-2.6792	-2.0042	-2.7604	-2.5042	-1.675	-2.7854	493.442	388.395	244.720	369.977	375.628	315.281	442.172	403.141	341.677	406.347	476.260	373.685	455.402	425.562	181.728	439.834	0.0019783	0.0010587	0.00017544	1247	9.9705e-06	1.1111e-05	1283.1	454.53	2.1411e-05	6.3726e-06	503.24	196.07	172.89	86.587	1.8163e-05	97.548	0.0031369	0.0033297	0.00093482	1253.7	3.6461e-05	3.7235e-05	1280.2	451.72	3.6697e-05	3.7539e-05	518.43	197.33	187.57	86.545	3.6548e-05	98.084	307.685	260.140	327.267	149.825	286.315	306.490	148.336	155.069	361.656	334.595	152.663	157.569	160.020	164.550	267.379	160.610	-8191	255	
1617.450	1	1	0	0	0.12835	0.19166	0.20509	0.38374	0.33812	0.050243	0.28824	0.17373	0.29378	0.13773	0.21523	0.44354	0.10302	0.10398	0.082396	0.10331	-1.7396	-2.0687	-2.5583	-1.8687	-2.3375	-2.5062	-2.1542	-2.9062	-2.1271	-2.0271	-2.8187	-2.0146	-2.5396	-2.7771	-1.675	-2.7417	390.339	476.921	349.862	472.540	282.402	421.120	397.396	490.609	227.666	288.147	406.276	442.494	274.412	439.151	480.349	201.618	0.001994	0.00040487	0.00020025	1236.4	1.3398e-05	1.0042e-05	1278.7	452.57	6.4542e-06	2.7617e-05	504.12	196.14	173.83	87.074	6.4393e-06	98.893	0.0031889	0.0033275	0.00092128	1242.9	3.5122e-05	3.5762e-05	1267.1	450.17	3.4738e-05	3.542e-05	515.46	196.32	185.7	86.431	3.291e-05	98.746	309.138	176.373	155.458	149.425	341.794	230.692	148.086	155.171	318.629	280.886	152.645	157.064	160.659	164.731	291.555	160.497	-8191	255	
1617.546	1	1	0	0	0.16317	0.14211	0.20969	0.26649	0.23904	0.20431	0.31637	0.17872	0.04649	0.30876	0.016525	0.44156	0.24781	0.040103	0.1718	0.15809	-1.9479	-1.975	-2.6937	-1.9729	-2.3396	-2.6208	-2.0271	-2.7875	-2.4083	-2.0687	-2.9917	-2.0563	-2.3812	-2.7958	-1.6333	-2.7583	153.120	485.161	350.643	447.887	473.849	427.401	451.331	461.914	270.905	460.184	302.668	439.276	479.684	226.464	384.933	383.608	0.0018298	0.0018818	0.00065063	1235	9.4839e-06	1.4521e-05	1277.7	458.2	1.8625e-05	1.4968e-05	508.64	199.02	176.04	87.617	3.7767e-06	98.749	0.0028405	0.0029851	0.00081546	1230.3	3.0714e-05	3.1383e-05	1263.4	450.55	3.0584e-05	3.1362e-05	514.62	197.53	184.76	86.684	3.0994e-05	98.482	313.761	194.689	240.410	149.546	304.907	326.909	148.154	155.198	295.438	270.723	152.635	157.300	160.384	164.727	475.321	160.520	-8191	255	
1617.642	1	1	0	0	0.092412	0.12796	0.10067	0.12565	0.12396	0.12347	0.16629	0.18133	0.16899	0.17699	0.28951	0.2042	0.057117	0.25739	0.078358	0.29567	-1.8167	-1.7667	-2.7188	-2.2562	-2.1312	-2.6708	-1.9729	-2.7396	-2.5396	-1.8375	-2.8	-2.4062	-2.1937	-2.8896	-1.925	-2.5917	496.113	416.192	235.132	347.006	234.174	477.691	375.372	454.047	380.002	218.654	484.657	464.420	242.031	461.075	446.940	484.491	0.0022446	0.001278	0.0003309	1253.8	1.3041e-05	9.0132e-06	1289.1	459.14	1.1178e-05	2.4026e-05	512.78	199.62	177.07	87.467	1.9154e-05	99.456	0.002745	0.0028665	0.00079312	1241.2	3.0806e-05	3.135e-05	1269.9	452.34	3.035e-05	3.1236e-05	517.71	198.18	185.03	86.653	3.0994e-05	98.747	318.557	218.326	497.119	149.609	335.518	293.573	148.191	155.543	237.096	333.084	152.752	157.357	160.329	164.690	320.067	160.653	-8191	255	
1617.761	1	1	0	0	0.18193	0.10347	0.099098	0.25895	0.1593	0.22418	0.37257	0.070875	0.15053	0.23549	0.21899	0.26257	0.34543	0.32888	0.3014	0.26545	-2.1312	-1.7729	-2.675	-2.3458	-1.9896	-2.7229	-2.0062	-2.4583	-2.6417	-1.6583	-2.6917	-2.2438	-2.025	-2.9167	-2.1	-2.4083	346.047	466.966	244.579	492.166	385.679	249.415	405.384	403.739	475.762	492.536	425.840	440.891	496.171	470.899	431.326	464.325	0.0021229	0.0011983	0.00057845	1247.1	1.0268e-05	1.0658e-05	1285.8	458.02	1.0029e-05	1.0246e-05	508.33	199.39	176.51	86.504	1.2245e-05	97.235	0.002769	0.0029211	0.00081708	1245.8	3.2123e-05	3.2798e-05	1274.1	452.39	3.2423e-05	3.3419e-05	516.82	197.77	186.25	85.801	3.2726e-05	97.213	315.314	266.499	237.474	149.986	278.233	306.960	148.375	155.306	273.790	344.731	152.915	157.565	160.699	164.799	212.458	160.951	-8191	255	
1617.857	1	1	0	0	0.17156	0.058091	0.14483	0.34004	0.25133	0.072248	0.13359	0.29671	0.14946	0.23307	0.2686	0.29422	0.16409	0.35207	0.12355	0.15269	-2.3479	-1.7417	-2.4292	-2.4208	-1.7583	-2.6708	-2.2583	-2.2229	-2.6354	-1.8021	-2.5312	-2.4062	-1.8438	-2.7708	-1.9396	-2.3375	333.256	412.288	203.271	143.897	235.813	251.137	445.043	480.906	466.641	160.046	488.867	460.988	277.721	441.363	386.024	467.541	0.0020207	0.00090827	0.00011834	1244.5	1.2038e-05	1.695e-05	1279.7	454.57	3.1028e-05	5.6749e-06	508.47	199.12	176.19	87.154	2.4973e-05	97.497	0.0028601	0.0029397	0.00081362	1241.1	3.1518e-05	3.1733e-05	1261.9	449	3.1005e-05	3.1673e-05	513.79	197.3	185.13	86.408	3.1781e-05	97.153	313.237	239.002	257.543	149.750	321.853	353.782	148.398	155.099	280.053	377.342	153.099	157.203	160.340	164.569	299.239	160.137	-8191	255	
1617.953	1	1	0	0	0.1085	0.32276	0.081475	0.15103	0.23371	0.23601	0.083913	0.19401	0.10452	0.088013	0.39584	0.1139	0.24655	0.41315	0.072306	0.19368	-2.2354	-1.7917	-2.4104	-2.5563	-1.8042	-2.6979	-2.3875	-2.2417	-2.6646	-1.925	-2.6479	-2.6688	-1.8875	-2.9021	-2.1167	-2.1104	282.495	221.854	319.550	444.452	473.427	162.221	417.442	367.726	411.903	360.920	168.203	431.754	450.785	455.618	268.598	357.217	0.0022058	0.00070331	0.00041105	1249.8	1.0695e-05	1.1483e-05	1281	454.43	1.139e-05	1.9928e-05	508.33	197.23	176.47	86.853	8.0462e-06	97.282	0.0027887	0.0029383	0.00081635	1241.4	3.1687e-05	3.1875e-05	1266	449.01	3.1412e-05	3.2405e-05	513.18	196.87	185.8	86.022	3.299e-05	97.043	316.001	337.071	139.726	149.621	315.692	472.188	148.443	155.326	380.368	198.075	152.960	157.274	160.345	164.694	404.257	160.630	-8191	255	
1618.049	1	1	0	0	0.1517	0.098419	0.22601	0.25255	0.19598	0.085513	0.1935	0.29562	0.16175	0.098291	0.30221	0.35876	0.13613	0.15135	0.038342	0.2288	-2.4208	-1.9792	-2.2562	-2.8125	-1.8271	-2.6208	-2.5396	-2.1	-2.6875	-1.9979	-2.3688	-2.8792	-1.9021	-2.7958	-2.3167	-2.0021	477.684	331.925	409.948	429.027	494.570	311.869	427.383	495.096	395.119	348.231	235.398	480.739	475.970	468.286	317.447	409.251	0.0016982	0.0010777	0.00013641	1249	1.119e-05	1.0248e-05	1285	454.59	1.6831e-05	4.3898e-06	504.06	197.66	174.52	86.503	8.28e-06	97.322	0.0029289	0.0030788	0.00086781	1247.8	3.4112e-05	3.4503e-05	1273.2	449.62	3.3949e-05	3.4414e-05	517	197.72	186.07	85.9	3.4351e-05	97.34	306.896	256.347	478.562	149.691	241.247	342.021	148.216	155.320	258.261	348.565	153.126	157.378	160.400	164.721	370.779	160.576	-8191	255	
1618.146	1	1	0	0	0.11967	0.096929	0.15733	0.13206	0.18672	0.17555	0.30488	0.36586	0.081635	0.14822	0.20573	0.27409	0.041041	0.23577	0.2934	0.22279	-2.4458	-2.0104	-2.0292	-2.725	-1.7958	-2.5021	-2.6	-2.0417	-2.65	-2.0667	-2.2208	-2.6833	-1.8479	-2.5417	-2.5208	-1.9646	225.650	350.209	425.034	159.456	255.263	362.269	391.519	145.497	370.460	437.893	379.462	460.025	250.277	157.980	478.057	168.970	0.0022701	0.00092689	0.00033454	1251.1	4.0626e-06	2.8361e-06	1287.8	451.9	3.6532e-05	2.235e-05	504.65	197.98	175.64	86.195	1.5729e-05	96.678	0.0030026	0.0031204	0.00088164	1249.4	3.4247e-05	3.5198e-05	1278.4	448.88	3.4778e-05	3.5726e-05	516.33	197.98	187.28	85.766	3.5325e-05	96.673	314.595	329.682	227.245	149.607	488.842	366.340	148.284	155.548	227.564	424.120	152.934	157.349	160.559	164.589	297.416	160.767	-8191	255	
1618.242	1	1	0	0	0.12937	0.11579	0.13847	0.41669	0.23347	0.11716	0.095696	0.44087	0.072969	0.23829	0.042903	0.26765	0.17382	0.13867	0.10567	0.35687	-2.2687	-1.9771	-1.8521	-2.8208	-1.8854	-2.2833	-2.7208	-1.7792	-2.6354	-2.1167	-2.0104	-2.975	-2.0292	-2.5187	-2.5	-1.9854	323.403	191.702	438.040	452.813	222.198	164.669	476.770	442.054	331.507	299.669	410.483	383.705	415.521	426.698	430.534	482.300	0.0019907	0.0015153	0.00057511	1247	1.5633e-05	1.2946e-05	1285.5	446.45	1.1624e-05	1.8378e-05	501.07	195.37	172.06	85.521	1.2839e-05	95.278	0.0030783	0.0032551	0.00091013	1249.4	3.499e-05	3.588e-05	1275.4	445.41	3.5326e-05	3.6476e-05	514.47	196.44	186.52	85.245	3.7221e-05	95.757	321.066	241.977	336.262	149.672	272.269	243.587	148.305	155.428	271.943	250.451	152.796	157.306	160.282	164.737	263.515	160.511	-8191	255	
1618.338	1	1	0	0	0.28696	0.18457	0.18207	0.24751	0.11463	0.06775	0.3158	0.07021	0.15909	0.19785	0.096366	0.25951	0.11771	0.20335	0.15653	0.23419	-2.3104	-2.1458	-1.8625	-2.6979	-1.9062	-2.0792	-2.7979	-2.1188	-2.6917	-2.4125	-1.9729	-2.75	-1.8771	-2.275	-2.6479	-2.0667	155.953	472.909	272.054	444.835	463.968	255.105	403.746	473.022	433.683	321.629	431.777	457.020	439.192	438.849	138.763	434.597	0.0021651	0.0008305	0.00035445	1252.7	2.5945e-05	8.8956e-06	1273.8	444.96	1.3248e-05	2.1443e-05	498.42	193.01	171.3	84.12	1.1777e-05	94.661	0.0032465	0.0034429	0.00096636	1255.2	3.6873e-05	3.7771e-05	1275.5	443.1	3.6821e-05	3.7853e-05	513.26	195.26	186.13	84.504	3.717e-05	95.697	311.257	249.468	207.102	149.670	315.573	284.774	148.328	155.385	297.329	338.678	152.374	156.974	160.120	164.515	287.320	160.070	-8191	255	
1618.458	1	1	0	0	0.26601	0.20009	0.21769	0.41201	0.077183	0.11112	0.17748	0.23812	0.2118	0.11988	0.25061	0.19418	0.26278	0.53843	0.16213	0.17683	-2.2917	-2.4125	-1.8	-2.7896	-2.225	-1.9688	-2.8896	-2.1437	-2.3979	-2.5229	-2.0542	-2.9083	-2.05	-2.2229	-2.7375	-2.0375	278.759	160.857	384.148	477.266	258.113	379.581	472.092	155.110	377.961	271.060	495.718	404.093	490.462	466.268	302.367	409.167	0.0018435	0.00082308	0.00030229	1239.6	3.6957e-06	7.6964e-07	1290.9	446.53	2.3605e-06	5.6014e-06	499.3	194.22	171.54	84.857	1.6425e-05	96.33	0.0032241	0.0034012	0.00093874	1249.6	3.5711e-05	3.6751e-05	1285.5	443.61	3.5949e-05	3.6907e-05	514.88	196.35	186.16	85.057	3.7237e-05	96.612	317.909	472.726	165.375	149.307	434.629	273.109	147.969	154.745	258.336	466.355	152.121	156.512	159.399	163.873	489.483	159.692	-8191	255	
1618.530	1	1	0	0	0.048688	0.10958	0.24989	0.18231	0.11642	0.14818	0.40961	0.072157	0.21255	0.21914	0.24287	0.14783	0.091977	0.32288	0.10141	0.13868	-2.0208	-2.4229	-1.7167	-2.7771	-2.0646	-1.975	-3.0563	-2.1104	-2.2042	-2.6208	-1.9062	-2.8542	-2.3521	-1.9813	-2.6917	-2.1479	183.169	180.742	217.482	437.799	171.026	307.272	464.387	458.114	241.830	429.360	142.767	163.305	275.363	463.869	283.699	369.564	0.0021164	0.0012656	0.00065423	1249.8	2.3747e-05	1.3325e-05	1286.1	447	6.5644e-06	6.8945e-06	503.3	195.49	171.92	84.087	7.1143e-06	94.776	0.0032365	0.003393	0.00094123	1255.6	3.6083e-05	3.7057e-05	1284.1	444.26	3.6147e-05	3.6936e-05	515.74	196.05	186.57	84.239	3.6784e-05	95.097	305.519	468.414	187.955	148.823	313.914	291.130	147.870	154.413	329.161	275.649	151.892	156.886	159.560	163.765	179.473	159.699	-8191	255	
1618.626	1	1	0	0	0.36335	0.07881	0.077974	0.13735	0.1954	0.13598	0.18255	0.16956	0.096212	0.2691	0.2252	0.28814	0.040835	0.27616	0.17027	0.1902	-1.8125	-2.8021	-1.9021	-2.6792	-2.2458	-1.6854	-2.8583	-2.3083	-2.225	-2.6437	-1.9937	-2.5917	-2.6729	-1.8604	-2.75	-2.2542	165.400	154.117	211.394	183.840	347.198	320.709	431.627	426.866	308.307	342.231	447.027	147.475	438.744	411.103	267.264	422.949	0.0020642	0.00028206	0.00055559	1245.7	1.8148e-05	2.099e-05	1271.2	443.2	1.2424e-05	1.179e-05	496.36	191.19	169.61	83.06	9.7525e-06	92.554	0.0032942	0.0034843	0.00097043	1256.8	3.7935e-05	3.852e-05	1275.7	443	3.75e-05	3.8089e-05	512.78	193.73	186.31	83.532	3.9027e-05	93.962	314.015	488.155	266.738	149.144	254.917	255.941	147.510	154.283	327.638	229.855	152.197	156.166	159.835	163.958	291.448	159.558	-8191	255	
1618.722	1	1	0	0	0.18722	0.29376	0.16458	0.25617	0.10797	0.055871	0.24936	0.16948	0.14192	0.16103	0.1489	0.1328	0.2561	0.41131	0.11488	0.33133	-1.7458	-2.8146	-1.9458	-2.475	-2.5896	-1.8625	-2.9104	-2.3854	-1.9771	-2.8125	-2.0646	-2.4792	-2.6958	-1.8937	-2.4125	-2.4125	409.586	210.252	491.179	435.479	344.624	375.525	444.736	492.728	404.760	361.045	420.998	458.973	492.756	458.732	410.828	421.404	0.0017881	0.00060783	0.00040286	1250.7	5.1987e-06	1.2628e-05	1271.8	441.58	1.7392e-05	2.2952e-05	492.31	188.71	168.45	81.708	1.0065e-05	92.098	0.0034714	0.003647	0.0010084	1265.9	3.8852e-05	3.9571e-05	1277.2	442.22	3.8414e-05	3.9115e-05	509.31	191.5	184.64	82.381	3.8314e-05	93.446	319.799	394.047	193.495	148.934	312.232	286.129	147.482	154.589	216.138	273.040	151.662	156.818	159.731	163.835	293.953	160.003	-8191	255	
1618.841	1	1	0	0	0.13219	0.057606	0.21249	0.27012	0.11989	0.15091	0.066906	0.066248	0.21009	0.051767	0.29103	0.2268	0.378	0.18551	0.079332	0.50244	-1.3813	-2.7708	-1.8438	-2.2562	-2.5354	-1.8125	-2.8812	-2.4896	-1.8042	-2.8417	-1.9958	-2.1792	-2.7042	-1.9167	-2.4688	-2.4188	449.670	204.534	214.408	483.735	464.834	350.310	372.641	403.286	288.903	274.905	448.818	455.459	483.045	440.403	212.074	450.224	0.001916	0.00050134	0.00040485	1258.3	1.4069e-05	9.4495e-06	1278.6	442.17	2.7914e-05	1.7839e-05	489.7	188.47	166.25	81.84	1.377e-05	92.195	0.0033863	0.0035661	0.00099571	1266.9	3.8348e-05	3.9268e-05	1278.1	440.81	3.9138e-05	4.0021e-05	508.98	192.04	184.33	82.422	4.0127e-05	93.498	315.587	312.025	490.954	148.887	305.433	325.685	147.562	154.399	304.616	321.024	151.783	156.814	159.857	163.842	339.179	159.855	-8191	255	
1618.937	1	1	0	0	0.08201	0.075209	0.16102	0.44595	0.24923	0.27285	0.32968	0.11053	0.17092	0.023802	0.1172	0.18562	0.12719	0.28418	0.31598	0.53152	-1.3458	-2.7729	-2.0646	-2.2687	-2.725	-1.8375	-2.5729	-2.6583	-1.7188	-2.9625	-2.2646	-2.0854	-2.8438	-2.0896	-2.375	-2.6229	409.849	375.415	253.830	435.279	244.857	232.487	385.899	160.766	313.114	425.602	467.174	405.599	189.975	149.908	138.590	419.005	0.0020343	0.00056165	0.00039268	1256.3	8.4927e-06	8.4171e-06	1269.2	435.94	7.0438e-06	1.2957e-05	484.97	186.01	164.31	80.631	1.8466e-05	90.994	0.0035321	0.0037203	0.0010402	1272.1	4.1141e-05	4.2101e-05	1280	437.47	4.033e-05	4.1136e-05	504.9	189.33	182.65	81.357	3.9792e-05	92.338	321.203	298.369	200.231	148.766	277.084	369.651	147.288	154.576	319.088	304.231	152.032	156.883	159.314	163.877	255.743	159.616	-8191	255	
1619.034	1	1	0	0	0.16429	0.076715	0.094689	0.3316	0.11897	0.30247	0.17614	0.33185	0.063734	0.083145	0.19819	0.33078	0.26873	0.13359	0.17885	0.36852	-1.3854	-2.7042	-2.1083	-1.8979	-2.5917	-1.7583	-2.3708	-2.7604	-1.5833	-2.7021	-2.4062	-2.05	-2.6771	-2.0729	-2.0375	-2.8458	216.887	256.166	159.560	212.669	145.214	446.902	476.981	428.241	385.157	310.990	481.230	450.391	414.180	492.067	491.652	407.683	0.0021767	0.00062136	0.0002197	1243.8	1.46e-05	7.1081e-06	1268	431.68	2.3507e-05	4.8305e-06	483.26	186.55	164.82	81.523	1.2256e-06	92.082	0.0034121	0.0035442	0.00098909	1252.3	3.7399e-05	3.8125e-05	1260.7	432.26	3.6724e-05	3.7232e-05	498.47	188.02	179.37	81.295	3.5081e-05	92.392	303.892	439.601	414.047	149.115	376.169	217.034	147.624	154.528	255.356	245.156	151.972	156.617	159.839	164.000	232.210	159.633	-8191	255	
1619.130	1	1	0	0	0.071244	0.26225	0.13334	0.24054	0.23479	0.21681	0.063116	0.19469	0.050775	0.18864	0.22466	0.34049	0.11596	0.32427	0.33251	0.29036	-1.4354	-2.4229	-2.2167	-2.0729	-2.8312	-1.9333	-2.2313	-2.9479	-1.7167	-2.4292	-2.5229	-2.0333	-2.6937	-2.1979	-2.1188	-2.7958	251.270	452.502	477.503	445.572	338.686	263.385	233.023	432.247	458.955	465.319	481.799	495.208	208.356	460.685	344.198	455.064	0.0018743	0.00070772	0.0003446	1232.8	8.9874e-06	8.5291e-06	1266.2	434.34	1.451e-05	1.1927e-05	486.07	188.36	165.51	81.023	1.7319e-05	91.527	0.0029767	0.0031072	0.00085548	1238.8	3.2786e-05	3.3445e-05	1257.4	430.05	3.2696e-05	3.3184e-05	498.48	188.53	178.26	80.938	3.3472e-05	92.109	318.885	225.786	179.794	149.226	254.584	408.687	147.565	154.730	262.357	276.943	151.799	156.903	159.741	163.756	317.735	159.776	-8191	255	
1619.226	1	1	0	0	0.22221	0.1279	0.23543	0.15035	0.12676	0.036886	0.096009	0.26893	0.12514	0.050992	0.22994	0.16763	0.14259	0.2973	0.041877	0.17597	-1.3625	-2.7188	-2.4292	-1.8563	-2.6063	-2.2417	-2.175	-2.8229	-1.8	-2.3292	-2.4854	-1.9979	-2.5729	-2.3729	-1.9042	-2.9479	378.182	412.736	174.504	274.341	248.855	390.015	238.777	155.025	171.561	410.111	388.760	464.148	407.117	447.171	226.877	447.281	0.0018401	0.0018291	0.00031364	1250.5	1.5446e-05	1.0444e-05	1282.5	434.87	1.5991e-05	1.5796e-05	489.94	188.35	167.45	80.629	1.4848e-05	91.595	0.0029244	0.0030729	0.00086688	1247.2	3.3531e-05	3.4284e-05	1269.7	431.57	3.3348e-05	3.4149e-05	499.96	188.56	178.25	80.396	3.3363e-05	91.96	315.121	216.145	218.436	148.952	309.763	309.209	147.624	154.693	269.705	300.905	151.833	156.647	159.914	163.877	286.488	159.542	-8191	255	
1619.322	1	1	0	0	0.12561	0.23214	0.035133	0.28537	0.059246	0.11973	0.17871	0.095533	0.0878	0.21178	0.30455	0.45929	0.1065	0.23013	0.25225	0.47992	-1.375	-2.3	-2.6521	-1.7875	-2.6792	-2.3167	-2.1042	-2.9167	-1.8208	-2.2062	-2.8271	-1.7313	-2.7542	-2.5854	-1.6604	-2.8375	195.873	357.573	195.804	429.451	311.718	283.351	283.889	423.534	330.588	171.666	413.161	441.394	205.170	452.627	487.798	446.195	0.0020546	0.0020935	0.00024136	1253.3	1.0914e-05	1.9589e-05	1292.9	433.65	1.383e-05	1.0128e-05	491.63	186.65	166.34	79.684	1.6443e-05	89.523	0.0029259	0.0030808	0.00085507	1254	3.2465e-05	3.3564e-05	1279.1	432.04	3.2808e-05	3.4025e-05	501.32	186.93	178.43	79.551	3.4865e-05	90.356	311.282	263.610	228.508	148.713	267.144	254.461	147.582	154.355	319.779	278.621	152.107	156.647	160.392	163.861	289.443	160.009	-8191	255	
1619.443	1	1	0	0	0.19983	0.052862	0.1295	0.17574	0.13987	0.067803	0.46926	0.28425	0.16536	0.16949	0.065432	0.27423	0.095654	0.17054	0.11133	0.21178	-1.8104	-2.125	-2.6854	-1.9354	-2.6042	-2.2167	-2	-2.8896	-2.0625	-2.0146	-2.9	-1.9688	-2.4938	-2.65	-1.4917	-2.7021	245.242	202.696	435.310	459.472	397.635	346.856	473.743	137.825	350.494	254.573	427.917	145.450	431.150	491.952	492.344	360.835	0.0018676	0.0013474	0.00066532	1253.4	8.6299e-06	9.3529e-06	1274.2	432.54	2.4899e-05	1.4642e-05	483.27	184.34	163.73	78.869	1.5407e-05	88.169	0.0030858	0.00329	0.00092534	1257.5	3.5587e-05	3.6516e-05	1273.1	431.63	3.571e-05	3.7073e-05	500.12	186.72	180.29	79.363	3.7626e-05	89.643	303.966	482.537	226.740	148.898	297.785	311.800	147.839	154.682	298.480	219.693	152.198	156.704	159.960	163.799	292.729	159.634	-8191	255	
1619.539	1	1	0	0	0.03603	0.25739	0.13536	0.24122	0.18423	0.10324	0.1233	0.26148	0.13599	0.16183	0.059093	0.20409	0.17467	0.11143	0.26102	0.15324	-1.7812	-1.8521	-2.4875	-1.8667	-2.3292	-2.55	-1.7354	-2.8646	-2.1021	-1.7875	-2.8708	-2.1354	-2.2896	-2.7271	-1.5583	-2.6917	346.821	236.025	333.922	463.806	338.115	204.470	458.864	431.620	471.189	268.499	333.389	417.147	202.575	461.799	166.129	402.645	0.0017685	0.0008154	0.00038085	1255.6	1.3364e-05	7.4947e-06	1279.8	433.54	1.6494e-05	8.7221e-06	485.31	182.45	163.94	77.774	1.1777e-05	87.541	0.0033188	0.0035697	0.0010067	1270.1	3.9342e-05	4.059e-05	1281.9	434.59	3.9563e-05	4.0886e-05	503.6	186.19	181.56	78.71	4.0496e-05	89.303	322.132	294.530	247.430	149.103	386.057	262.119	147.757	154.918	301.684	205.643	152.246	156.469	160.038	163.853	360.087	160.143	-8191	255	
1619.635	1	1	0	0	0.012581	0.23859	0.034091	0.32443	0.15497	0.23453	0.31244	0.20722	0.21773	0.071431	0.17777	0.0071637	0.20113	0.20159	0.29888	0.10654	-1.775	-1.7583	-2.7167	-2.0479	-2.1583	-2.7562	-1.9604	-2.5667	-2.2646	-1.8854	-2.7625	-1.9708	-2.1063	-2.8208	-1.7083	-2.7083	396.473	483.796	185.872	430.822	164.625	206.607	410.028	430.265	339.026	308.188	464.012	445.697	275.306	442.180	445.854	394.178	0.0019764	0.0015891	0.00033504	1259.9	1.0877e-05	2.4955e-05	1273.6	430.55	1.6947e-05	1.2475e-06	482.62	183.15	162.27	77.155	8.0862e-06	88.189	0.0035258	0.0037317	0.0010382	1273.3	4.0292e-05	4.1247e-05	1286.9	433.16	4.0894e-05	4.2e-05	505.6	186.71	181.65	78.361	4.1451e-05	89.566	311.074	208.056	306.666	148.952	446.311	330.889	147.740	154.688	248.727	388.000	152.493	156.698	159.816	163.924	277.912	159.965	-8191	255	
1619.754	1	1	0	0	0.10825	0.088094	0.17069	0.14506	0.139	0.29138	0.31726	0.18615	0.35508	0.14644	0.21885	0.22458	0.35542	0.39904	0.27316	0.12747	-1.9479	-1.6229	-2.5875	-2.0896	-2.0104	-2.5729	-1.9542	-2.5417	-2.3438	-1.6812	-2.9271	-2.1729	-2.0667	-2.5646	-1.6042	-2.5875	459.612	170.227	263.063	138.542	170.645	145.252	431.000	428.624	207.600	322.177	384.882	487.118	163.044	148.419	218.725	366.825	0.0019701	0.00042626	0.00033797	1259.5	4.8016e-06	9.9349e-06	1273.8	432.02	3.5309e-05	2.5232e-05	484.25	181.34	160.26	76.964	1.3406e-05	86.616	0.0036286	0.0038316	0.0010601	1276.8	4.1291e-05	4.2111e-05	1286	434.15	4.0736e-05	4.1576e-05	503.79	185.08	180.12	77.826	4.0004e-05	88.238	311.450	196.657	257.399	149.205	266.815	299.733	147.816	154.913	296.142	330.101	152.236	156.670	160.127	164.238	267.317	159.989	-8191	255	
1619.826	1	1	0	0	0.16707	0.2595	0.12138	0.14862	0.20263	0.16923	0.089817	0.49432	0.15627	0.16827	0.31621	0.10226	0.09757	0.26274	0.11217	0.17025	-2.2	-1.8375	-2.5479	-2.3167	-1.9562	-2.6833	-2.0104	-2.5354	-2.4667	-1.7208	-2.7812	-2.5187	-2.0021	-2.8917	-1.8417	-2.5958	384.625	360.068	379.945	437.949	389.977	413.535	342.629	144.161	277.478	368.967	494.390	384.585	336.444	137.352	356.054	375.957	0.0019787	0.0029347	0.00020912	1257.7	1.8653e-05	8.8214e-07	1268.3	429.65	1.5894e-05	8.7788e-06	481.51	179.73	160.82	76.082	3.2623e-06	85.497	0.0034935	0.0037003	0.0010309	1271	4.0088e-05	4.0876e-05	1278	431.74	4.0169e-05	4.0907e-05	501.55	182.93	178.82	76.859	4.0281e-05	87.113	312.168	237.057	387.741	149.201	234.547	332.795	147.641	154.928	251.792	253.875	152.470	156.710	159.792	164.137	349.483	159.951	-8191	255	
1619.922	1	1	0	0	0.2608	0.42321	0.17742	0.35915	0.15538	0.040592	0.36329	0.22463	0.11539	0.19221	0.13071	0.042716	0.023638	0.2495	0.26006	0.10559	-2.2958	-1.7167	-2.4417	-2.4146	-1.8188	-2.7854	-2.2438	-2.1875	-2.6375	-1.5708	-2.6583	-2.5958	-1.9813	-2.7604	-1.9958	-2.2354	242.793	218.522	323.709	434.737	324.399	164.653	422.384	386.582	363.845	398.421	179.213	380.234	465.521	182.000	334.237	342.760	0.0018414	0.0017081	0.00029709	1257.7	1.7358e-05	1.4489e-05	1269.7	428.69	1.0081e-05	6.9607e-06	479.91	176.57	156.64	74.168	3.3217e-06	83.899	0.0035433	0.0037364	0.0010469	1274	4.0728e-05	4.1738e-05	1278.5	432.03	4.1355e-05	4.2244e-05	500.73	181.26	177.59	75.366	4.1567e-05	86.079	303.341	252.194	355.016	148.925	376.921	316.918	147.471	154.939	250.640	204.099	152.131	156.746	159.762	164.188	383.062	159.949	-8191	255	
1620.018	1	1	0	0	0.32268	0.040845	0.25785	0.082248	0.19925	0.10386	0.20397	0.24812	0.10714	0.084299	0.29613	0.26483	0.32273	0.33004	0.028497	0.4608	-2.4021	-1.8937	-2.3958	-2.5021	-1.7083	-2.55	-2.2333	-2.1833	-2.6583	-1.6042	-2.4708	-2.7792	-1.7833	-2.8	-2.1312	-2.0167	489.146	272.006	159.745	240.382	437.243	317.955	415.074	427.925	394.134	407.311	407.334	484.580	398.947	425.559	449.865	447.928	0.0020126	0.00028531	0.00040911	1261	1.2957e-05	6.9241e-06	1276.1	429.9	1.6445e-05	5.8102e-06	478.95	178.17	158.31	74.255	1.5094e-05	84.757	0.0035688	0.0037679	0.0010458	1276.1	4.0225e-05	4.0714e-05	1279.1	431.12	3.8715e-05	3.9148e-05	497.93	180.66	176.12	75.025	3.8307e-05	86.383	316.506	256.328	219.289	148.853	381.869	307.595	147.387	154.871	308.224	218.507	152.724	156.762	160.027	164.392	188.727	160.142	-8191	255	
1620.138	1	1	0	0	0.075477	0.1997	0.20238	0.30166	0.12988	0.16095	0.2704	0.26217	0.072954	0.18624	0.19561	0.089441	0.46678	0.20584	0.16576	0.20918	-2.3229	-1.7833	-2.0396	-2.7708	-1.6708	-2.4688	-2.4396	-2.1708	-2.8104	-1.8104	-2.4604	-2.7854	-1.8563	-2.7625	-2.4167	-1.9937	396.987	463.036	463.692	482.079	336.164	335.956	436.028	400.100	488.108	400.919	359.111	439.150	458.548	399.147	424.601	419.319	0.0020824	0.0019836	0.0002469	1265.2	6.6527e-06	3.2852e-06	1277.3	430.63	1.399e-05	1.8528e-05	478.09	175.66	159.14	73.228	1.1108e-05	83.044	0.0033959	0.0035951	0.0010099	1276	3.9177e-05	4.0253e-05	1281.9	431.1	3.9736e-05	4.0289e-05	496.79	179.61	176.71	74.436	4.0499e-05	85.219	313.774	491.595	172.075	149.234	219.415	312.360	147.831	155.067	310.663	366.642	152.329	156.936	160.074	164.206	231.848	160.244	-8191	255	
1620.235	1	1	0	0	0.12488	0.065232	0.152	0.37008	0.21956	0.14045	0.16552	0.35772	0.12314	0.27241	0.25329	0.38103	0.09639	0.2086	0.10443	0.22953	-2.4396	-2.075	-2.0458	-2.8271	-1.7667	-2.4188	-2.5958	-2.0792	-2.8792	-1.9542	-2.1729	-2.7396	-1.8687	-2.5646	-2.5958	-2.0563	210.151	315.480	311.429	471.682	319.887	224.684	414.564	461.949	294.704	217.259	409.117	450.816	198.081	377.283	328.254	429.326	0.0019026	0.0028698	0.00039584	1257.6	3.1101e-06	7.242e-06	1260.8	423.52	8.6197e-06	5.0159e-06	469.47	172.99	156.29	72.94	1.7585e-05	82.621	0.0035636	0.0037589	0.0010593	1273.2	4.128e-05	4.2166e-05	1272	427.37	4.1128e-05	4.2511e-05	492.81	178.23	176.28	74.37	4.237e-05	84.845	314.230	167.902	252.202	149.101	400.600	354.624	147.705	155.010	183.014	307.834	152.489	156.799	159.761	164.241	309.964	160.426	-8191	255	
1620.331	1	1	0	0	0.23484	0.19988	0.078934	0.26979	0.15285	0.15675	0.1687	0.22678	0.090936	0.15404	0.18275	0.28444	0.17457	0.30937	0.24521	0.022076	-2.4271	-2.1104	-1.8563	-2.9021	-1.8479	-2.3563	-2.6854	-2.0521	-2.525	-2.1354	-1.8646	-2.8479	-1.9146	-2.3229	-2.4833	-1.8521	478.964	429.071	173.165	411.862	195.044	251.058	294.486	482.155	458.558	143.191	173.584	493.507	248.037	461.460	197.548	146.519	0.0021505	0.0012385	0.00016725	1256.6	7.0942e-06	8.9262e-06	1266.3	421.1	6.75e-06	7.4036e-06	468.6	172.54	155.1	73.116	1.6861e-05	83.133	0.0037016	0.003923	0.0011154	1277.7	4.3289e-05	4.4475e-05	1276.4	426.9	4.3425e-05	4.4257e-05	494.73	178.51	176.8	74.686	4.3831e-05	85.739	306.897	205.450	278.076	149.263	444.355	305.659	147.976	155.041	294.560	298.104	152.404	156.979	159.832	164.452	361.615	159.908	-8191	255	
1620.402	1	1	0	0	0.17943	0.1514	0.12349	0.24532	0.14294	0.082952	0.041474	0.19752	0.14251	0.11715	0.1134	0.16519	0.21952	0.41146	0.23067	0.064362	-2.0729	-2.3	-1.8146	-2.7896	-1.9229	-2.1896	-2.7396	-1.9708	-2.575	-2.4125	-1.9729	-2.8438	-1.8833	-2.2917	-2.6271	-1.8625	180.186	462.582	315.652	144.180	361.207	312.127	283.311	378.278	409.750	210.433	439.377	444.733	480.270	412.403	495.917	385.810	0.0018686	0.00052208	0.00036214	1249.6	6.5062e-06	1.0684e-05	1264.1	424.25	1.2546e-05	5.9272e-06	471.16	173.36	155.53	73.449	1.1287e-05	82.937	0.0037871	0.003984	0.0011191	1274.4	4.2866e-05	4.4222e-05	1277.9	427.17	4.2191e-05	4.3351e-05	495.38	178.2	175.76	74.593	4.1894e-05	85.474	311.480	279.206	223.032	149.280	298.123	491.385	147.893	154.923	249.319	313.464	152.489	157.188	160.139	164.432	370.336	160.395	-8191	255	
1620.523	1	1	0	0	0.07878	0.078011	0.20592	0.193	0.18674	0.31948	0.31597	0.26578	0.16532	0.12263	0.18162	0.42166	0.20697	0.33986	0.23508	0.33388	-2.1	-2.5146	-2.0583	-2.7333	-2.1354	-1.9479	-2.7083	-2.3354	-2.4354	-2.4	-2.0146	-2.7667	-2.2604	-2.0042	-2.6896	-1.9458	352.959	283.270	187.845	495.477	356.071	173.723	397.440	435.336	362.057	433.464	464.114	468.173	334.243	471.408	481.926	419.754	0.0016967	0.001014	0.00048682	1258	6.5757e-06	1.8799e-05	1262.4	420.61	7.4939e-06	1.2287e-05	467.56	172.2	154.31	72.236	5.4356e-06	82.028	0.0036919	0.0039427	0.001109	1277.3	4.3023e-05	4.4709e-05	1275.3	426.6	4.439e-05	4.5977e-05	495.46	178.09	177.61	74.156	4.48e-05	84.851	321.037	374.361	190.262	149.629	187.519	308.801	147.946	155.062	300.224	296.601	152.581	156.973	160.099	164.516	385.075	160.491	-8191	255	
1620.619	1	1	0	0	0.17778	0.11068	0.079526	0.22296	0.28315	0.18651	0.33148	0.14765	0.095095	0.18202	0.13201	0.26671	0.031746	0.16731	0.11179	0.14683	-1.8188	-2.5062	-1.8542	-2.7292	-2.2313	-1.8	-2.8729	-2.1437	-2.1708	-2.5083	-1.975	-2.5833	-2.4604	-2.1813	-2.6792	-2.2792	213.910	157.906	411.056	455.008	485.719	308.146	447.798	459.305	140.992	399.748	376.725	436.666	169.691	481.487	264.475	403.703	0.001724	0.00057044	0.00061809	1251	7.8379e-06	1.5073e-06	1250.9	420.44	1.8281e-05	8.1811e-06	464.75	170.53	153.34	72.677	4.9395e-06	81.78	0.0038969	0.0041147	0.0011435	1272.6	4.4147e-05	4.5473e-05	1270.3	425.85	4.432e-05	4.5099e-05	490.09	176.34	176.45	74.041	4.4495e-05	84.585	315.685	494.900	258.886	149.572	309.596	163.958	148.070	155.219	329.802	403.930	152.603	157.270	160.513	164.611	303.761	160.344	-8191	255	
1620.715	1	1	0	0	0.1542	0.074295	0.30419	0.12662	0.031565	0.054623	0.14642	0.25688	0.21363	0.090651	0.15294	0.23607	0.26098	0.1196	0.034811	0.1335	-1.7792	-2.5917	-1.8604	-2.6979	-2.3479	-1.8604	-2.9	-2.4146	-2.0833	-2.5958	-2.0479	-2.5104	-2.45	-1.9792	-2.6375	-2.3688	406.697	370.105	423.989	478.373	308.544	330.472	425.471	432.473	440.146	299.400	429.809	448.572	475.000	451.746	436.113	327.022	0.0016603	0.0015304	0.000334	1246.6	1.9074e-05	1.9129e-06	1253.3	422.48	2.1606e-05	1.3895e-05	468.2	173.64	154.74	74.117	2.9729e-06	84.336	0.0038479	0.0040925	0.0011264	1268.4	4.3489e-05	4.4054e-05	1264.2	425.22	4.0946e-05	4.1307e-05	489.63	177.14	173.09	74.935	3.8719e-05	85.777	313.405	235.906	214.809	149.275	334.103	494.164	147.915	154.672	311.751	302.971	152.047	157.276	159.969	164.508	273.101	160.019	-8191	255	
1620.834	1	1	0	0	0.17817	0.18857	0.2447	0.26205	0.01895	0.26476	0.26296	0.28456	0.11627	0.22479	0.085712	0.16772	0.31131	0.07854	0.12469	0.16904	-1.4562	-2.5917	-1.6958	-2.3542	-2.5458	-1.5646	-2.9	-2.3563	-1.8521	-2.7458	-2.05	-2.4458	-2.7104	-2.0062	-2.725	-2.425	356.384	443.376	349.167	467.147	250.762	317.327	474.741	409.567	455.514	421.647	442.565	466.766	486.543	188.782	357.582	275.904	0.0018682	0.00092497	0.00023559	1248.4	2.3485e-06	6.3827e-06	1260.5	426.32	1.2247e-05	1.8692e-05	474	174.26	154.86	73.537	8.6433e-06	83.793	0.0034158	0.0035833	0.0010025	1259.7	3.9225e-05	4.0027e-05	1266.5	426.8	4.0035e-05	4.1061e-05	494.06	178.65	175.18	74.902	4.21e-05	85.994	308.534	217.954	485.338	149.298	366.123	432.439	147.951	154.845	262.004	282.718	152.321	156.937	159.592	164.389	479.353	160.082	-8191	255	
1620.930	1	1	0	0	0.060976	0.12584	0.30869	0.30424	0.1381	0.15429	0.17019	0.16374	0.24712	0.033365	0.093964	0.17799	0.22034	0.20474	0.12016	0.27359	-1.4104	-2.7938	-2.0312	-2.3458	-2.5729	-1.8271	-2.6896	-2.5479	-1.9188	-2.8187	-2.1854	-2.0979	-2.6146	-2.175	-2.4104	-2.475	178.772	158.706	378.990	439.934	296.153	423.203	477.239	386.787	276.014	190.148	268.469	481.043	489.729	446.992	328.678	480.754	0.0019058	0.00081849	0.00021807	1250.6	1.7367e-05	3.6816e-06	1260.2	421.62	9.6698e-06	2.2084e-05	469.15	173.11	154.6	73.743	1.1549e-05	83.712	0.0037207	0.0039487	0.0010926	1267	4.1697e-05	4.2478e-05	1269.1	425.7	4.1621e-05	4.1967e-05	492.08	177.83	175.04	74.794	4.131e-05	85.674	314.083	439.075	195.499	148.994	353.698	262.686	147.755	154.730	292.715	221.915	152.090	156.849	159.967	164.293	298.290	159.529	-8191	255	
1621.027	1	1	0	0	0.085278	0.10953	0.16046	0.44286	0.13786	0.066113	0.12901	0.31788	0.29348	0.20665	0.01439	0.12655	0.11169	0.28102	0.1331	0.036589	-1.5812	-2.6688	-2.025	-2.225	-2.7896	-1.7729	-2.5583	-2.65	-1.5208	-2.725	-2.2979	-1.9354	-2.7479	-2.0687	-2.2854	-2.6083	375.684	256.617	238.369	488.955	330.788	408.183	360.857	405.502	270.380	144.632	210.959	218.439	463.135	418.958	289.944	379.645	0.0018138	0.0012634	0.00019885	1238.7	6.1225e-06	1.1808e-05	1258.4	422.25	1.4309e-05	1.7823e-05	470.31	175.05	157.18	74.84	1.3931e-05	84.886	0.0036158	0.0038553	0.0010791	1260.1	4.153e-05	4.2293e-05	1265.1	425.83	4.1596e-05	4.1937e-05	493.83	179.46	177.08	76.096	4.1356e-05	86.902	309.626	290.116	177.683	149.059	310.856	270.289	147.748	154.560	238.966	312.493	151.935	156.889	159.939	164.057	199.186	159.642	-8191	255	
1621.123	1	1	0	0	0.32791	0.31392	0.11519	0.16454	0.25544	0.11916	0.10875	0.13272	0.14215	0.16843	0.035378	0.18191	0.30396	0.3547	0.22468	0.24588	-1.4229	-2.5521	-2.4062	-2.0375	-2.8208	-1.8771	-2.4021	-2.8521	-1.6521	-2.5417	-2.4375	-1.8813	-2.6167	-2.0792	-2.2521	-2.7958	185.127	493.500	223.090	457.790	489.392	381.231	483.954	321.126	426.847	235.952	476.056	437.576	317.265	491.658	453.148	442.341	0.0015102	0.00094754	0.00011343	1246	7.3363e-06	9.0895e-06	1257.9	424.5	1.181e-05	2.9534e-05	471.08	175.8	158.86	75.068	1.0151e-05	85.328	0.0036193	0.003824	0.0010578	1262.5	4.0915e-05	4.2349e-05	1267.3	427.48	4.1185e-05	4.251e-05	495	180.48	177.71	76.248	4.1613e-05	86.995	305.472	278.054	401.011	149.413	330.776	314.022	147.950	154.823	251.243	297.623	152.460	157.328	160.530	164.329	284.510	159.912	-8191	255	
1621.219	1	1	0	0	0.19534	0.23559	0.20422	0.26535	0.11467	0.045817	0.37748	0.15742	0.086969	0.21803	0.20436	0.124	0.22474	0.24049	0.09453	0.070682	-1.3042	-2.3625	-2.3458	-1.9312	-2.8563	-2.1125	-2.2896	-2.8667	-1.6833	-2.4729	-2.6646	-2.0646	-2.8688	-2.2375	-1.6938	-2.9562	462.044	231.646	190.232	432.992	433.121	491.549	428.840	298.502	397.111	191.749	171.201	311.748	213.209	423.036	372.416	446.282	0.002135	0.00048173	0.00039261	1249.2	2.4635e-05	1.4837e-05	1268.7	425.29	1.6333e-05	1.0057e-05	478.1	177.18	159.26	75.796	1.0603e-05	86.216	0.0035877	0.0037587	0.0010387	1260.7	3.985e-05	4.0622e-05	1270.2	427.56	3.9381e-05	3.9877e-05	497.52	181.43	176.61	76.885	4.017e-05	87.765	307.604	164.158	241.587	149.467	254.994	319.901	148.309	154.848	304.790	439.455	152.217	156.623	159.618	164.078	242.568	160.074	-8191	255	
1621.315	1	1	0	0	0.1654	0.088456	0.14121	0.23489	0.22031	0.25522	0.32228	0.12611	0.11934	0.28607	0.062876	0.092422	0.064529	0.37423	0.13105	0.31258	-1.5	-2.5667	-2.5	-2.0604	-2.6146	-2.1146	-2.3	-2.9125	-1.8604	-2.1854	-2.8021	-1.8813	-2.7188	-2.225	-1.8729	-2.9062	431.559	421.820	413.041	151.513	153.295	231.686	479.345	478.312	329.247	268.686	332.235	415.694	160.247	450.395	355.783	426.932	0.0018433	0.001688	0.00023402	1247.2	1.455e-05	7.1409e-06	1260.4	424.55	2.8206e-05	3.062e-05	475.2	175.82	157.64	75.631	1.9526e-05	85.034	0.00351	0.0037328	0.0010568	1260.8	4.0685e-05	4.1491e-05	1266.9	426.37	4.1001e-05	4.1797e-05	494.34	180.56	177.14	76.635	4.1159e-05	86.886	317.179	235.417	368.633	149.237	250.307	401.705	147.946	154.995	342.201	304.503	152.023	157.016	160.490	164.051	277.024	160.114	-8191	255	
1621.436	1	1	0	0	0.085723	0.022886	0.085612	0.28247	0.15854	0.10319	0.28246	0.50432	0.15564	0.067228	0.17338	0.3511	0.06038	0.18052	0.18468	0.15436	-1.4937	-2.15	-2.7375	-1.7521	-2.4979	-2.4562	-2.3125	-2.9688	-1.9312	-2.1083	-2.8708	-1.9917	-2.6063	-2.6729	-1.6833	-2.9854	350.584	218.405	483.646	412.756	464.472	446.663	470.876	492.923	363.707	215.733	334.012	479.952	443.418	472.468	440.243	442.975	0.0015282	0.0014593	7.6209e-05	1230	1.183e-05	8.1544e-06	1251.2	424.74	2.6878e-05	1.3224e-05	469.95	176.03	157.67	75.842	1.6399e-05	85.13	0.0035494	0.0037989	0.0010433	1250.1	4.0429e-05	4.159e-05	1257.9	426.19	4.0192e-05	4.1903e-05	492.25	180.01	177.42	76.674	4.0759e-05	86.88	313.077	214.979	494.228	149.718	351.287	367.237	147.874	155.001	271.673	368.052	152.220	156.791	160.215	163.897	262.545	159.971	-8191	255	
1621.532	1	1	0	0	0.13497	0.17055	0.095122	0.34709	0.24174	0.23842	0.17502	0.25652	0.22672	0.22167	0.17369	0.17255	0.17867	0.29316	0.26277	0.27984	-1.8146	-2.125	-2.8438	-1.925	-2.3417	-2.6396	-1.8708	-2.9083	-1.9625	-2.0062	-2.8958	-1.8771	-2.3792	-2.6375	-1.6604	-2.8187	481.185	262.853	402.327	400.550	219.786	279.020	147.273	460.623	180.609	306.607	412.011	363.300	419.000	482.867	282.716	361.982	0.0016371	0.00050721	9.6536e-05	1230.7	1.199e-05	6.2823e-06	1253.7	425.23	1.3523e-05	2.3569e-05	475.24	177.17	159.53	76.77	5.6544e-06	86.169	0.0035216	0.0037041	0.0010307	1247.8	3.8732e-05	3.952e-05	1254.6	424.48	3.7136e-05	3.7811e-05	490.4	179.39	174.47	77.004	3.7006e-05	87.501	312.917	243.116	219.270	149.150	383.108	198.103	147.885	154.839	240.296	334.162	152.206	156.788	160.096	164.294	187.469	160.032	-8191	255	
1621.626	1	1	0	0	0.38958	0.26869	0.38941	0.093659	0.12184	0.29293	0.04509	0.016944	0.15187	0.10257	0.17162	0.28932	0.3192	0.083422	0.23924	0.28794	-1.8792	-1.8208	-2.7792	-2.1	-2.25	-2.6188	-1.7875	-2.8042	-2.1979	-2.0062	-2.8479	-2.075	-2.3625	-2.8104	-1.7208	-2.8333	478.891	375.645	446.190	188.050	228.903	279.903	285.161	224.076	462.284	388.366	426.373	435.594	411.254	422.588	184.634	421.311	0.001712	0.00078397	0.00047606	1240.4	6.5391e-06	1.007e-05	1264.1	429.68	1.3321e-05	1.2627e-05	482.38	179.04	160.38	77.696	1.7288e-05	88.527	0.003187	0.0033525	0.00092186	1242.9	3.4701e-05	3.5144e-05	1254.5	425.7	3.2832e-05	3.3312e-05	490.88	179.94	171.62	77.525	3.2104e-05	88.605	313.946	283.510	261.563	149.152	420.057	280.754	147.984	155.103	363.784	225.468	152.514	156.782	160.247	164.273	282.926	160.104	-8191	255	
1621.700	1	1	0	0	0.1608	0.12506	0.24475	0.3933	0.18951	0.1585	0.056428	0.18096	0.12451	0.057348	0.057871	0.29364	0.35398	0.34461	0.25094	0.32678	-1.825	-1.8646	-2.6917	-2.1521	-2.2	-2.6521	-1.9542	-2.7875	-2.2687	-1.7229	-2.7292	-2.1188	-2.1521	-2.7896	-1.6	-2.4062	304.999	415.049	310.942	451.178	271.149	292.742	483.353	445.302	280.020	490.001	260.174	453.866	425.576	487.941	299.226	391.688	0.0017486	0.0021998	0.00035416	1238.9	1.9031e-05	6.2473e-06	1257.7	425.76	7.7078e-06	9.1606e-06	475.78	177.95	157.56	77.814	9.7771e-06	88.419	0.0028179	0.0029552	0.00082593	1233.1	3.2222e-05	3.3494e-05	1245.7	423.38	3.3133e-05	3.4219e-05	487.87	179.21	171.69	77.856	3.3679e-05	88.377	317.307	238.178	294.577	149.152	340.337	305.560	147.841	154.775	285.187	370.586	152.224	156.841	160.199	163.561	218.653	159.687	-8191	255	
1621.818	1	1	0	0	0.11444	0.15205	0.20413	0.17414	0.1958	0.13613	0.28288	0.10802	0.13128	0.1716	0.030601	0.10765	0.22592	0.36526	0.19694	0.13096	-2.0542	-1.6729	-2.7667	-2.1458	-1.9083	-2.7042	-2.2042	-2.3125	-2.4458	-1.7812	-2.7396	-2.2583	-1.8875	-2.8771	-1.9062	-2.3708	273.106	222.457	230.034	142.042	316.799	330.749	415.466	392.734	369.258	457.629	386.691	480.802	495.074	470.036	441.835	140.876	0.001787	0.00030918	0.00027181	1228.6	8.0516e-06	4.1751e-06	1253.9	426.09	1.0867e-05	1.2557e-05	477.48	178.54	159.22	78.683	4.2386e-06	88.522	0.0029515	0.0030989	0.0008641	1224.7	3.3556e-05	3.3742e-05	1241.7	422.55	3.3101e-05	3.3517e-05	487.18	179.69	172.32	78.562	3.3717e-05	89.028	316.223	401.415	162.570	148.633	142.269	303.659	147.406	154.400	327.996	256.818	151.920	156.145	159.743	163.751	293.397	159.426	-8191	255	
1621.915	1	1	0	0	0.12396	0.1001	0.10725	0.24422	0.20539	0.25833	0.1957	0.18819	0.22355	0.22596	0.38417	0.28011	0.24319	0.31195	0.32562	0.067819	-2.1833	-1.7854	-2.6917	-2.4688	-1.7437	-2.6333	-1.9667	-2.1375	-2.7083	-1.6979	-2.6312	-2.3937	-1.7375	-2.8312	-2.1312	-2.3208	219.750	320.328	495.227	448.402	288.299	359.105	413.606	350.803	307.482	340.155	424.645	137.605	352.994	463.494	151.028	159.131	0.0019276	0.0016285	3.9671e-05	1228.2	1.1218e-05	1.5989e-05	1250.5	425.39	1.5142e-05	1.6079e-05	476.97	179.49	159.46	79.143	1.5458e-05	89.716	0.0029707	0.0031048	0.00085239	1227.1	3.287e-05	3.3178e-05	1242.9	423.2	3.1821e-05	3.2157e-05	486.64	180.02	171.06	78.848	3.1666e-05	89.506	315.480	346.044	465.783	148.564	219.549	336.938	147.320	154.399	277.444	339.859	151.542	156.205	159.446	163.615	183.534	159.165	-8191	255	
1622.011	1	1	0	0	0.23157	0.26482	0.3297	0.27246	0.44166	0.099088	0.36568	0.44618	0.11821	0.053952	0.11581	0.25893	0.14782	0.33485	0.24797	0.22153	-2.3271	-1.7938	-2.4333	-2.4292	-1.6708	-2.4208	-2.2917	-2.2896	-2.7687	-1.6688	-2.6125	-2.5708	-1.8667	-2.7687	-2.0333	-1.9312	440.074	175.403	166.534	472.048	236.042	186.246	429.434	398.533	341.273	345.386	164.723	159.309	445.123	472.277	479.745	475.491	0.0018186	0.00060056	0.00013629	1233	6.0127e-06	1.1019e-05	1256.1	426.07	1.9349e-05	1.2717e-05	476.2	179.68	159.53	78.038	3.6996e-06	88.278	0.0028406	0.0029796	0.00083383	1231.8	3.3035e-05	3.4098e-05	1251	425.03	3.4488e-05	3.5058e-05	491.39	180.54	173.33	78.268	3.4548e-05	88.927	312.231	272.616	214.997	148.816	264.841	304.155	147.090	154.377	277.122	402.533	151.481	155.928	159.904	163.838	227.095	159.503	-8191	255	
1622.107	1	1	0	0	0.22135	0.027708	0.051367	0.18328	0.075584	0.0771	0.30226	0.20313	0.17619	0.19929	0.18385	0.28317	0.18829	0.38321	0.29848	0.15471	-2.4083	-1.7208	-2.1583	-2.7313	-1.8292	-2.7146	-2.3917	-2.1312	-2.6771	-1.8188	-2.2958	-2.7479	-1.6104	-2.5479	-2.4125	-2.0167	398.428	261.138	315.892	480.149	202.500	144.038	428.450	451.875	283.826	443.290	442.402	457.743	185.062	413.011	398.893	373.096	0.0019973	0.0011475	0.00054206	1236.6	1.502e-05	1.1377e-05	1251.9	426.39	9.0995e-06	9.7804e-06	472.82	177.32	158.14	77.947	1.9294e-05	88.262	0.0030461	0.0032013	0.00089627	1238.5	3.5231e-05	3.5748e-05	1247.9	425.31	3.491e-05	3.5217e-05	487.13	179.08	172.19	78.266	3.4065e-05	88.733	322.244	151.771	220.702	148.585	206.114	294.839	147.118	154.329	237.715	327.722	151.801	156.392	159.659	163.818	235.844	159.484	-8191	255	
1622.203	1	1	0	0	0.15242	0.20174	0.1196	0.32208	0.031716	0.20391	0.055266	0.27448	0.18225	0.023235	0.19105	0.14794	0.031508	0.22302	0.26844	0.1223	-2.4646	-1.9958	-2.0771	-2.7062	-1.8167	-2.5229	-2.5396	-2.0333	-2.775	-2.0687	-2.2208	-2.8438	-1.7062	-2.5563	-2.3	-2.0104	321.655	184.613	400.320	430.431	323.725	432.423	377.925	431.898	467.012	147.132	399.914	421.709	227.315	488.540	465.785	158.305	0.0019238	0.0024471	0.00018603	1226.2	2.0587e-05	1.1954e-05	1247.4	424.78	2.8731e-05	5.5925e-06	474.22	177.84	156.75	79.102	1.1712e-05	88.79	0.00298	0.0031246	0.00087533	1229.2	3.3719e-05	3.4243e-05	1238.3	423.59	3.3129e-05	3.384e-05	487.54	179.19	171.54	78.879	3.3867e-05	89.059	309.051	162.701	194.668	148.955	328.156	274.955	147.216	154.406	271.697	200.816	151.565	156.113	159.875	163.693	186.152	159.300	-8191	255	
1622.299	1	1	0	0	0.076989	0.041998	0.09749	0.050327	0.26596	0.12893	0.1893	0.077755	0.23754	0.19447	0.069028	0.11599	0.23773	0.37987	0.037678	0.14195	-2.4292	-1.9896	-1.9708	-2.9	-1.8771	-2.3292	-2.675	-1.8646	-2.6104	-2.1708	-2.1583	-2.9708	-1.8417	-2.4979	-2.5	-1.875	334.281	412.380	346.751	470.309	306.375	253.010	464.890	142.302	151.906	171.337	184.859	262.535	162.758	474.525	391.548	435.954	0.0018522	0.00065642	0.00020976	1224.3	9.6532e-06	1.3209e-05	1245	425.74	7.4871e-06	1.252e-05	474.32	179.33	159.78	79.458	1.2688e-05	89.644	0.002955	0.0030933	0.00086728	1226.1	3.3239e-05	3.3841e-05	1241	423.93	3.3414e-05	3.4113e-05	488.33	180.64	172.77	79.738	3.405e-05	90.339	302.742	236.325	235.479	148.952	299.129	431.587	147.617	154.429	315.731	408.095	151.751	156.435	159.536	163.908	329.646	159.515	-8191	255	
1622.395	1	1	0	0	0.1561	0.19447	0.10724	0.28692	0.14319	0.11446	0.31907	0.10889	0.17928	0.087888	0.19815	0.1372	0.18208	0.1425	0.15618	0.27515	-2.3	-2.1271	-1.9708	-2.9396	-1.9417	-2.3146	-2.7812	-1.9854	-2.525	-2.1229	-1.8667	-2.9958	-1.9167	-2.2396	-2.7354	-2	282.105	192.344	339.367	406.931	170.552	142.411	440.475	441.286	382.386	232.242	467.468	400.373	194.663	451.555	334.641	406.028	0.0018207	0.0008465	0.00035096	1228.6	6.1397e-06	8.7313e-06	1253.4	427.45	5.1331e-06	1.2163e-05	480.37	181.18	159.07	80.185	1.6852e-05	90.799	0.0029414	0.0030968	0.00087391	1230.1	3.3403e-05	3.4198e-05	1247.9	426.68	3.3771e-05	3.4951e-05	493.67	182.32	173.48	80.289	3.4823e-05	91.016	307.963	223.768	196.389	149.165	258.290	350.091	147.110	154.425	293.473	240.945	151.996	156.312	159.861	163.833	266.189	159.304	-8191	255	
1622.516	1	1	0	0	0.083952	0.079382	0.22763	0.12477	0.15536	0.28921	0.23968	0.37118	0.032463	0.36514	0.27274	0.013014	0.17853	0.16587	0.29887	0.14947	-2.0729	-2.3292	-1.8312	-2.8167	-1.9562	-2.0938	-2.7208	-1.9104	-2.3875	-2.4083	-2.0521	-2.7375	-2.1354	-2.1208	-2.6833	-2.0021	448.410	338.401	212.660	449.917	448.752	376.661	397.922	462.750	340.582	362.292	428.347	303.676	218.262	445.961	270.444	422.818	0.002027	0.0014059	0.00067806	1225.1	1.0094e-05	3.8549e-06	1248.9	427.09	1.2852e-05	1.3921e-05	476.03	180.01	159.8	79.786	4.4929e-06	89.095	0.0030389	0.0031825	0.00089688	1229.4	3.4032e-05	3.5076e-05	1245.9	425.39	3.3849e-05	3.4489e-05	488.31	180.18	173.22	79.869	3.3657e-05	89.532	308.447	254.230	218.057	148.683	249.348	234.581	147.406	154.644	312.745	235.336	151.832	156.140	160.078	163.786	361.930	159.246	-8191	255	
1622.612	1	1	0	0	0.047257	0.081194	0.19781	0.27094	0.14594	0.22588	0.10262	0.054858	0.055997	0.11587	0.15375	0.34366	0.19358	0.36044	0.19905	0.28795	-1.925	-2.4062	-1.8667	-2.7375	-2.1021	-2.125	-2.9771	-2.0187	-2.1146	-2.4646	-1.8	-2.5479	-2.2271	-2.1229	-2.7188	-2.2667	344.619	401.484	414.184	428.970	367.951	465.586	387.901	174.726	469.991	172.631	240.602	406.557	436.475	448.912	479.789	437.045	0.0019258	0.00055749	0.00068466	1231.5	8.246e-06	1.0394e-05	1247.1	426.41	9.4353e-06	1.1775e-05	476.6	177.87	159.99	79.609	1.4688e-05	88.836	0.0029706	0.0030757	0.00086327	1230.2	3.3105e-05	3.3957e-05	1238.7	424.13	3.303e-05	3.3684e-05	486.89	179.06	171.7	79.381	3.3395e-05	89.031	307.984	252.877	223.778	148.996	299.160	312.427	147.774	154.526	384.335	343.129	151.934	156.433	159.712	163.820	305.442	159.720	-8191	255	
1622.708	1	1	0	0	0.1468	0.25045	0.16461	0.2188	0.10426	0.03531	0.22625	0.33415	0.35856	0.056209	0.13942	0.15692	0.13374	0.33701	0.18276	0.1974	-1.7729	-2.5979	-1.5917	-2.6167	-2.4625	-1.8271	-2.8583	-2.3021	-2.2167	-2.7958	-1.8167	-2.5521	-2.4417	-2.0687	-2.5208	-2.1396	337.752	488.268	397.114	479.832	222.116	305.011	447.670	429.001	203.508	297.412	416.628	433.333	367.910	429.438	483.159	160.751	0.0020762	0.00091496	0.00022052	1235.5	4.9438e-06	1.0373e-05	1251.2	429.23	1.2879e-05	1.0518e-05	479.2	178.76	159.84	80.798	1.9101e-05	90.491	0.0029382	0.003093	0.00085551	1230.2	3.2845e-05	3.3705e-05	1238.8	425.55	3.2438e-05	3.3189e-05	488.26	179.73	172.01	80.439	3.2083e-05	90.689	317.086	274.801	281.421	148.802	137.569	352.192	147.712	154.596	271.600	298.713	151.873	156.748	159.468	163.867	291.943	159.395	-8191	255	
1622.804	1	1	0	0	0.20724	0.12636	0.13558	0.28971	0.11903	0.14918	0.44935	0.24972	0.17497	0.097583	0.26434	0.27377	0.014239	0.27874	0.24281	0.32366	-1.6708	-2.5542	-1.9667	-2.5521	-2.5	-1.8083	-2.8563	-2.2417	-1.8813	-2.6125	-1.9271	-2.4583	-2.5312	-1.9896	-2.5458	-2.4229	298.142	350.118	474.568	470.362	280.109	450.273	459.941	404.401	272.712	178.163	486.800	180.913	404.126	470.847	178.775	394.004	0.0020279	0.0022039	0.00027898	1226.8	1.345e-05	8.5538e-06	1257.9	431.17	1.1211e-05	2.3255e-05	480.98	180.06	160.66	81.549	3.1204e-05	91.156	0.0028114	0.0029246	0.00081558	1223.3	3.1779e-05	3.2657e-05	1245.3	427.57	3.239e-05	3.2698e-05	490.23	180.79	172.19	81.124	3.1558e-05	91.295	305.061	289.090	188.215	148.893	367.795	282.464	147.524	154.256	336.733	262.787	151.866	156.552	159.611	163.966	249.564	159.522	-8191	255	
1622.923	1	1	0	0	0.089708	0.18856	0.067469	0.11932	0.14131	0.24475	0.17244	0.19483	0.10672	0.063432	0.016927	0.24816	0.30196	0.23793	0.083213	0.33007	-1.675	-2.6583	-1.8479	-2.3896	-2.6125	-1.7292	-2.7396	-2.6688	-1.7104	-2.7729	-2.1375	-2.3333	-2.6729	-2.0604	-2.5104	-2.4125	420.174	341.789	199.551	479.034	473.748	145.620	145.342	405.798	163.228	191.291	322.449	427.066	375.010	413.006	488.172	477.556	0.0017301	0.0010295	0.00022458	1222.2	1.2334e-05	5.4683e-06	1253.1	431.82	9.4622e-06	1.6538e-05	479.29	178.17	160.88	81.298	2.5329e-05	90.464	0.0027888	0.0028729	0.00079625	1219.9	3.1376e-05	3.2136e-05	1237	428.36	3.139e-05	3.2283e-05	489.51	179.59	171.76	80.91	3.2211e-05	90.575	302.579	251.159	290.005	149.203	355.229	347.732	147.547	154.320	290.074	318.173	151.725	156.326	159.874	163.950	243.601	159.325	-8191	255	
1622.995	1	1	0	0	0.21569	0.15941	0.3256	0.33815	0.20006	0.2382	0.12452	0.42418	0.14418	0.46188	0.29946	0.080424	0.25052	0.35377	0.22065	0.37519	-1.425	-2.6937	-1.9396	-2.1542	-2.7396	-1.9688	-2.6312	-2.5083	-1.9937	-2.6792	-2.3021	-2.0396	-2.675	-2.1083	-2.3208	-2.5208	451.867	146.096	177.729	453.654	369.720	222.805	474.011	440.815	392.326	345.475	137.748	159.310	397.083	456.766	377.511	413.601	0.0017812	0.0013412	0.00042288	1219.6	8.4784e-06	7.8365e-06	1239.1	433.1	1.1683e-05	7.8666e-06	478.39	178.11	160.59	80.913	2.45e-05	90.343	0.0028377	0.002954	0.00082516	1217.3	3.2144e-05	3.2654e-05	1235.1	429.3	3.2284e-05	3.2915e-05	490.14	179.44	172.38	80.609	3.3137e-05	90.317	312.533	222.546	192.023	149.093	307.819	198.529	147.422	154.261	351.989	332.358	151.370	156.089	159.992	163.619	273.778	159.365	-8191	255	
1623.116	1	1	0	0	0.19394	0.11008	0.24999	0.40148	0.15901	0.11189	0.069824	0.34443	0.07978	0.088294	0.089644	0.079284	0.15255	0.20094	0.1323	0.33816	-1.4083	-2.5417	-2.0938	-2.1646	-2.6896	-1.8771	-2.4	-2.7479	-1.7771	-2.6312	-2.3125	-1.9458	-2.6771	-2.1854	-2.2979	-2.6854	495.857	363.310	439.488	454.942	167.625	423.146	379.632	464.330	186.839	391.568	363.782	388.591	181.179	484.945	144.410	431.475	0.0017036	0.00061088	0.00062253	1225.9	6.3944e-06	1.3166e-05	1246.2	432.68	4.8806e-06	1.4883e-05	476.85	176.02	158.5	78.593	1.1273e-05	87.403	0.0029684	0.0031401	0.00089556	1233.9	3.6136e-05	3.7926e-05	1253.3	433.88	4.0645e-05	4.3069e-05	502.5	182.73	183.53	80.664	5.0665e-05	91.229	315.750	232.532	248.786	148.650	275.571	223.432	147.159	154.233	439.378	276.743	151.499	156.314	159.573	163.618	214.990	159.293	-8191	255	
1623.212	1	1	0	0	0.40237	0.12571	0.23354	0.38959	0.025277	0.26428	0.040445	0.26878	0.4157	0.19599	0.10364	0.20193	0.24382	0.29687	0.18695	0.35634	-1.2667	-2.5875	-2.3083	-1.9792	-2.6063	-1.8625	-2.3479	-2.7938	-1.5187	-2.5187	-2.4313	-1.9292	-2.7417	-2.3396	-2.0542	-2.9813	163.660	455.939	369.154	481.704	426.806	422.245	173.283	483.650	185.498	454.096	468.041	224.596	228.552	480.014	363.096	420.372	0.001728	0.0014854	0.00069527	1242.9	1.5451e-05	1.7217e-05	1265.3	431.99	2.1237e-05	3.9149e-06	477.99	175.46	158.56	76.954	1.9265e-05	85.166	0.0046166	0.0050876	0.0014714	1303.3	5.9779e-05	6.2291e-05	1324.6	452.19	6.5369e-05	6.8561e-05	536.27	191.34	204.17	81.832	7.6129e-05	93.632	304.963	164.036	210.887	148.722	251.192	291.047	147.416	154.156	410.518	228.140	151.443	156.029	159.437	163.557	217.586	159.103	-8191	255	
1623.308	1	1	0	0	0.20809	0.19039	0.26291	0.22327	0.083628	0.066362	0.094433	0.16481	0.18969	0.2072	0.346	0.26777	0.13649	0.26893	0.32207	0.18485	-1.3292	-2.2375	-2.2958	-1.9583	-2.5938	-2.075	-2.2417	-2.85	-1.7604	-2.4562	-2.7313	-2	-2.5271	-2.3438	-1.8229	-2.7521	381.877	274.426	189.660	447.124	267.206	414.755	392.238	444.400	461.966	440.138	353.090	464.617	314.086	431.620	278.073	443.618	0.0013671	0.0004629	0.00022582	1244	1.7878e-05	1.8716e-05	1253.1	430.98	1.5684e-06	3.0142e-05	468.85	172.38	155.8	75.319	1.3784e-05	84.146	0.0067722	0.0074205	0.0021139	1364.6	8.4042e-05	8.6474e-05	1371.8	465.76	8.5868e-05	8.81e-05	554.73	195.46	216.39	82.558	8.9158e-05	94.59	307.828	452.874	464.432	148.600	311.871	354.434	147.185	153.864	493.843	244.666	151.823	156.206	159.995	163.615	304.247	159.258	-8191	255	
1623.404	1	1	0	0	0.06852	0.19769	0.47018	0.23357	0.25344	0.21378	0.36076	0.26933	0.088273	0.24387	0.15793	0.20515	0.15594	0.1206	0.10738	0.11719	-1.3708	-2.2313	-2.5417	-1.8021	-2.5833	-2.2396	-1.9979	-3.0042	-1.9188	-2.1771	-2.7917	-1.8375	-2.5229	-2.5104	-1.7938	-3.0708	353.789	328.725	475.144	406.156	352.960	462.508	452.294	475.549	141.184	460.486	408.395	153.012	202.909	236.777	484.274	446.953	0.0011906	0.00102	0.00071303	1241.3	1.5699e-05	2.3582e-05	1259.5	435.87	5.0356e-06	2.5457e-05	472.75	170.83	155.84	74.893	3.1313e-05	83.63	0.0076483	0.0083313	0.0023437	1382.9	9.1051e-05	9.4451e-05	1397	474.96	9.3751e-05	9.72e-05	570.02	198.08	224.1	83.204	9.9199e-05	95.715	297.770	325.841	238.544	148.584	255.190	210.263	147.276	154.243	467.908	310.884	151.603	156.112	159.142	164.059	191.270	159.434	-8191	255	
1623.525	1	1	0	0	0.18968	0.11864	0.065585	0.21818	0.071738	0.23076	0.19529	0.15385	0.042532	0.18137	0.25716	0.23449	0.16016	0.20446	0.20253	0.31155	-1.7917	-2.1833	-2.5833	-1.9167	-2.6562	-2.3917	-2.0833	-2.8375	-2.0312	-1.8021	-2.7708	-1.9417	-2.4604	-2.7896	-1.7313	-2.7896	431.187	313.205	206.051	493.684	283.446	148.597	460.764	154.207	409.259	370.997	437.687	459.547	457.205	465.517	479.716	414.608	0.0024192	0.0018836	0.0006309	1259.9	1.1654e-05	2.4427e-05	1280.9	439.46	2.0904e-05	5.0195e-05	477.37	169.48	156.52	74.36	1.5127e-05	83.284	0.0085009	0.0093005	0.0025885	1418.7	0.00010114	0.00010417	1436.7	487.05	0.00010308	0.00010616	583.26	200.12	228.05	83.192	0.00010079	95.874	328.179	251.848	350.886	148.769	215.755	275.102	147.166	154.208	231.714	213.094	151.388	156.245	159.226	163.743	403.103	159.386	-8191	255	
1623.596	1	1	0	0	0.18948	0.28402	0.19616	0.30505	0.24809	0.26659	0.38943	0.28542	0.1864	0.27042	0.078947	0.25652	0.22285	0.1491	0.19267	0.10142	-1.6521	-1.9042	-2.5625	-1.9771	-2.2104	-2.4625	-1.8563	-2.8479	-2.1146	-1.8479	-2.7854	-2.0417	-2.2042	-2.6104	-1.6792	-2.6833	222.794	318.306	191.324	482.566	217.978	380.275	432.457	486.090	470.687	179.017	468.056	446.256	153.912	453.749	398.546	451.491	0.001915	0.0018043	0.00052896	1254	8.3128e-06	2.8126e-05	1275.9	434.51	2.0837e-05	1.9718e-05	477.37	172.73	157.87	77.004	1.8492e-05	87.326	0.0083813	0.0089766	0.0024345	1393.2	8.9436e-05	8.9139e-05	1387.9	466.41	7.9864e-05	7.944e-05	544.4	190.66	201.56	81.488	6.4891e-05	92.521	316.658	287.822	256.027	148.326	344.906	390.895	147.182	154.158	207.480	477.302	151.390	156.443	159.516	163.505	392.920	159.384	-8191	255	
1623.693	1	1	0	0	0.10812	0.3486	0.1217	0.28653	0.25762	0.286	0.30995	0.20935	0.08485	0.092828	0.067812	0.25459	0.019223	0.29929	0.2327	0.036665	-1.7542	-1.9188	-2.7229	-2.0396	-2.2042	-2.7354	-1.9438	-2.725	-2.4396	-1.725	-2.7417	-2.1667	-2.2292	-2.825	-1.8729	-2.8479	342.271	469.037	250.184	438.400	263.163	415.937	409.509	455.319	329.888	323.081	484.031	473.660	389.796	456.519	424.555	196.710	0.0020162	0.00077626	0.00036047	1234	1.6323e-05	2.3993e-05	1261.8	428.86	5.1149e-06	1.4514e-05	471.66	174.47	159.32	78.513	1.6606e-05	87.851	0.0053311	0.005575	0.0015292	1297.1	5.8029e-05	5.8991e-05	1307.5	443.58	5.6498e-05	5.7227e-05	514.31	184.48	189.89	80.937	5.3746e-05	91.221	299.625	247.152	190.844	148.656	218.362	317.588	147.274	154.281	272.627	388.237	151.585	156.391	160.157	163.772	171.185	159.478	-8191	255	
1623.789	1	1	0	0	0.26584	0.10416	0.050484	0.18446	0.14682	0.27802	0.23871	0.2635	0.20625	0.1485	0.26297	0.16528	0.083378	0.30633	0.26373	0.24714	-1.9458	-1.7646	-2.8604	-2.2708	-2.0125	-2.6354	-2.0521	-2.375	-2.4146	-1.6	-2.6562	-2.1771	-1.9646	-2.7542	-1.7354	-2.3979	277.837	270.053	384.621	472.560	393.707	315.919	381.426	418.583	165.355	479.727	451.768	367.228	270.116	495.427	445.094	150.674	0.0017716	0.00040417	0.00042142	1225.1	2.0699e-05	1.5455e-05	1244.4	427.8	3.6614e-05	1.1492e-05	476.28	175.33	157.7	78.9	2.8986e-05	88.208	0.0045788	0.0049071	0.0013494	1269.7	5.2292e-05	5.3206e-05	1284.8	438.13	5.1737e-05	5.1992e-05	509.99	183.61	186.47	81.268	5.0288e-05	91.715	305.519	166.275	353.700	148.877	304.123	343.170	147.412	154.628	264.384	160.542	151.853	156.561	160.033	163.998	242.899	159.702	-8191	255	
1623.885	1	1	0	0	0.093474	0.11022	0.23309	0.065737	0.21663	0.10335	0.38037	0.20068	0.10053	0.1045	0.20178	0.2545	0.33419	0.1496	0.31026	0.52992	-2.3229	-1.6688	-2.5687	-2.1417	-1.9604	-2.5563	-1.9125	-2.4083	-2.5583	-1.5271	-2.7625	-2.2812	-1.8479	-2.9021	-1.9188	-2.3042	393.899	342.896	154.919	473.816	138.500	371.306	388.551	447.946	280.395	164.349	447.398	385.761	420.324	143.597	405.257	443.767	0.0020081	0.0012525	0.00029357	1223.8	6.1162e-06	1.2591e-05	1245.8	426.97	2.3547e-05	1.5005e-05	477.07	178.72	158.87	81.044	1.2924e-05	90.785	0.0044331	0.0047159	0.0013087	1263.1	5.0669e-05	5.1327e-05	1282.4	437.15	4.9337e-05	4.9663e-05	509.77	185.87	185.52	82.803	4.7441e-05	93.798	306.206	150.283	329.840	149.027	178.363	203.565	147.338	154.704	309.664	273.846	151.681	156.493	159.919	163.945	265.155	159.857	-8191	255	
1624.004	1	1	0	0	0.13081	0.099727	0.029339	0.21099	0.064967	0.029945	0.040809	0.4024	0.10883	0.047807	0.15714	0.096448	0.16214	0.34902	0.23451	0.20456	-2.2167	-1.7021	-2.6417	-2.2896	-1.5729	-2.6979	-2.0417	-2.1167	-2.5125	-1.7292	-2.4854	-2.4083	-1.8813	-2.8937	-2.0333	-2.3167	161.402	288.717	406.568	432.338	469.283	355.776	459.711	386.258	224.364	395.516	393.899	206.861	411.128	435.432	286.558	377.550	0.0017621	0.00075428	0.00024171	1217	2.018e-05	4.9406e-06	1270	433.7	1.9405e-05	4.7866e-06	485.53	181.67	162.16	82.4	2.4355e-05	91.829	0.0040642	0.0042419	0.0011799	1250.9	4.5605e-05	4.6574e-05	1285.8	439.12	4.5289e-05	4.603e-05	512.21	187.76	185.9	83.808	4.5929e-05	94.395	304.767	185.747	231.184	148.845	324.827	296.657	147.279	154.468	291.332	322.388	152.124	156.265	159.657	164.064	310.079	159.441	-8191	255	
1624.100	1	1	0	0	0.1412	0.052589	0.33081	0.15141	0.10905	0.074408	0.41586	0.18118	0.22097	0.26902	0.37371	0.24115	0.092505	0.24822	0.14635	0.087329	-2.1917	-1.6208	-2.3875	-2.7042	-1.8667	-2.5729	-2.1375	-2.1479	-2.6312	-1.6938	-2.5583	-2.6833	-1.6646	-2.7104	-2.0333	-2.0583	397.283	338.092	233.420	142.971	377.583	444.292	436.642	423.351	192.639	268.780	397.817	138.508	375.676	445.426	305.312	405.436	0.0021322	0.0020032	0.00039323	1227.5	4.8414e-06	1.1928e-05	1254.9	429.76	2.5602e-05	2.4685e-05	475.62	179.41	161.84	81.475	1.7992e-05	90.367	0.0040779	0.0043298	0.0012099	1258.4	4.7187e-05	4.7906e-05	1282.6	437.42	4.7238e-05	4.8371e-05	507.64	186.72	187.22	83.523	4.8722e-05	93.154	311.862	238.852	230.104	148.471	453.808	300.023	147.297	154.564	257.380	316.353	151.999	156.356	159.923	163.957	243.744	159.788	-8191	255	
1624.196	1	1	0	0	0.31477	0.10461	0.11139	0.29416	0.14696	0.10537	0.1515	0.19782	0.31986	0.1911	0.39107	0.38115	0.12414	0.43936	0.13456	0.19634	-2.4146	-1.8333	-2.1542	-2.9625	-1.85	-2.3896	-2.4625	-2.0062	-2.875	-1.8667	-2.3438	-2.6979	-1.9292	-2.6083	-2.2979	-2.1417	324.280	149.491	302.708	438.028	283.251	279.604	431.453	480.961	389.632	471.091	428.767	473.076	454.403	473.234	257.746	437.858	0.0019876	0.0018147	0.00026521	1219.7	4.6727e-05	5.1007e-06	1251.2	426.81	8.8643e-06	1.7566e-05	476.88	179.24	160.48	81.949	1.3651e-05	89.64	0.0042759	0.00455	0.0012782	1256.6	4.856e-05	4.9754e-05	1278.9	435.51	4.7392e-05	4.8736e-05	507.96	186.16	186.97	83.541	4.9084e-05	92.896	318.517	359.811	248.610	148.751	314.328	400.946	147.328	154.577	307.734	249.273	151.891	156.259	159.450	163.947	328.813	159.468	-8191	255	
1624.292	1	1	0	0	0.056698	0.13287	0.17326	0.27495	0.082415	0.05083	0.19166	0.38762	0.17042	0.20332	0.14646	0.19048	0.34271	0.1747	0.032423	0.30557	-2.3583	-1.9854	-2.0583	-2.7896	-1.6396	-2.4208	-2.5625	-1.7708	-2.7188	-2.0854	-2.0771	-2.8542	-1.7938	-2.575	-2.475	-1.9646	235.055	333.008	249.307	462.100	326.681	188.280	467.258	423.136	447.983	329.666	473.061	306.492	189.349	377.593	345.379	415.445	0.0018038	0.00074925	0.00090016	1227.3	1.3449e-05	1.6441e-05	1247.4	425	1.7648e-05	9.7404e-06	473.12	177.81	160.37	81.733	1.4823e-05	89.995	0.0043032	0.0046023	0.0013009	1265.6	5.0547e-05	5.2462e-05	1286.1	436.96	5.1905e-05	5.333e-05	510.83	187.46	189.92	84.121	5.3221e-05	93.879	316.128	374.181	141.780	148.632	297.616	253.450	147.201	154.559	355.558	212.783	152.163	156.065	159.845	163.917	265.046	159.476	-8191	255	
1624.388	1	1	0	0	0.13336	0.19472	0.16174	0.25775	0.2344	0.14847	0.052971	0.13523	0.10617	0.064634	0.073383	0.25322	0.099984	0.40944	0.18754	0.40083	-2.4021	-2.0896	-1.9688	-2.825	-1.8667	-2.2875	-2.6479	-1.8708	-2.5583	-2.0271	-1.9917	-2.9271	-1.8333	-2.3521	-2.5271	-1.9271	208.034	287.537	197.044	448.227	343.323	299.771	440.800	453.440	421.459	448.733	479.372	475.423	289.168	447.475	207.205	377.451	0.002121	0.0016586	0.00044119	1215.6	1.0247e-05	5.385e-06	1258.2	425.45	2.5196e-05	6.0143e-06	475.28	178.37	159.78	81.327	2.4401e-06	89.792	0.0046373	0.0049607	0.0013974	1269.3	5.4748e-05	5.6621e-05	1302.3	438.98	5.6251e-05	5.7564e-05	519.11	189.1	193.26	84.216	5.8012e-05	94.562	313.011	232.886	191.177	149.152	364.707	235.159	147.115	154.601	248.726	464.178	151.811	156.175	159.624	164.095	239.277	159.505	-8191	255	
1624.484	1	1	0	0	0.23743	0.027019	0.19397	0.27232	0.1854	0.17185	0.40722	0.3391	0.060897	0.4033	0.45738	0.21027	0.24303	0.22322	0.20309	0.18285	-2.1896	-2.1167	-1.7479	-2.9146	-1.9479	-2.0812	-2.9417	-1.8104	-2.4	-2.35	-1.9792	-2.7938	-1.9771	-2.3937	-2.4771	-1.9958	421.979	170.054	474.403	487.871	302.353	436.004	404.421	468.637	401.219	261.193	487.136	442.969	474.226	168.562	382.693	441.961	0.0016279	0.0024939	0.00023433	1219.8	3.0678e-05	4.8115e-06	1248.7	423.56	3.3351e-06	2.9704e-05	470.86	176.29	158.35	80.604	1.9546e-05	88.543	0.0050064	0.0053859	0.0015161	1280.8	5.879e-05	6.1003e-05	1304.4	441.55	6.112e-05	6.3266e-05	521.36	189.38	198.14	84.386	6.4478e-05	94.146	308.853	193.495	310.788	149.000	339.529	493.826	147.691	154.641	196.066	309.761	151.785	156.397	159.559	163.828	264.408	159.315	-8191	255	
1624.605	1	1	0	0	0.1444	0.133	0.30521	0.057024	0.044002	0.16491	0.18422	0.10934	0.2462	0.07728	0.22793	0.18147	0.28188	0.35693	0.11928	0.2804	-2.1437	-2.4292	-1.7313	-2.7542	-2.0042	-2.1604	-2.7958	-1.8312	-2.5	-2.6375	-1.8813	-2.6667	-2.1375	-2.0812	-2.6708	-2.0625	339.511	190.839	274.602	438.851	361.773	248.794	359.717	450.837	396.445	181.099	371.077	456.825	167.687	418.082	445.720	491.135	0.0018336	0.00056606	0.0002057	1221.9	2.3315e-05	3.7686e-06	1248.2	421.58	2.8355e-05	8.3125e-06	464.53	175.15	158.85	80.357	1.8931e-05	87.766	0.0056123	0.0060653	0.0016942	1297.7	6.628e-05	6.9151e-05	1317.4	444.87	6.9451e-05	7.2286e-05	530.28	192.56	206.65	85.645	7.5442e-05	95.943	313.642	225.194	171.223	148.773	309.922	329.347	147.280	154.431	316.896	319.808	151.716	156.258	159.481	164.003	284.808	159.301	-8191	255	
1624.699	1	1	0	0	0.21352	0.30839	0.068826	0.09819	0.023342	0.18424	0.17975	0.12548	0.1209	0.2853	0.39354	0.17373	0.16477	0.44967	0.1313	0.11735	-1.9417	-2.6229	-1.6875	-2.6875	-2.0854	-1.9542	-2.9792	-1.9167	-2.1562	-2.6625	-1.8333	-2.7396	-2.2313	-2.025	-2.7188	-2.0875	212.159	456.277	180.068	162.458	398.909	186.939	346.906	490.034	315.983	146.244	472.847	354.280	248.048	491.607	329.653	435.160	0.001698	0.00045078	0.0010086	1224.1	2.2765e-05	3.9986e-06	1253	422.76	2.2027e-06	5.2315e-06	468.09	175.86	158.48	80.511	4.7829e-06	87.769	0.0065249	0.0070272	0.0019753	1324.9	7.6167e-05	7.9199e-05	1344.9	452.23	7.8343e-05	8.0722e-05	542.4	196.24	212.67	86.296	8.1619e-05	96.69	326.810	432.115	300.827	148.830	246.443	242.240	147.479	154.547	410.141	427.639	151.817	156.443	159.553	163.947	246.628	159.213	-8191	255	
1624.796	1	1	0	0	0.15327	0.25777	0.058102	0.10823	0.10869	0.28986	0.19212	0.40982	0.29336	0.078497	0.49003	0.18581	0.10867	0.36026	0.15014	0.40467	-1.7604	-2.6792	-1.6313	-2.6833	-2.3792	-1.925	-2.725	-2.2167	-1.8833	-2.6688	-2.05	-2.4542	-2.4458	-2.1479	-2.7146	-2.1771	287.673	410.230	316.273	465.631	257.687	468.601	370.004	418.767	420.569	276.777	441.897	450.612	408.624	452.976	244.469	454.527	0.0018262	0.001225	0.00065928	1223.4	1.2549e-05	1.686e-05	1245.2	422.79	5.3159e-06	5.9368e-06	469.64	176.45	158.79	81.219	2.5123e-05	88.007	0.0069652	0.0074984	0.0020773	1334	7.8743e-05	7.9556e-05	1343	451.89	7.5329e-05	7.6266e-05	537.62	194.23	206.59	85.841	7.3737e-05	96.131	309.734	412.839	211.506	148.659	279.501	278.074	147.481	154.437	266.810	470.755	151.697	156.614	159.700	164.201	303.022	159.611	-8191	255	
1624.892	1	1	0	0	0.093496	0.13977	0.12696	0.041286	0.071532	0.10562	0.12779	0.29186	0.15755	0.084238	0.017962	0.14697	0.12868	0.12584	0.24752	0.25017	-1.4125	-2.7458	-1.7146	-2.4458	-2.5729	-1.8917	-2.7875	-2.325	-1.9813	-2.7104	-1.7188	-2.6562	-2.4771	-1.85	-2.7875	-2.4938	308.542	229.166	311.005	451.045	167.518	328.099	493.746	481.144	298.695	200.766	452.215	412.928	429.865	410.619	279.984	473.984	0.0016199	0.00070509	0.00044658	1218	1.8633e-05	9.1262e-06	1245.3	422.05	1.3227e-05	2.7341e-05	464.88	174.48	157.91	81.142	2.7348e-05	88.223	0.0063817	0.006809	0.0018969	1314.5	7.2584e-05	7.3587e-05	1325.4	446.34	7.0371e-05	7.1627e-05	527.96	191.2	202.37	85.443	6.9013e-05	95.007	310.502	218.814	375.499	148.935	366.829	343.046	147.609	154.364	272.908	370.532	151.979	156.581	159.598	164.010	208.138	159.350	-8191	255	
#DATA ENDS
