BOXY.EXE: ISS Imagent and Oximeter Data Acquisition Program Version 0.80
Ascii Record File

#ACQ INFORMATION
2  Detector Channels 
16  External MUX Channels 
1  Auxiliary Channels 
5000  Waveform (CCF) Frequency (Hz)
1  Waveforms Skipped 
30  Waveforms Averaged 
1  Cycles Averaged 
16  Acquisitions per Waveform 
10.0806  Updata Rate (Hz) 

#FILE INFORMATION
TRUE -- External MUX Channel results are PARSED.
FALSE -- AC DC and Phase are NOT grouped.
TRUE -- Companion Program Settings File CREATED.
FALSE -- AC data not excluded
FALSE -- DC data not excluded
FALSE -- Phase data not excluded
FALSE -- Auxillary Chn. data not excluded
Tab delimiters

#CALIBRATION STATE
TRUE -- Waveform Calibration Values APPLIED.


#AUX CALIBRATION VALUES
Val Type	aux-1	

Term	1.0000e+00	
Factor	0.0000e+00	


#WF CALIBRATION VALUES
A = Detector Channel
Val Type	A-AC1	A-AC2	A-AC3	A-AC4	A-AC5	A-AC6	A-AC7	A-AC8	A-AC9	A-AC10	A-AC11	A-AC12	A-AC13	A-AC14	A-AC15	A-AC16	A-DC1	A-DC2	A-DC3	A-DC4	A-DC5	A-DC6	A-DC7	A-DC8	A-DC9	A-DC10	A-DC11	A-DC12	A-DC13	A-DC14	A-DC15	A-DC16	A-Ph1	A-Ph2	A-Ph3	A-Ph4	A-Ph5	A-Ph6	A-Ph7	A-Ph8	A-Ph9	A-Ph10	A-Ph11	A-Ph12	A-Ph13	A-Ph14	A-Ph15	A-Ph16	

Term	0.00000e+00	0.00000e+00	0.00000e+00	0.00000e+00	0.00000e+00	0.00000e+00	0.00000e+00	0.00000e+00	0.00000e+00	0.00000e+00	0.00000e+00	0.00000e+00	0.00000e+00	0.00000e+00	0.00000e+00	0.00000e+00	0.00000e+00	0.00000e+00	0.00000e+00	0.00000e+00	0.00000e+00	0.00000e+00	0.00000e+00	0.00000e+00	0.00000e+00	0.00000e+00	0.00000e+00	0.00000e+00	0.00000e+00	0.00000e+00	0.00000e+00	0.00000e+00	0.00000e+00	0.00000e+00	0.00000e+00	0.00000e+00	0.00000e+00	0.00000e+00	0.00000e+00	0.00000e+00	0.00000e+00	0.00000e+00	0.00000e+00	0.00000e+00	0.00000e+00	0.00000e+00	0.00000e+00	0.00000e+00	
Factor	1.00000e+00	1.00000e+00	1.00000e+00	1.00000e+00	1.00000e+00	1.00000e+00	1.00000e+00	1.00000e+00	1.00000e+00	1.00000e+00	1.00000e+00	1.00000e+00	1.00000e+00	1.00000e+00	1.00000e+00	1.00000e+00	1.00000e+00	1.00000e+00	1.00000e+00	1.00000e+00	1.00000e+00	1.00000e+00	1.00000e+00	1.00000e+00	1.00000e+00	1.00000e+00	1.00000e+00	1.00000e+00	1.00000e+00	1.00000e+00	1.00000e+00	1.00000e+00	X	X	X	X	X	X	X	X	X	X	X	X	X	X	X	X	

B = Detector Channel
Val Type	B-AC1	B-AC2	B-AC3	B-AC4	B-AC5	B-AC6	B-AC7	B-AC8	B-AC9	B-AC10	B-AC11	B-AC12	B-AC13	B-AC14	B-AC15	B-AC16	B-DC1	B-DC2	B-DC3	B-DC4	B-DC5	B-DC6	B-DC7	B-DC8	B-DC9	B-DC10	B-DC11	B-DC12	B-DC13	B-DC14	B-DC15	B-DC16	B-Ph1	B-Ph2	B-Ph3	B-Ph4	B-Ph5	B-Ph6	B-Ph7	B-Ph8	B-Ph9	B-Ph10	B-Ph11	B-Ph12	B-Ph13	B-Ph14	B-Ph15	B-Ph16	

Term	0.00000e+00	0.00000e+00	0.00000e+00	0.00000e+00	0.00000e+00	0.00000e+00	0.00000e+00	0.00000e+00	0.00000e+00	0.00000e+00	0.00000e+00	0.00000e+00	0.00000e+00	0.00000e+00	0.00000e+00	0.00000e+00	0.00000e+00	0.00000e+00	0.00000e+00	0.00000e+00	0.00000e+00	0.00000e+00	0.00000e+00	0.00000e+00	0.00000e+00	0.00000e+00	0.00000e+00	0.00000e+00	0.00000e+00	0.00000e+00	0.00000e+00	0.00000e+00	-1.67035e+02	-1.31813e+02	-1.18266e+02	-1.82254e+02	-6.73012e+01	-6.35805e+01	-1.58235e+02	-1.62015e+02	-8.21516e+01	-6.64069e+01	-1.73094e+02	-1.71848e+02	-1.81803e+02	-1.76217e+02	-6.66317e+01	-1.49574e+02	
Factor	2.60193e-05	1.31156e-04	3.55713e-05	1.77363e-01	1.14735e-06	1.42536e-06	1.59092e-01	4.36410e-02	1.28641e-06	1.31667e-06	9.75283e-02	2.78767e-02	2.36486e-02	8.18886e-03	1.35331e-06	1.16072e-02	5.50139e-06	6.60625e-06	1.84189e-06	9.54833e-02	7.04423e-08	7.31455e-08	8.05169e-02	2.35997e-02	6.98754e-08	7.28695e-08	5.07794e-02	1.45466e-02	1.29190e-02	4.45731e-03	7.13134e-08	6.10789e-03	X	X	X	X	X	X	X	X	X	X	X	X	X	X	X	X	



#DISTANCE SETTINGS
A = Detector Channel
A-1	A-2	A-3	A-4	A-5	A-6	A-7	A-8	A-9	A-10	A-11	A-12	A-13	A-14	A-15	A-16	

2.5000e+00	3.0000e+00	2.5000e+00	3.0000e+00	2.0000e+00	3.0000e+00	1.5000e+00	3.0000e+00	3.0000e+00	3.0000e+00	3.0000e+00	3.0000e+00	3.0000e+00	3.0000e+00	1.5000e+00	3.0000e+00	

B = Detector Channel
B-1	B-2	B-3	B-4	B-5	B-6	B-7	B-8	B-9	B-10	B-11	B-12	B-13	B-14	B-15	B-16	

1.0000e+01	1.0000e+01	1.0000e+01	1.4400e+00	1.0000e+01	1.0000e+01	1.5100e+00	1.9400e+00	1.0000e+01	1.0000e+01	1.9900e+00	2.4900e+00	2.4100e+00	2.9000e+00	1.0000e+01	2.9800e+00	




#DATA BEGINS
time	group	step	mark	flag	A-AC1	A-AC2	A-AC3	A-AC4	A-AC5	A-AC6	A-AC7	A-AC8	A-AC9	A-AC10	A-AC11	A-AC12	A-AC13	A-AC14	A-AC15	A-AC16	A-DC1	A-DC2	A-DC3	A-DC4	A-DC5	A-DC6	A-DC7	A-DC8	A-DC9	A-DC10	A-DC11	A-DC12	A-DC13	A-DC14	A-DC15	A-DC16	A-Ph1	A-Ph2	A-Ph3	A-Ph4	A-Ph5	A-Ph6	A-Ph7	A-Ph8	A-Ph9	A-Ph10	A-Ph11	A-Ph12	A-Ph13	A-Ph14	A-Ph15	A-Ph16	B-AC1	B-AC2	B-AC3	B-AC4	B-AC5	B-AC6	B-AC7	B-AC8	B-AC9	B-AC10	B-AC11	B-AC12	B-AC13	B-AC14	B-AC15	B-AC16	B-DC1	B-DC2	B-DC3	B-DC4	B-DC5	B-DC6	B-DC7	B-DC8	B-DC9	B-DC10	B-DC11	B-DC12	B-DC13	B-DC14	B-DC15	B-DC16	B-Ph1	B-Ph2	B-Ph3	B-Ph4	B-Ph5	B-Ph6	B-Ph7	B-Ph8	B-Ph9	B-Ph10	B-Ph11	B-Ph12	B-Ph13	B-Ph14	B-Ph15	B-Ph16	aux-1	digaux	

5173.606	1	1	0	768	0.25381	0.2565	0.31526	0.16327	0.24296	0.078909	0.16432	0.095614	0.098284	0.18004	0.038469	0.38836	0.18853	0.11777	0.032054	0.36897	-2.075	-1.6521	-2.0271	-2.3229	-1.6333	-2.3167	-2.0125	-1.7458	-2.5625	-1.5729	-2.1292	-2.4313	-1.5	-2.2313	-2.0208	-1.6979	305.236	48.728	18.089	248.537	70.321	18.063	350.848	315.420	129.052	258.878	271.057	320.322	349.073	231.859	55.956	310.802	0.00088936	0.002192	0.00019383	630.7	1.8259e-05	2.9061e-06	1247.9	122.14	6.3532e-06	1.4341e-05	407.52	140.24	30.824	10.922	8.7625e-06	61.377	0.0090097	0.010745	0.0029548	673.94	0.00011483	0.00011711	1159.4	137.96	0.00011335	0.00011819	416.65	140.08	46.528	16.132	0.00011935	60.97	132.373	115.181	2.698	8.938	158.685	49.096	10.036	13.149	52.029	9.867	13.324	18.696	18.361	22.963	342.082	22.278	-8191	255	
5173.703	1	1	0	0	0.19028	0.17476	0.21097	0.22181	0.17391	0.22813	0.1724	0.070795	0.27796	0.27044	0.3078	0.066682	0.26727	0.033975	0.072217	0.3054	-1.9854	-1.7563	-1.8958	-2.2375	-1.5083	-2.0687	-2.2167	-1.6375	-2.4583	-1.6479	-2.1167	-2.45	-1.6917	-2.1271	-2.1	-1.5938	232.734	285.945	300.700	26.162	70.972	148.097	24.410	3.848	182.390	194.449	17.021	292.377	25.951	91.536	46.144	288.829	0.0004075	0.0010927	0.00040581	635.59	3.0474e-05	4.454e-05	1253.1	121.31	3.3687e-05	2.5595e-05	412.99	139.34	30.753	10.894	2.6463e-05	61.889	0.0091306	0.011104	0.0030482	684.41	0.00011797	0.00012169	1170.7	139.24	0.00011631	0.00012276	421.21	140.76	46.863	16.287	0.00012153	61.537	54.870	290.909	338.486	9.023	111.644	185.264	9.972	14.265	146.737	117.183	13.518	18.304	18.141	23.468	95.427	22.310	-8191	255	
5173.799	1	1	0	0	0.10628	0.12802	0.24086	0.12432	0.16941	0.19279	0.25144	0.15036	0.17212	0.10052	0.010605	0.11884	0.12944	0.47824	0.15756	0.30807	-2.1521	-1.6854	-1.7687	-2.3646	-1.4937	-1.9979	-2.3979	-1.8312	-2.3708	-1.7979	-1.7687	-2.4729	-1.6187	-2.1104	-2.2438	-1.6063	232.355	9.661	67.663	326.469	18.908	62.398	324.365	194.875	231.077	222.357	72.233	252.304	58.673	325.570	192.826	345.016	0.00043876	0.0018955	0.00032921	635.01	3.1635e-05	2.445e-05	1246.5	121.22	1.5362e-05	1.9156e-05	409.51	141.15	31.547	10.723	6.5275e-06	62.352	0.0092132	0.011167	0.0030492	680.19	0.00011464	0.00011881	1158.5	137.54	0.00011169	0.00011849	417.2	139.87	46.157	15.865	0.00011245	60.858	62.381	151.370	178.503	8.637	243.918	347.269	9.953	13.896	256.772	145.739	13.448	18.483	18.127	23.568	153.592	21.786	-8191	255	
5173.895	1	1	0	0	0.30729	0.21736	0.11856	0.24163	0.22263	0.21546	0.40801	0.091762	0.25434	0.10066	0.16029	0.32359	0.14259	0.25121	0.15251	0.30614	-1.9021	-2.0062	-1.5917	-2.3708	-1.6917	-1.9979	-2.3854	-1.3813	-2.0938	-2.0125	-1.7854	-2.4146	-1.725	-1.7563	-2.5312	-1.8083	263.712	47.351	209.782	5.043	156.248	290.858	299.395	335.089	132.371	39.761	20.315	104.200	271.025	198.875	211.110	310.195	0.00054451	0.0032306	0.00061666	635.19	2.3075e-05	1.2812e-05	1249.7	122.38	2.1891e-05	3.6643e-05	411.23	141.12	31.381	10.903	1.2841e-05	61.958	0.0085451	0.010349	0.0028532	667.04	0.00010893	0.00011357	1155.9	135.83	0.00010719	0.00011428	415.91	138.8	45.565	15.838	0.00011018	60.639	83.423	105.959	115.057	9.360	250.250	348.398	10.253	13.706	97.154	143.325	14.149	18.048	18.849	23.173	76.971	21.681	-8191	255	
5173.991	1	1	0	0	0.23844	0.19053	0.3149	0.060162	0.19742	0.057638	0.10721	0.0543	0.20658	0.048382	0.32547	0.13054	0.059166	0.035636	0.40548	0.32882	-1.8771	-2.0062	-1.5729	-2.4562	-1.6063	-1.7042	-2.3937	-1.5375	-2.2083	-2.0667	-1.5438	-2.5187	-1.9417	-1.7125	-2.3333	-1.5604	122.807	107.262	279.215	301.017	334.390	317.249	12.858	224.168	114.457	243.050	348.873	33.936	1.436	315.800	19.581	326.691	0.0007991	0.0022024	0.0005145	636.95	1.2111e-05	1.6277e-05	1242.6	121.25	1.8796e-05	6.5056e-06	416.1	141.77	30.399	10.855	3.2298e-05	62.865	0.0083598	0.010057	0.0028049	661.31	0.00010619	0.00010794	1146.3	134.55	0.00010259	0.00010969	415.14	138.42	44.668	15.544	0.00010578	60.827	95.541	345.098	88.395	9.758	169.501	98.840	9.542	13.484	332.291	240.200	14.140	18.369	19.000	22.319	327.278	22.043	-8191	255	
5174.087	1	1	0	0	0.10012	0.14508	0.23212	0.0031396	0.15922	0.26797	0.17	0.12625	0.24955	0.15313	0.1905	0.16013	0.15998	0.50385	0.061121	0.21177	-1.7104	-2.1646	-1.5167	-2.4417	-1.8062	-1.725	-2.4875	-1.4521	-1.9729	-2.2146	-1.5021	-2.3979	-1.8417	-1.5271	-2.3063	-1.6917	32.980	245.415	15.078	297.024	3.506	14.616	302.955	289.622	21.382	133.371	321.949	350.568	181.386	17.925	235.220	237.508	0.00025679	0.00084682	0.00034535	637.32	1.4462e-05	2.4929e-05	1256.7	123.1	1.5406e-05	2.1145e-05	414.58	144.3	31.807	11.021	1.3679e-05	63.084	0.0080343	0.0097654	0.0026857	660.41	0.00010363	0.00010687	1150.9	134.92	9.9748e-05	0.00010505	413.67	139.51	44.599	15.537	0.00010048	61.398	106.134	40.070	297.375	8.907	152.839	171.841	10.082	13.350	125.277	134.506	14.039	18.273	18.379	22.450	116.627	22.493	-8191	255	
5174.208	1	1	0	0	0.14124	0.27223	0.14896	0.088651	0.23456	0.085593	0.16091	0.24768	0.17271	0.22614	0.13571	0.071506	0.14601	0.32789	0.33169	0.18145	-1.7062	-2.2021	-1.2292	-2.2333	-2.0625	-1.5542	-2.5563	-1.8792	-1.9521	-2.3458	-1.5042	-2.1583	-2.0333	-1.5479	-2.4708	-1.7188	282.955	9.352	189.590	21.232	152.768	225.159	290.425	5.224	274.909	46.415	279.877	237.330	185.454	275.220	248.489	345.735	0.0004774	0.0016609	0.00021459	639.96	5.5322e-07	3.7157e-05	1262.2	124.18	1.7231e-05	1.3247e-05	415.68	144.85	31.658	11.329	3.8132e-05	63.317	0.0078439	0.0095264	0.0026173	656.22	0.00010042	0.00010337	1153.1	135.45	9.7799e-05	0.00010299	413.87	139.93	44.271	15.504	9.8811e-05	61.507	140.480	107.197	48.120	9.499	132.476	222.242	9.610	14.183	237.913	316.676	13.689	18.143	18.307	23.182	346.675	21.833	-8191	255	
5174.304	1	1	0	0	0.25298	0.17458	0.076372	0.14224	0.35394	0.15507	0.22337	0.15815	0.11765	0.23987	0.061811	0.28711	0.23071	0.19084	0.21009	0.098427	-1.4667	-2.2917	-1.6458	-2.2208	-2.225	-1.6354	-2.5792	-1.8146	-1.8646	-2.5854	-1.6083	-2.0417	-2.1917	-1.5042	-2.1729	-1.9312	253.091	179.577	147.417	346.823	98.164	109.965	267.625	272.830	253.389	153.896	294.115	248.898	28.277	203.053	66.979	305.693	0.00036389	0.0010062	0.00042019	643.51	7.3443e-06	1.514e-05	1265.5	123.28	1.5398e-05	2.4138e-05	415.09	145.57	31.788	11.16	3.9001e-06	64.252	0.0077314	0.0093531	0.002579	659.29	0.00010006	0.00010223	1153.4	135.03	9.689e-05	0.00010121	412.8	139.67	43.759	15.388	9.6489e-05	61.447	111.244	98.118	220.842	9.118	247.226	29.886	10.144	14.003	113.057	16.335	13.712	18.978	16.996	23.233	11.785	22.052	-8191	255	
5174.400	1	1	0	0	0.19311	0.34881	0.18435	0.17644	0.20433	0.10955	0.35278	0.093024	0.16411	0.068664	0.35567	0.2195	0.14562	0.15695	0.13778	0.10918	-1.1354	-2.4167	-1.4479	-2.0854	-2.1521	-1.3417	-2.2687	-2.025	-1.5042	-2.4708	-1.5396	-1.9458	-2.225	-1.7208	-2.2188	-2.0875	79.386	155.222	220.302	236.047	295.045	169.102	-1.459	36.537	236.671	1.998	15.581	236.042	11.455	68.098	111.423	174.057	0.000408	0.0015268	0.00042525	636.82	5.3508e-06	1.0201e-05	1255.4	122.11	2.0758e-05	1.9003e-05	419.98	145.13	32.203	11.385	1.2499e-05	63.469	0.0075071	0.008851	0.002472	649.06	9.3588e-05	9.4893e-05	1136.2	132.31	9.0351e-05	9.3276e-05	409.3	138.52	43.257	15.147	9.1608e-05	60.979	66.569	95.737	87.540	9.176	32.893	295.061	10.061	13.447	159.195	119.881	13.921	18.328	19.637	22.742	191.295	21.884	-8191	255	
5174.496	1	1	0	0	0.043967	0.18796	0.35441	0.20478	0.04354	0.16616	0.11048	0.22428	0.12827	0.33369	0.2542	0.24771	0.14633	0.35723	0.083487	0.3799	-1.1792	-2.1854	-1.6583	-1.6646	-2.2333	-1.4875	-2.4875	-2.0354	-1.3937	-2.2854	-1.825	-1.6542	-2.3104	-1.4479	-2.1042	-2.0583	73.736	341.397	341.239	316.641	197.090	168.640	32.194	343.803	146.679	33.118	18.468	210.748	102.228	113.221	25.881	302.211	0.00070918	0.00084684	0.0005592	631.99	2.8273e-06	2.9405e-05	1262.7	122.81	3.9955e-06	1.6378e-05	416.65	145.03	31.907	11.327	7.0039e-06	63.943	0.0072948	0.0085743	0.0024362	643.25	9.3692e-05	9.6753e-05	1142.5	133.31	9.1972e-05	9.5419e-05	413.31	139.64	43.483	15.345	9.4202e-05	61.804	46.986	97.697	148.410	9.230	19.342	184.944	10.112	14.505	41.184	168.004	14.091	18.463	18.356	22.655	317.232	22.142	-8191	255	
5174.591	1	1	0	0	0.12677	0.19295	0.38739	0.18922	0.13463	0.1845	0.29139	0.12638	0.26875	0.19815	0.19396	0.10274	0.19663	0.077781	0.20152	0.33505	-0.80417	-2.0812	-1.7875	-1.6146	-2.2208	-1.5104	-1.9625	-2.1917	-1.3625	-2.2042	-1.8687	-1.65	-2.3688	-1.5542	-1.8687	-2.45	76.873	182.220	28.681	260.780	162.135	88.129	340.373	300.055	69.924	245.679	230.878	-1.208	12.513	222.419	306.794	278.425	0.00026254	0.0013098	0.00037469	647.03	5.9467e-06	2.096e-06	1269.7	125.49	2.1323e-05	1.2116e-05	419.84	145.93	31.881	11.403	1.819e-05	64.524	0.0073807	0.0088203	0.0025107	657.74	9.4806e-05	9.875e-05	1156.2	135.36	9.326e-05	9.7174e-05	414.24	140.47	43.713	15.44	9.6043e-05	61.806	71.028	97.198	72.397	9.299	314.246	259.773	10.456	14.512	134.640	222.728	13.555	19.023	18.743	23.132	92.380	22.202	-8191	255	
5174.687	1	1	0	0	0.22929	0.30388	0.10023	0.20145	0.2542	0.22378	0.18859	0.020337	0.18722	0.14883	0.31711	0.19657	0.092763	0.27766	0.17135	0.1944	-1.0104	-2.2854	-1.9312	-1.3771	-2.0917	-1.5292	-1.9979	-2.4146	-1.4354	-2.1021	-2.1792	-1.5271	-2.2917	-1.8146	-1.8	-2.3542	315.331	55.313	140.894	304.375	64.068	239.233	234.063	16.782	46.929	45.971	269.655	342.017	238.928	172.007	37.558	303.324	0.00049386	0.0010621	0.00058878	650.71	1.333e-05	1.7856e-05	1273.8	124.36	3.3774e-06	1.5597e-05	416.6	145.14	31.831	10.951	1.8514e-05	63.997	0.0075951	0.0088014	0.0025371	661.9	9.5721e-05	0.00010066	1157.1	134.94	9.7074e-05	9.9018e-05	413.24	139.74	43.948	15.428	9.8645e-05	61.341	81.032	240.888	96.253	9.433	154.323	314.080	10.303	14.042	185.866	182.139	14.045	18.973	18.847	23.511	246.211	22.280	-8191	255	
5174.807	1	1	0	0	0.12406	0.019566	0.066717	0.20336	0.15429	0.32457	0.033474	0.37382	0.12373	0.086228	0.26105	0.14465	0.15981	0.022624	0.04651	0.063356	-1.1542	-2.3167	-2.2625	-1.3896	-2.3063	-1.7229	-1.8687	-2.3521	-1.6354	-2.1813	-2.1292	-1.2896	-2.3146	-1.8333	-1.5292	-2.3292	302.359	109.012	144.631	10.579	320.921	266.711	304.702	227.482	327.074	4.075	68.633	175.642	327.723	260.709	224.112	27.074	0.00020148	0.0012805	0.0006325	652.2	1.7685e-05	3.3609e-05	1266.3	124.62	1.741e-05	1.4927e-05	416.14	143.19	32.19	11.354	3.0907e-06	63.737	0.0076249	0.009046	0.0025934	661.79	9.5677e-05	9.9636e-05	1153.1	134.49	9.667e-05	0.00010049	413.82	138.9	43.845	15.573	9.9595e-05	61.285	182.359	304.974	65.896	9.093	150.395	173.754	10.334	13.773	268.643	33.078	14.142	18.862	20.226	23.528	212.101	22.075	-8191	255	
5174.904	1	1	0	0	0.092666	0.12103	0.09208	0.14475	0.31463	0.33255	0.14772	0.11597	0.052702	0.12283	0.11695	0.17031	0.29624	0.15855	0.10889	0.1971	-1.0125	-1.9521	-1.9292	-1.3833	-2.0083	-1.7917	-1.8583	-2.4437	-1.4792	-1.7021	-2.3479	-1.2938	-2.1083	-1.8833	-1.4042	-2.2458	201.225	109.671	193.034	339.409	221.140	92.231	330.245	297.207	153.602	285.304	317.105	295.807	216.925	219.866	2.619	308.679	0.00028664	0.0018336	0.00010725	649.25	1.5323e-05	2.7211e-05	1268.6	125.22	1.5408e-05	2.204e-05	418.33	143.83	31.936	11.143	4.3808e-05	63.852	0.0078432	0.0093399	0.002673	669.05	9.9652e-05	0.00010693	1161.7	136.58	0.00010119	0.00010529	417.06	139.52	44.479	15.672	0.00010356	61.329	92.781	314.902	330.764	9.337	8.944	300.483	10.339	13.052	67.454	23.957	14.060	18.691	20.686	21.746	107.677	22.452	-8191	255	
5175.000	1	1	0	0	0.24852	0.075246	0.2826	0.1542	0.34637	0.16388	0.13571	0.1169	0.097923	0.082549	0.18176	0.31442	0.42057	0.22687	0.015268	0.1833	-1.2792	-1.8854	-2.2542	-1.6292	-2.0375	-1.9458	-1.5938	-2.1958	-1.5396	-1.6417	-2.3812	-1.5854	-2.1708	-1.8937	-1.3438	-2.3708	46.932	263.711	306.002	284.703	326.533	79.896	197.631	-0.817	83.493	80.841	259.031	19.344	281.926	210.028	79.995	249.275	0.0004654	0.001501	0.00039166	661.03	7.3444e-06	9.2892e-06	1280.9	125.05	2.7146e-05	3.4226e-05	416.46	143.2	31.352	11.003	1.418e-05	63.29	0.0080175	0.0095305	0.0026768	673.71	9.9204e-05	0.00010631	1170.2	136.71	0.00010241	0.00010407	416.42	139.37	44.216	15.696	0.00010259	61.29	78.469	73.697	128.531	9.087	79.064	336.127	10.033	13.347	209.764	182.869	13.786	18.250	19.363	22.518	293.251	22.562	-8191	255	
5175.096	1	1	0	0	0.44436	0.13906	0.073753	0.10196	0.1215	0.12429	0.25734	0.12138	0.045305	0.093657	0.094912	0.16764	0.24578	0.23243	0.1774	0.13221	-1.2708	-1.6083	-2.2687	-1.5146	-2.0146	-1.9979	-1.6688	-2.1167	-1.8083	-1.6542	-2.3146	-1.4583	-1.8896	-2.2896	-1.4438	-2.3333	217.187	331.902	228.473	80.549	57.649	176.978	319.585	261.043	30.778	29.051	-3.663	273.640	123.074	96.919	32.317	8.793	0.00068271	0.0031607	0.00069679	655.7	1.1835e-05	1.4243e-05	1275	124.89	2.5671e-05	7.9338e-06	415.31	141.97	30.677	11.222	1.6839e-05	63.106	0.0080868	0.009461	0.0026572	673.88	0.00010075	0.00010593	1168.5	136.54	0.00010301	0.00010795	416.49	139.22	44.343	15.774	0.0001054	61.306	73.741	127.289	337.530	9.274	195.016	144.173	10.292	13.105	103.753	102.807	14.295	18.770	19.023	21.567	49.137	22.428	-8191	255	
5175.168	1	1	0	0	0.18777	0.17835	0.19796	0.23153	0.17904	0.11401	0.26965	0.25454	0.35208	0.15539	0.090144	0.30826	0.40508	0.27067	0.24523	0.046705	-1.575	-1.4042	-2.3104	-1.7479	-1.7437	-2.0833	-1.6083	-2.0875	-2	-1.5417	-2.5021	-1.8021	-1.8333	-2.3604	-1.3167	-2.3396	159.730	242.718	306.388	134.736	187.030	76.854	262.874	350.763	266.099	179.138	225.689	298.566	354.673	20.805	273.164	39.865	0.00063986	0.0013818	0.00031141	665.45	2.3702e-05	1.3692e-05	1279.4	124.8	1.862e-05	1.2608e-05	417.54	142.66	31.897	11.179	1.6235e-05	63.585	0.0081295	0.009603	0.0026736	680.6	0.00010205	0.00010719	1171.9	137.1	0.00010226	0.00010706	418.21	140.1	44.92	15.847	0.00010531	61.518	88.458	189.998	340.507	9.405	200.624	256.870	10.361	13.659	232.138	196.717	13.940	18.182	18.742	22.510	143.789	22.698	-8191	255	
5175.288	1	1	0	0	0.037755	0.20324	0.28577	0.26546	0.21036	0.13249	0.21865	0.18493	0.20697	0.035479	0.21701	0.23719	0.29747	0.30149	0.24445	0.16769	-1.7583	-1.2188	-2.4104	-1.7396	-1.6	-2.2729	-1.6708	-2.1333	-1.8438	-1.4625	-2.3812	-1.6646	-1.5625	-2.1583	-1.5417	-2.1792	231.391	339.919	299.945	270.592	85.716	219.911	340.846	0.663	190.669	276.089	318.016	342.342	12.601	3.498	41.431	34.271	0.00053797	0.0020225	0.00049656	663.5	1.7972e-05	1.6311e-05	1280.4	124.87	2.1736e-05	2.4712e-05	416.27	141.33	31.628	11.095	6.9569e-06	62.939	0.0083695	0.0098177	0.002743	686.76	0.00010806	0.00011465	1182.8	140.06	0.00011182	0.00011858	425.12	141.75	47.075	16.556	0.00012144	62.263	95.555	170.167	210.962	9.200	245.558	233.579	10.372	14.057	213.502	15.575	13.816	18.751	17.845	21.645	219.041	22.473	-8191	255	
5175.384	1	1	0	0	0.023653	0.23058	0.18327	0.26479	0.35975	0.16709	0.28706	0.11565	0.13033	0.12556	0.13096	0.29413	0.046114	0.11619	0.2142	0.015268	-1.6083	-1.2979	-2.0812	-1.7896	-1.4125	-2.1604	-1.4438	-2.0083	-1.9896	-1.3	-2.1292	-1.9771	-1.5083	-2.0875	-1.5812	-1.8958	162.567	38.722	127.579	347.358	312.554	95.104	297.834	15.876	106.874	177.947	119.243	321.369	175.624	46.286	272.251	184.637	0.00083081	0.0026451	0.00060461	673.05	1.8534e-05	2.6059e-05	1296.4	125.68	1.4864e-05	2.6079e-05	418.69	140.93	30.72	10.888	1.8157e-05	62.641	0.0095631	0.011377	0.0031263	714.14	0.00012173	0.00012716	1204.1	144.2	0.00012398	0.00012943	433.14	143.88	48.93	16.99	0.00012963	62.806	77.647	213.064	285.172	9.476	179.058	20.455	10.345	14.994	64.608	132.538	13.964	18.054	18.490	22.955	72.401	23.107	-8191	255	
5175.480	1	1	0	0	0.077818	0.32401	0.13528	0.092607	0.30038	0.23682	0.21868	0.12158	0.1365	0.32707	0.23837	0.51619	0.24824	0.12278	0.20557	0.30335	-1.75	-1.5125	-2.2583	-2.0458	-1.4458	-2.3937	-1.6146	-1.9458	-2.1312	-1.4438	-2.3042	-2.175	-1.4	-2.2646	-1.6271	-1.7313	257.700	60.911	95.726	48.549	124.156	243.992	352.336	125.769	241.934	69.213	90.997	351.914	257.691	223.465	168.104	345.496	0.00054699	0.0018358	7.9147e-05	659.48	1.9617e-05	1.2774e-05	1277.4	123.18	1.3533e-05	4.9778e-06	411.41	141.32	31.061	10.837	1.8549e-05	61.779	0.010102	0.011838	0.0032716	712.66	0.00012796	0.00013224	1194.6	143.91	0.0001272	0.00013098	427.65	142.63	48.549	16.904	0.00012769	62.026	86.845	60.653	126.723	9.184	283.778	222.135	10.724	14.147	100.541	112.820	14.060	18.624	18.835	22.267	116.606	22.677	-8191	255	
5175.599	1	1	0	0	0.041541	0.1987	0.16381	0.02745	0.15888	0.22898	0.30157	0.16749	0.15399	0.42669	0.20939	0.074314	0.20947	0.14733	0.22582	0.42883	-1.8917	-1.4292	-1.9146	-1.9958	-1.4438	-2.2229	-1.8917	-1.6583	-2.3292	-1.2812	-1.7917	-2.1083	-1.5708	-2.1521	-1.7708	-1.7042	224.960	116.260	230.756	338.615	114.820	44.801	326.527	194.564	320.613	82.094	355.828	99.072	14.038	57.003	35.656	276.664	0.00036288	0.0018063	0.00069548	646.46	1.9104e-05	1.8565e-05	1275.8	121.76	1.1806e-05	4.728e-06	406.19	140.36	30.424	11.003	8.6224e-06	61.849	0.0098624	0.011576	0.0031868	698.21	0.0001225	0.00012387	1180.8	140.67	0.00011727	0.00012127	418.23	139.83	45.875	15.947	0.0001132	61.076	33.861	125.562	-2.752	9.564	239.745	271.489	10.040	14.345	27.566	202.986	14.835	18.222	18.440	21.451	324.951	23.073	-8191	255	
5175.695	1	1	0	0	0.23225	0.30519	0.1667	0.054724	0.15977	0.21161	0.24214	0.086933	0.081468	0.14448	0.34786	0.16104	0.086816	0.13494	0.17238	0.10597	-2.0167	-1.4729	-1.9813	-2.3625	-1.3833	-2.0375	-2.2229	-1.6542	-2.4417	-1.7104	-1.9792	-2.2292	-1.3271	-2.3104	-1.9479	-1.5583	21.359	301.045	167.662	141.620	351.619	254.144	15.044	151.315	14.060	38.961	337.454	240.435	25.622	324.407	296.162	201.074	0.00015217	0.0020847	7.2934e-05	643.6	1.1371e-05	2.3255e-05	1254	121.2	1.7119e-05	2.7706e-05	416.32	141.78	30.89	11.274	2.0106e-05	62.724	0.0085028	0.0099971	0.0027855	670.79	0.00010538	0.00010844	1158.3	135.59	0.00010312	0.0001076	416.04	139.06	44.673	15.697	0.00010756	61.105	53.959	153.236	259.904	9.281	150.443	310.265	10.433	13.521	210.704	143.820	14.219	18.231	19.029	23.465	80.594	21.905	-8191	255	
5175.769	1	1	0	0	0.26784	0.073019	0.19942	0.1948	0.148	0.077919	0.57826	0.0074133	0.10934	0.13007	0.099699	0.20841	0.08831	0.21003	0.027616	0.243	-1.7542	-1.6125	-1.5292	-2.3667	-1.4146	-2.0625	-2.075	-1.4562	-2.3063	-1.7458	-1.6437	-2.3354	-1.5896	-2.1479	-1.975	-1.4875	151.645	257.474	-0.361	280.551	96.636	57.944	295.805	94.386	236.204	119.068	86.928	303.904	111.553	19.806	321.000	275.194	0.00063302	0.0016721	0.00043179	649.26	7.6934e-06	5.7685e-06	1265.7	123.18	2.9659e-05	1.0186e-05	414.16	142.86	30.741	10.949	1.9469e-06	62.302	0.0081632	0.010048	0.0027784	677.54	0.00010803	0.00011126	1170.4	138.33	0.00010965	0.00011736	422.64	142.04	46.777	16.28	0.00011834	61.894	72.091	0.248	66.088	9.332	267.310	246.377	9.743	14.208	134.030	51.317	14.423	18.779	17.864	23.493	259.221	22.701	-8191	255	
5175.888	1	1	0	0	0.24074	0.21766	0.26671	0.25907	0.20871	0.17144	0.26216	0.23014	0.028807	0.10527	0.17785	0.2796	0.13773	0.096771	0.13948	0.21727	-1.8229	-1.9688	-1.725	-2.6437	-1.4813	-1.8438	-2.2521	-1.6896	-2.2417	-1.9979	-1.7	-2.4958	-1.5438	-1.9104	-2.2062	-1.7313	221.439	278.449	234.939	18.924	4.555	176.665	269.970	259.547	272.570	330.871	277.219	341.209	131.321	319.288	117.901	239.450	0.00081871	0.0030568	0.00090295	652.9	1.5578e-05	3.1078e-05	1270.6	123.81	1.2368e-05	1.9443e-05	411.71	141.86	31.484	11.267	2.3861e-05	62.035	0.0089851	0.010903	0.0030204	689.5	0.0001146	0.00011722	1178.2	139.19	0.00011063	0.00011938	419.67	139.96	45.802	16.084	0.00011329	61.082	77.335	75.148	70.678	9.635	18.642	58.371	10.248	14.083	153.766	259.075	14.306	18.436	19.466	22.733	55.143	22.363	-8191	255	
5175.984	1	1	0	0	0.13616	0.18494	0.10791	0.060779	0.12747	0.31042	0.1243	0.32748	0.11153	0.21457	0.24699	0.15993	0.15666	0.1155	0.15414	0.18543	-1.8042	-1.8833	-1.6271	-2.4604	-1.6833	-1.95	-2.5375	-1.5979	-2.0354	-2.3271	-1.5438	-2.275	-1.7333	-1.6979	-2.3583	-1.7708	291.274	100.017	159.296	272.572	20.933	-1.526	308.899	295.876	119.687	67.620	345.476	31.306	170.385	202.212	86.991	298.117	0.00012217	0.0015415	0.0005179	647.77	1.7026e-05	3.1991e-05	1263	120.92	9.5927e-06	4.4888e-05	412.97	140.61	31.336	10.683	1.6921e-05	62.306	0.0084919	0.010353	0.0028166	669.47	0.00010601	0.00010894	1155.1	134.93	0.0001029	0.00011002	413.15	137.89	44.802	15.546	0.00010496	60.68	141.506	30.899	134.668	8.818	77.600	194.672	10.252	13.877	300.080	143.087	14.460	18.799	18.977	21.423	62.934	22.735	-8191	255	
5176.080	1	1	0	0	0.23884	0.19733	0.11135	0.26515	0.30176	0.096865	0.36846	0.16017	0.23839	0.13227	0.17538	0.36442	0.1186	0.23309	0.15017	0.41751	-1.7271	-2.0938	-1.3312	-2.3021	-1.8708	-1.7396	-2.5875	-1.5979	-1.9042	-2.0563	-1.5646	-2.3042	-1.7687	-1.4896	-2.1625	-1.7271	285.828	69.677	156.079	317.540	314.683	279.801	238.375	224.623	4.730	33.144	332.767	-3.566	322.047	220.320	127.300	299.733	9.4843e-05	0.00055019	0.00046562	633.24	7.8774e-06	1.0159e-05	1253.4	122.76	1.2082e-05	2.349e-06	410.39	142.19	31.309	10.958	2.5791e-05	63.354	0.0079392	0.0097408	0.0026826	657.4	0.00010318	0.0001056	1144.8	134.22	9.9684e-05	0.00010629	410.12	138.1	44.099	15.422	0.00010193	60.914	203.163	212.692	22.697	9.853	240.383	174.175	10.498	13.886	227.764	302.374	13.862	18.452	18.548	24.270	8.195	22.083	-8191	255	
5176.201	1	1	0	0	0.056623	0.15091	0.27367	0.21925	0.29353	0.1567	0.33508	0.20869	0.18146	0.24053	0.27366	0.13974	0.18447	0.19788	0.20808	0.20097	-1.525	-2.0812	-1.4937	-2.2792	-1.8333	-1.4729	-2.4729	-1.65	-1.8521	-2.3646	-1.6083	-2.4146	-1.9271	-1.3646	-2.4188	-1.8417	184.768	78.139	216.240	285.197	115.766	318.653	266.379	261.442	335.467	216.052	278.704	355.512	157.442	312.344	202.813	264.671	0.00022132	0.002622	0.00074481	639.84	2.4214e-05	1.8703e-05	1262.5	122.4	1.7808e-05	1.4074e-05	421.67	142.74	31.213	10.812	4.1103e-05	62.561	0.0079195	0.0095259	0.002605	660.61	0.0001017	0.0001062	1154.1	134.92	0.00010133	0.00010819	415.33	139.06	44.872	15.665	0.00010467	61.111	349.282	46.094	103.865	9.803	152.458	202.879	10.085	13.748	207.779	230.350	13.880	18.640	18.947	22.706	318.558	22.691	-8191	255	
5176.297	1	1	0	0	0.11625	0.14581	0.3063	0.23266	0.24826	0.17301	0.15463	0.21059	0.15939	0.41568	0.11516	0.19303	0.088676	0.30736	0.044043	0.35661	-1.4312	-2.375	-1.4146	-2.2271	-2.0104	-1.7208	-2.5583	-1.7104	-1.7854	-2.3042	-1.3729	-2.0812	-1.9729	-1.4583	-2.2313	-1.9708	282.371	304.938	286.206	-0.723	228.327	60.090	263.724	224.937	40.197	284.486	329.730	218.303	-2.583	329.552	244.864	314.505	5.5211e-05	0.0012301	0.00055874	636.46	1.5086e-05	2.1708e-05	1257.1	121.26	1.9946e-05	2.1342e-05	411.76	142.27	31.462	11.054	2.1839e-05	62.546	0.0081843	0.0097613	0.0026977	661.24	0.00010391	0.00010603	1149.8	134.99	0.0001004	0.00010475	410.68	137.58	44.631	15.448	0.00010039	60.88	73.451	224.945	27.050	9.573	59.266	94.224	10.273	13.749	41.332	323.308	14.502	18.653	19.439	22.736	103.030	22.298	-8191	255	
5176.391	1	1	0	0	0.4218	0.14045	0.14175	0.24069	0.084511	0.13133	0.38986	0.17799	0.032057	0.18805	0.47104	0.20946	0.16767	0.20629	0.011182	0.40586	-1.3229	-2.3167	-1.3833	-1.925	-2.1792	-1.375	-2.5271	-1.8792	-1.525	-2.2167	-1.5667	-1.9604	-2.2458	-1.4271	-2.0979	-2.0187	51.688	247.481	170.363	334.037	317.314	-0.543	316.415	314.459	75.935	298.874	-2.485	252.607	73.377	182.221	82.724	269.508	0.00033112	0.00048357	0.00046904	642.54	2.6457e-05	1.6569e-05	1249.4	120.85	1.3713e-05	1.6263e-05	418.65	141.99	31.48	10.963	1.7155e-05	62.788	0.0080232	0.0095368	0.0026703	663.73	0.0001038	0.00010561	1150.3	135.19	0.00010129	0.0001046	413.54	138.31	44.62	15.388	0.00010126	60.891	177.222	25.403	61.651	9.515	62.968	246.833	10.518	13.405	275.366	206.100	13.110	18.032	18.656	21.848	135.875	21.346	-8191	255	
5176.465	1	1	0	0	0.14577	0.17781	0.12158	0.16915	0.32467	0.15706	0.21334	0.16205	0.25452	0.22589	0.30186	0.19374	0.24674	0.10853	0.15564	0.075587	-1.1792	-2.2104	-1.5708	-1.8479	-2.3208	-1.3937	-2.2146	-2	-1.5021	-2.3458	-1.8125	-1.7646	-2.3208	-1.5604	-2.0375	-2.1458	284.517	194.360	350.986	141.618	71.737	274.017	263.762	11.001	27.229	344.998	269.927	292.140	233.271	324.913	245.627	351.683	0.0005891	0.0025538	0.00062692	636.42	1.5424e-05	2.1976e-05	1250.9	121.49	3.2994e-06	6.2697e-06	411.06	141	30.707	11.064	1.3543e-05	62.424	0.0079987	0.0094875	0.0027058	664.42	0.00010463	0.0001087	1153.5	137.01	0.00010556	0.00010998	415.2	139.2	45.067	15.911	0.00010863	61.227	109.315	207.473	72.446	8.905	174.866	330.583	9.823	13.487	342.693	14.892	13.748	18.076	17.627	22.518	123.869	22.002	-8191	255	
5176.584	1	1	0	0	0.08308	0.095147	0.27068	0.22669	0.23368	0.24457	0.18502	0.13068	0.21724	0.10468	0.17005	0.13699	0.079723	0.035178	0.063702	0.17895	-1.15	-2.1146	-1.625	-1.5312	-2.3583	-1.4854	-2.2167	-1.9521	-1.3979	-2.3292	-1.8438	-1.6792	-2.2958	-1.4104	-1.8021	-2.2167	192.416	282.572	261.965	173.821	32.444	180.816	353.695	254.598	9.705	223.358	353.509	27.670	310.070	242.479	114.720	33.190	0.00046799	0.0016651	0.00049631	642.28	1.5759e-05	1.0011e-05	1260	123.73	9.8577e-06	1.0463e-05	411.76	142.28	31.568	11.04	2.4641e-05	62.959	0.008423	0.0099635	0.0028178	670.24	0.00010822	0.00011191	1161.7	137.88	0.00010584	0.00010973	416.6	140.21	45.57	16.053	0.00010974	61.726	153.724	-1.802	178.279	8.490	267.654	132.976	9.775	13.032	21.445	245.658	12.939	18.376	17.921	21.874	158.680	22.087	-8191	255	
5176.680	1	1	0	0	0.1534	0.28083	0.16553	0.25755	0.21494	0.31541	0.37703	0.27	0.097585	0.1317	0.15299	0.22416	0.11841	0.17183	0.22803	0.35273	-1.0042	-2.2521	-1.7062	-1.4396	-2.1771	-1.5583	-1.9167	-2.2042	-1.4083	-1.9604	-2.1854	-1.5583	-2.2333	-1.5458	-1.7021	-2.2833	156.656	3.477	148.667	261.953	139.137	75.230	301.655	352.328	135.785	146.137	65.272	306.848	69.742	11.052	295.986	276.545	0.00045185	0.0017003	0.00083459	649.98	1.7847e-05	1.1548e-05	1257.4	122	8.0374e-06	3.0172e-05	414.36	140.92	31.302	11.202	2.1259e-05	62.752	0.0086025	0.010157	0.00288	679.43	0.00010894	0.00011317	1163	137.09	0.00010552	0.00010914	416.81	139.02	44.781	15.729	0.00010603	61.131	126.673	322.485	135.907	9.065	127.846	199.404	9.665	13.441	247.969	158.788	13.124	18.447	17.601	22.269	205.278	21.821	-8191	255	
5176.776	1	1	0	0	0.060863	0.31755	0.16248	0.1368	0.057442	0.095152	0.24648	0.27061	0.19057	0.081358	0.32735	0.25698	0.17505	0.14337	0.3096	0.3801	-0.86875	-1.9771	-2.0938	-1.6021	-2.1937	-1.5375	-1.9583	-2.3833	-1.4604	-2.1479	-2.1188	-1.4604	-2.1312	-1.6917	-1.5167	-2.4354	105.799	290.665	273.813	56.160	117.203	246.573	273.313	212.391	130.861	323.641	323.650	261.722	346.827	231.656	260.165	309.518	0.00078697	0.0027138	0.0006248	636.42	6.3533e-06	1.7419e-05	1257.2	122.89	6.0525e-06	6.7351e-06	412.39	143.43	30.744	11.077	1.1027e-05	62.897	0.0081963	0.0095581	0.0027018	660.61	0.00010139	0.00010723	1151.4	134.59	0.00010109	0.0001038	413.87	138.96	43.712	15.629	0.00010132	61.091	81.736	106.244	70.338	8.925	63.811	209.834	9.563	13.698	147.735	253.421	13.505	17.671	17.897	22.678	215.548	21.976	-8191	255	
5176.872	1	1	0	0	0.278	0.12854	0.088944	0.1828	0.40534	0.23264	0.33096	0.23437	0.16554	0.33544	0.15479	0.15105	0.083811	0.11529	0.27076	0.076042	-0.9	-1.9312	-1.8271	-1.4396	-2.1083	-1.7979	-1.6167	-2.3667	-1.4979	-1.9729	-2.3167	-1.5688	-2.2896	-1.9146	-1.3646	-2.3229	61.885	17.267	81.333	113.934	99.369	37.075	311.327	275.385	131.194	348.675	269.573	39.488	34.049	301.511	41.681	82.529	0.00075825	0.001645	8.7057e-05	628.85	1.5041e-05	2.095e-05	1252.6	122.78	7.2366e-06	2.1763e-05	415.13	143.18	31.564	11.175	1.7103e-05	62.762	0.0078805	0.0092233	0.0026274	652.29	9.9401e-05	0.00010563	1148	134.49	0.00010162	0.00010403	413.51	138.94	43.93	15.678	0.00010317	60.936	96.451	71.486	73.322	8.932	193.092	344.339	9.736	13.305	175.037	176.012	13.232	18.235	18.302	21.587	25.971	21.564	-8191	255	
5176.993	1	1	0	0	0.17974	0.42116	0.09716	0.30309	0.096137	0.22719	0.29704	0.20157	0.10115	0.11043	0.24448	0.21587	0.084959	0.083215	0.33032	0.31675	-1.225	-1.4688	-2.1604	-1.5604	-2.1208	-1.8229	-1.6313	-2.275	-1.7771	-1.6208	-2.4	-1.5542	-2.0687	-1.8792	-1.3875	-2.4625	12.362	130.888	337.528	317.679	118.841	137.686	303.090	318.438	145.693	-1.524	58.781	127.882	30.430	209.119	85.017	302.922	0.0007187	0.001099	0.00047493	638.89	9.8347e-06	1.2896e-05	1248.9	123.34	1.5616e-05	1.0502e-05	413.51	142.91	31.756	11.263	9.6757e-06	63.696	0.0080517	0.0094742	0.0026881	662.37	0.00010062	0.00010873	1152.9	135.7	0.00010243	0.0001067	415.59	139.85	44.58	15.78	0.00010137	61.483	148.165	35.538	2.012	9.105	158.305	263.070	9.499	13.603	336.511	98.292	13.486	18.408	18.775	22.368	182.163	22.093	-8191	255	
5177.064	1	1	0	0	0.35747	0.12675	0.25351	0.32093	0.20318	0.25621	0.19744	0.062111	0.057961	0.077409	0.18216	0.10192	0.12198	0.22643	0.13999	0.3302	-1.1104	-1.5063	-2.2854	-1.4062	-1.8583	-2.0354	-1.6354	-2.1708	-1.6875	-1.6542	-2.3208	-1.7729	-1.9417	-2.1333	-1.2646	-2.45	63.554	291.173	152.670	252.029	213.929	330.531	313.017	273.579	223.541	21.209	57.456	212.069	236.490	282.803	37.178	12.068	0.00020097	0.0011204	0.0008608	639.64	7.0599e-06	5.0317e-05	1254.6	124.18	1.2287e-05	1.794e-05	417.17	143.38	30.937	11.198	2.0749e-05	63.053	0.0079958	0.009339	0.0026206	659.55	9.8676e-05	0.0001059	1151.5	134.12	0.00010056	0.00010333	412.3	139.28	44.309	15.668	0.00010177	61.048	142.678	164.348	141.685	8.774	153.835	111.438	9.573	12.989	125.390	15.628	13.671	17.882	17.435	21.959	133.738	22.151	-8191	255	
5177.160	1	1	0	0	0.16283	0.14965	0.067331	0.17909	0.2377	0.13625	0.18921	0.058685	0.17222	0.10494	0.15427	0.10797	0.18552	0.14889	0.08521	0.131	-1.5417	-1.4208	-2.2542	-1.5812	-1.7792	-2.1	-1.4854	-2.0667	-1.8979	-1.5833	-2.3812	-1.6479	-1.7375	-2.1229	-1.4458	-2.1708	220.676	138.592	163.354	302.195	51.770	232.582	11.996	44.519	37.495	322.696	69.850	45.764	96.188	96.532	48.731	182.933	0.00058704	0.0031412	0.00063845	635.95	1.4379e-05	8.7834e-06	1247.8	122.54	9.7428e-06	1.742e-05	413.59	143.5	31.307	10.943	2.2274e-05	62.537	0.0080711	0.0095914	0.0026552	659.79	0.00010029	0.0001067	1148.8	134.03	0.00010129	0.00010622	413.62	139.39	44.675	15.645	0.00010568	60.941	105.563	260.280	254.092	9.503	321.257	306.653	9.736	13.183	336.928	109.673	13.395	17.955	18.643	21.908	108.496	21.477	-8191	255	
5177.281	1	1	0	0	0.15612	0.23411	0.056851	0.20087	0.04698	0.2147	0.24089	0.11648	0.054892	0.093611	0.26919	0.08611	0.19334	0.16959	0.23694	0.13697	-1.575	-1.5396	-2.2271	-1.5292	-1.6437	-2.2292	-1.5958	-2.1271	-2.1771	-1.4375	-2.3104	-1.9438	-1.5229	-2.2479	-1.3875	-2.1437	41.759	283.139	102.898	306.175	308.336	116.764	23.523	267.234	-4.096	177.688	-0.654	302.033	279.252	142.191	-2.494	305.632	0.00052202	0.0008842	0.00052801	641.03	1.5795e-05	5.1945e-05	1263	123.86	3.564e-05	3.033e-05	414.08	141.03	31.561	10.949	8.9848e-06	62.396	0.0084007	0.0098686	0.0027497	669.02	0.00010642	0.00011097	1161.2	136.22	0.00010783	0.0001124	417.43	139.76	45.549	15.79	0.00011011	61.177	152.386	26.026	20.597	9.371	260.466	1.241	9.572	13.136	157.589	100.256	13.252	18.449	17.955	21.764	269.388	22.073	-8191	255	
5177.377	1	1	0	0	0.063245	0.16772	0.07206	0.13684	0.40505	0.16794	0.056249	0.40568	0.097193	0.13766	0.18798	0.19761	0.0298	0.17148	0.095065	0.27923	-1.725	-1.4271	-2.3	-1.7021	-1.5917	-2.3542	-1.6833	-1.975	-2.0458	-1.3354	-2.2479	-1.9104	-1.6833	-2.2417	-1.6063	-1.8271	177.624	70.826	47.356	293.328	178.765	185.456	292.421	223.534	217.891	108.182	297.964	302.798	237.268	237.154	204.969	300.607	0.00068424	0.0020434	0.00037133	646.59	1.7452e-05	6.8539e-06	1265.7	125.06	1.747e-05	1.3375e-05	413.18	143.57	31.702	11.215	7.6216e-06	63.725	0.00863	0.010122	0.0027812	677.06	0.00010828	0.00011195	1165.6	137.07	0.00010848	0.0001104	416.66	140.82	45.195	15.924	0.00010826	61.863	77.350	256.358	176.448	8.936	74.882	315.044	9.861	13.351	109.912	3.948	13.709	18.401	18.332	22.894	260.313	22.028	-8191	255	
5177.472	1	1	0	0	0.18156	0.10774	0.21332	0.35314	0.35794	0.21542	0.079073	0.33245	0.063676	0.088612	0.19437	0.36664	0.16784	0.14147	0.26079	0.36212	-1.775	-1.2021	-1.975	-1.9958	-1.5417	-2.35	-1.65	-1.725	-2.2792	-1.3958	-2.0687	-2.0708	-1.3833	-2.2458	-1.4125	-1.9104	139.906	181.263	255.283	31.915	171.224	340.825	267.259	347.837	295.351	354.295	193.481	255.828	71.219	294.387	252.822	279.089	0.00064819	0.002077	0.00042444	640.57	2.3947e-05	1.8106e-05	1258.6	123.32	1.144e-05	1.4815e-05	408.72	143.86	30.892	11.158	7.9285e-06	62.916	0.0084476	0.0099359	0.0026989	672.94	0.00010569	0.0001079	1157.2	136.63	0.00010555	0.00010796	416.16	140.33	44.997	15.742	0.00010681	61.436	81.849	149.487	110.097	8.786	98.015	228.728	9.767	13.502	91.682	36.540	13.214	17.862	18.724	22.542	186.422	22.628	-8191	255	
5177.570	1	1	0	0	0.21535	0.12055	0.048641	0.026117	0.2451	0.1098	0.074911	0.11893	0.21303	0.047196	0.16516	0.18612	0.27623	0.17055	0.025728	0.058684	-1.9542	-1.6521	-2.1042	-2.0687	-1.3896	-2.2396	-1.9708	-1.7563	-2.2833	-1.4292	-1.9958	-2.2229	-1.4417	-2.2125	-1.8708	-1.7083	261.494	28.420	165.860	182.377	255.623	88.472	332.020	325.139	165.254	98.681	256.076	91.101	283.715	1.362	250.099	322.437	0.00049518	0.0005197	0.000228	647.9	1.4628e-05	1.6822e-05	1253.4	121.86	1.6793e-05	2.7414e-05	416.19	142.54	31.057	10.913	2.4198e-06	63.228	0.0082611	0.0098462	0.0027204	675.52	0.00010541	0.00010897	1159.9	136.7	0.00010445	0.00010758	415.74	139.17	44.785	15.616	0.00010703	61.354	118.621	57.925	73.671	8.826	27.994	-1.100	9.600	13.202	162.026	192.021	13.916	18.098	17.561	20.881	110.175	21.914	-8191	255	
5177.664	1	1	0	0	0.083574	0.15762	0.18503	0.23256	0.1938	0.034732	0.14574	0.25852	0.24275	0.32412	0.20267	0.11561	0.12835	0.17351	0.04933	0.2492	-2.0958	-1.4208	-1.9646	-2.3312	-1.525	-2.1312	-2.0187	-1.5271	-2.3708	-1.6938	-1.875	-2.2354	-1.5104	-2.1146	-1.8479	-1.6375	-3.221	80.554	244.373	97.950	171.673	299.513	353.880	271.212	117.599	324.247	193.003	327.548	178.973	269.141	64.288	13.599	0.00034693	0.0025025	0.00055202	650.87	5.5767e-06	1.6293e-05	1257.8	123.29	1.1103e-05	1.8869e-05	415.48	142.86	31.626	11.03	2.0898e-05	62.845	0.0081473	0.0098034	0.0026734	670.15	0.00010474	0.00010691	1163.8	136.63	0.00010364	0.00010849	417.51	139.82	44.966	15.646	0.00010943	61.34	87.510	346.090	137.676	9.211	257.570	102.282	9.480	13.217	283.926	273.083	13.863	18.166	18.399	23.518	128.387	22.041	-8191	255	
5177.760	1	1	0	0	0.35188	0.092765	0.17045	0.45686	0.12175	0.15134	0.10518	0.13281	0.16359	0.091932	0.15027	0.12303	0.15692	0.13662	0.14751	0.20377	-1.9104	-1.5917	-1.7437	-2.3042	-1.3188	-2.1146	-2.1208	-1.5375	-2.125	-1.7229	-1.7271	-2.4333	-1.2854	-2.1854	-2.0229	-1.575	112.580	52.040	115.740	278.403	146.488	325.658	283.296	252.627	60.616	51.431	302.334	15.794	-0.952	344.095	122.695	310.140	0.0003059	0.00074662	0.00020753	650.7	2.7158e-05	4.1255e-06	1267.1	124.67	1.052e-05	2.9946e-05	415.34	143.59	31.029	10.931	1.896e-05	63.226	0.008096	0.0097967	0.0027118	670.17	0.00010312	0.00010747	1164.3	137.24	0.00010161	0.00010884	416.58	139.93	44.686	15.61	0.00010617	61.46	51.901	123.344	62.697	8.972	53.887	114.421	9.600	13.193	158.486	198.047	13.649	18.051	18.612	22.825	112.403	22.371	-8191	255	
5177.881	1	1	0	0	0.16656	0.20139	0.28615	0.14869	0.087773	0.34083	0.11064	0.25311	0.19457	0.1821	0.21935	0.1435	0.091888	0.16323	0.16554	0.046664	-1.7667	-1.6292	-1.5354	-2.3042	-1.5354	-2.0125	-2.425	-1.5229	-2.1292	-1.5979	-1.6	-2.3354	-1.4167	-1.8333	-2.1813	-1.5125	196.174	83.308	145.308	259.514	127.160	232.690	296.050	335.607	351.964	195.508	62.732	255.358	12.850	24.102	170.512	331.015	8.1906e-05	0.00056023	0.00055029	661.31	7.2158e-06	1.8825e-05	1276	123.4	1.2986e-05	2.6659e-05	415.33	141.71	31.129	11.329	2.1883e-05	62.786	0.0080421	0.0097917	0.0027003	673.22	0.00010329	0.00010608	1165.5	135.76	9.938e-05	0.00010692	414.74	138.9	44.424	15.536	0.00010307	61.005	102.247	330.477	10.107	8.808	345.574	158.569	9.939	13.023	60.964	189.571	14.038	18.306	19.716	21.920	165.723	22.121	-8191	255	
5177.977	1	1	0	0	0.18496	0.29535	0.20104	0.25674	0.097216	0.054786	0.077431	0.14249	0.0082517	0.16625	0.09988	0.28695	0.11245	0.20054	0.077495	0.182	-1.625	-1.8104	-1.3604	-2.2687	-1.4188	-1.6375	-2.3688	-1.375	-2.0771	-2.0458	-1.5458	-2.2958	-1.6521	-1.6854	-2.1417	-1.4854	25.658	231.286	36.575	306.581	269.238	216.256	77.637	47.849	24.410	225.557	343.380	20.926	274.584	344.126	12.410	303.452	0.00015138	0.0027352	0.00051639	647.91	1.4144e-05	1.0804e-05	1264.4	123.89	1.9799e-05	2.0939e-05	411.76	142.98	30.995	10.836	1.5729e-05	62.882	0.0078364	0.0094461	0.0026126	662.44	9.9395e-05	0.00010168	1155.8	134.21	9.5443e-05	0.0001031	410.87	137.51	43.519	15.201	0.00010069	60.915	101.550	272.791	43.636	9.496	252.702	133.827	10.195	13.904	230.591	213.152	13.877	18.482	18.107	22.945	156.080	21.973	-8191	255	
5178.073	1	1	0	0	0.1251	0.20399	0.13573	0.049753	0.10352	0.18998	0.41925	0.03868	0.23223	0.072598	0.10067	0.23448	0.16575	0.11268	0.077183	0.097738	-1.4813	-1.9896	-1.2687	-2.1896	-1.6917	-1.6854	-2.4313	-1.4396	-1.9167	-2.0479	-1.65	-2.3708	-1.8208	-1.6562	-2.4042	-1.7021	107.226	324.001	1.210	234.655	91.318	348.735	313.194	108.708	288.465	350.703	5.312	300.784	221.510	227.845	148.156	36.775	0.00011065	0.001472	0.00022119	647.92	5.7418e-06	1.0995e-05	1260.9	123.03	1.3199e-05	5.434e-06	414.04	141.68	31.048	11.039	2.2741e-05	63.213	0.0077829	0.0095593	0.0026075	663.56	0.00010131	0.00010352	1151	135.14	9.8809e-05	0.00010571	411.02	137.75	44.108	15.501	0.00010386	60.897	6.613	78.633	148.429	9.397	151.147	146.594	9.584	13.488	348.565	200.789	13.483	17.881	18.820	22.731	56.506	22.298	-8191	255	
5178.169	1	1	0	0	0.20996	0.053574	0.11888	0.089875	0.039597	0.29583	0.26756	0.26884	0.055484	0.082063	0.25368	0.32285	0.16212	0.12852	0.069818	0.12225	-1.5729	-2.15	-1.3229	-2.2396	-1.8	-1.5354	-2.5729	-1.5063	-1.7812	-2.0896	-1.6271	-2.1375	-1.8375	-1.4854	-2.2458	-1.65	244.286	349.549	240.730	220.928	34.189	309.199	206.581	142.967	39.509	335.899	333.527	2.108	308.332	167.587	242.706	343.167	0.00057467	0.0003683	0.0012274	649.63	1.0626e-05	2.2744e-05	1261.9	123.62	3.4803e-05	1.9958e-06	415.96	144.06	31.392	11.207	1.0888e-05	63.705	0.0081245	0.0097192	0.0027157	672.14	0.0001047	0.00010631	1158.8	136.18	0.00010004	0.00010614	413.37	138.67	44.443	15.554	0.00010064	61.593	92.670	304.070	116.534	9.382	343.164	64.982	9.696	13.191	111.836	39.137	13.863	18.802	17.951	23.401	43.765	22.112	-8191	255	
5178.290	1	1	0	0	0.14334	0.15397	0.23633	0.40727	0.11755	0.12608	0.17205	0.13102	0.1238	0.17808	0.34459	0.13683	0.11439	0.091453	0.091563	0.18527	-1.375	-2.1042	-1.5354	-2.2812	-1.9062	-1.5312	-2.3729	-1.6583	-1.6083	-2.3625	-1.5854	-2.1667	-1.9458	-1.3333	-2.3271	-1.675	310.562	65.641	187.529	230.506	56.943	320.184	70.886	253.811	140.086	228.953	331.768	157.110	16.833	20.742	229.217	311.310	0.00044651	0.0015929	0.00028423	645.57	2.3271e-05	6.8848e-06	1270.7	124.89	1.0629e-05	7.1337e-06	417.39	144.53	31.779	11.317	1.8535e-05	63.827	0.0079386	0.0095113	0.0026274	668.83	0.00010277	0.00010539	1163.2	136.3	9.821e-05	0.00010289	414.53	139.35	44.196	15.561	9.7173e-05	61.635	102.074	137.374	65.166	9.096	104.034	156.191	9.969	13.778	344.391	75.335	13.458	18.164	17.997	22.408	87.280	21.928	-8191	255	
5178.361	1	1	0	0	0.25444	0.19492	0.18322	0.12213	0.24316	0.074121	0.12222	0.27218	0.25276	0.38888	0.29455	0.21142	0.19994	0.066103	0.21427	0.047662	-1.2229	-1.9979	-1.3604	-2.2438	-1.9354	-1.4792	-2.3833	-1.6396	-1.5375	-2.0854	-1.6375	-1.9354	-2.2313	-1.4729	-2.1292	-1.9521	274.581	50.717	136.337	347.279	238.684	345.188	200.258	37.715	76.102	326.058	194.140	290.977	6.651	346.638	280.337	262.415	0.00070672	0.0011206	0.00048481	652.58	1.7182e-05	4.9153e-06	1268.6	125.48	6.2835e-06	1.0061e-05	418.91	143.13	31.705	11.141	1.4467e-05	63.65	0.0077646	0.0094201	0.0026217	668.16	0.00010413	0.00010547	1162.4	137.78	0.00010154	0.00010458	417.01	139.96	45.059	15.773	0.00010214	61.909	101.460	133.481	52.346	9.314	189.862	347.092	9.628	13.985	91.003	323.922	13.612	18.265	19.127	22.243	153.290	22.244	-8191	255	
5178.458	1	1	0	0	0.097814	0.31264	0.16259	0.2051	0.11917	0.16376	0.13758	0.22804	0.03743	0.20743	0.093528	0.21855	0.20112	0.052236	0.079746	0.20564	-1.0938	-2.1771	-1.4312	-2.0021	-1.9813	-1.5083	-2.2687	-1.8708	-1.3	-2.1229	-1.6708	-1.7729	-2.1354	-1.4583	-1.9958	-1.9188	124.958	342.320	207.397	309.006	1.926	293.289	206.217	295.653	233.294	218.791	286.287	237.057	203.803	19.239	187.483	345.781	0.00047694	0.0010665	0.00049908	657.94	2.6277e-06	1.6111e-05	1264.1	124.06	2.5424e-05	2.8065e-05	412.13	144.42	31.455	11.242	1.1923e-05	63.332	0.0082831	0.0098135	0.0027925	680.23	0.00010743	0.00011026	1160.7	137.62	0.00010413	0.00010717	417.34	140.03	45.06	15.649	0.0001037	61.781	124.285	347.964	84.045	9.399	212.485	212.627	10.044	13.875	206.631	215.623	13.966	17.988	19.244	22.743	149.202	21.856	-8191	255	
5178.552	1	1	0	0	0.12392	0.13022	0.19261	0.16577	0.098861	0.17935	0.39435	0.065707	0.11374	0.20096	0.10769	0.16046	0.085021	0.16755	0.15111	0.268	-1.0458	-2.3479	-1.5146	-1.6313	-2.2542	-1.4271	-2.1333	-1.9167	-1.2833	-2.3208	-1.875	-1.6208	-2.3	-1.4479	-1.9896	-2.1167	281.071	22.849	101.703	27.609	105.320	315.986	285.185	138.001	284.138	309.282	269.309	329.744	204.028	255.951	202.576	352.933	0.00071748	0.00075068	0.00029644	644.77	1.0253e-05	8.2595e-06	1260.1	123.62	1.5474e-05	3.5851e-06	414.36	142.77	31.033	11.008	1.5823e-05	63.975	0.0081974	0.009675	0.0027576	668.89	0.0001034	0.00010893	1155.8	136.16	0.0001028	0.0001064	419.29	140.37	44.925	15.748	0.00010367	62.072	80.436	90.182	307.814	9.096	10.836	342.606	10.060	13.935	201.481	288.882	13.192	18.365	19.185	22.715	211.059	22.630	-8191	255	
5178.673	1	1	0	0	0.18041	0.07233	0.15046	0.13106	0.044241	0.21957	0.24193	0.10317	0.21053	0.050727	0.17252	0.37674	0.14704	0.40002	0.12579	0.20369	-0.98125	-2.3063	-1.5521	-1.5979	-2.1229	-1.4562	-2.0583	-2.3896	-1.375	-2.0958	-1.7333	-1.525	-2.1188	-1.575	-1.9042	-2.45	115.246	102.114	50.714	167.376	227.566	263.090	264.399	342.321	9.518	37.483	304.712	280.766	109.003	116.174	155.720	338.430	0.00024906	0.0015831	0.00068562	642.34	9.9755e-06	1.3345e-05	1251.9	122.31	1.7085e-05	3.5194e-06	413.18	141.96	31.394	10.883	1.7065e-05	63.226	0.0080545	0.0095079	0.0027147	661.75	0.00010185	0.00010675	1153.9	136.17	0.00010487	0.00010906	417.55	140.46	45.397	15.979	0.00010952	61.62	110.387	141.085	103.611	9.172	243.608	78.784	9.994	12.848	157.541	154.148	13.952	18.182	18.629	21.434	63.567	21.971	-8191	255	
5178.769	1	1	0	0	0.2226	0.059088	0.2318	0.082446	0.17569	0.11562	0.10726	0.21788	0.17739	0.29549	0.27724	0.22703	0.099473	0.29461	0.13665	0.24262	-0.975	-2.2708	-1.9021	-1.4312	-2.3187	-1.5646	-1.95	-2.25	-1.4125	-2.1104	-2.2042	-1.5312	-2.1437	-1.6063	-1.6771	-2.1625	243.666	334.221	294.087	7.957	100.739	180.628	269.875	142.994	108.754	156.805	352.290	340.558	253.477	308.977	254.772	265.500	0.0002869	0.00086404	0.00082145	644.93	2.256e-05	9.8109e-06	1247.9	119.85	1.7804e-05	1.7826e-05	408.94	140.48	31.076	10.862	2.102e-06	62.276	0.0085136	0.0099762	0.0028774	669.76	0.00010842	0.00011348	1151.9	135.7	0.00010769	0.00011183	416.39	139.13	45.297	15.962	0.0001111	61.241	74.839	214.457	176.840	8.646	113.414	148.228	10.009	12.807	75.123	68.963	13.714	18.085	19.413	23.100	274.727	21.843	-8191	255	
5178.865	1	1	0	0	0.28167	0.083072	0.10314	0.33855	0.074937	0.077459	0.13392	0.19057	0.20746	0.25647	0.10285	0.20781	0.021737	0.18565	0.14366	0.13766	-1	-2.0604	-2.0062	-1.5625	-2.3563	-1.8333	-1.7646	-2.3	-1.5104	-2.1521	-2.2896	-1.4958	-2.3625	-1.825	-1.4896	-2.4042	79.148	17.664	130.203	332.637	184.086	47.461	58.544	326.371	19.434	64.703	163.929	44.180	58.504	12.913	27.270	3.146	0.00050256	0.00019638	0.00054415	632.97	8.2039e-06	1.3914e-05	1260.5	121.75	1.5301e-05	1.6414e-05	409.89	141.01	30.865	10.536	1.0443e-05	61.417	0.0086687	0.010338	0.0029678	674.45	0.00011228	0.00011954	1160.7	137.23	0.00011538	0.00011981	421.9	140.65	46.801	16.49	0.00012076	61.227	51.337	303.797	30.379	8.764	238.245	99.383	9.621	13.084	64.351	158.577	13.664	18.245	18.759	22.653	250.238	22.247	-8191	255	
5178.961	1	1	0	0	0.11619	0.17543	0.14174	0.28759	0.19802	0.15602	0.1495	0.10714	0.22375	0.1715	0.15829	0.1495	0.22368	0.1816	0.10017	0.18601	-1.1583	-1.8125	-2.3	-1.7625	-2.0875	-1.9208	-1.5875	-2.4375	-1.575	-1.8833	-2.3604	-1.3333	-2.1229	-2.0062	-1.4771	-2.5042	88.956	105.124	255.874	285.871	304.528	269.681	300.636	331.021	246.199	198.138	335.916	294.864	268.331	144.545	348.650	289.388	0.00030739	0.00059742	0.00044859	634.58	1.0404e-05	1.8275e-05	1241.3	119.37	3.0379e-05	1.1102e-05	408.03	140.91	29.663	10.813	2.2631e-05	61.29	0.0095701	0.011348	0.0032069	687.15	0.00011997	0.00012807	1166	139.12	0.00012268	0.00012721	424.18	140.79	47.086	16.732	0.00012561	61.313	193.006	228.154	-0.503	8.871	50.325	311.024	9.593	13.800	60.351	145.684	13.207	17.534	18.918	21.981	119.540	21.949	-8191	255	
5179.057	1	1	0	0	0.079743	0.23128	0.10629	0.23394	0.13231	0.12881	0.28451	0.41018	0.035018	0.12211	0.28651	0.26274	0.31929	0.028071	0.053271	0.29571	-1.3167	-1.7542	-2.2021	-1.3417	-2.025	-2.0938	-1.4792	-2.2125	-1.65	-1.5667	-2.4583	-1.6208	-2.0396	-2.0062	-1.3354	-2.3625	12.323	333.840	62.235	209.975	350.111	237.942	300.072	339.673	293.632	75.854	289.332	346.445	224.743	300.026	245.849	253.219	0.00034671	0.00083489	0.00094939	638.64	2.124e-05	1.0764e-05	1240.8	120.38	3.945e-05	2.02e-05	405.28	139.74	30.165	10.723	1.6062e-05	61.3	0.0097266	0.011644	0.0032418	689.46	0.00012263	0.0001297	1168.2	139.2	0.00012184	0.00012389	419.93	140.49	46.5	16.436	0.00011884	60.83	107.388	113.992	350.870	8.098	235.550	255.084	9.343	13.197	106.520	75.027	13.060	17.955	18.239	22.709	199.345	22.157	-8191	255	
5179.153	1	1	0	0	0.13624	0.23837	0.091109	0.16511	0.26984	0.18122	0.2331	0.18499	0.24398	0.057333	0.35819	0.10086	0.13562	0.1617	0.47311	0.2052	-1.2	-1.6396	-2.175	-1.6021	-2.0854	-2.1708	-1.4479	-2.3312	-1.7	-1.6542	-2.4354	-1.5792	-1.9042	-1.9271	-1.3458	-2.3583	256.165	336.893	28.756	165.231	162.112	290.628	320.614	172.495	80.393	118.501	46.809	290.062	328.766	149.621	135.067	271.309	0.0005054	0.0015498	0.00068481	632.51	2.2079e-05	2.5122e-05	1233.6	118.7	1.1571e-05	3.1123e-05	401.21	139.02	30.183	10.704	3.1743e-05	61.223	0.0093844	0.01104	0.0030542	676.06	0.00011521	0.00012316	1153.8	136.52	0.00011767	0.00012005	414.44	139.13	45.653	16.183	0.00011635	60.673	160.031	190.056	34.601	8.846	211.940	75.968	9.809	13.164	117.753	211.811	13.824	18.480	19.523	22.370	197.985	21.906	-8191	255	
5179.250	1	1	0	0	0.35005	0.08228	0.1005	0.030796	0.0784	0.17545	0.23965	0.33224	0.032845	0.28652	0.25277	0.076205	0.12433	0.2353	0.25999	0.047612	-1.5125	-1.5167	-2.0312	-1.5771	-1.8271	-2.2167	-1.7188	-2.15	-2.1333	-1.4583	-2.4062	-1.8479	-1.7542	-2.3167	-1.3833	-2.2062	4.164	33.799	204.542	109.082	353.213	198.440	351.120	310.239	286.500	293.120	342.171	130.069	76.127	141.225	85.095	219.846	0.00070782	0.00061433	0.00068997	632.4	1.6775e-05	3.2041e-05	1226.6	118.54	1.411e-05	1.4394e-05	408.56	138.78	29.747	10.58	2.7143e-05	61.262	0.0090956	0.010762	0.0029858	675.46	0.0001146	0.0001191	1149	135.02	0.00011426	0.00011779	414.8	138.66	45.41	15.976	0.00011547	60.606	93.784	342.746	89.340	8.532	222.696	267.593	9.766	12.904	74.554	99.552	12.981	17.728	19.094	21.970	112.889	22.394	-8191	255	
5179.370	1	1	0	0	0.26551	0.18067	0.063172	0.1156	0.11776	0.11188	0.38643	0.14966	0.16907	0.24336	0.25204	0.11451	0.17321	0.031244	0.22955	0.045283	-1.8583	-1.5542	-2.2292	-1.8604	-1.5771	-2.3604	-1.5167	-2.0208	-2.0938	-1.3271	-2.1833	-2.0875	-1.4979	-2.5083	-1.4813	-2.0667	7.461	213.450	163.268	69.307	337.913	57.434	293.021	278.354	105.699	290.990	186.399	111.923	228.867	108.584	104.868	31.667	0.00043415	0.00089434	0.00010945	627.57	1.856e-05	4.6939e-05	1234.6	119.63	1.1227e-05	1.3435e-05	412.89	140.51	30.53	10.976	3.2577e-05	62.51	0.0090459	0.010594	0.0029239	671.41	0.00011149	0.00011511	1147.6	134.84	0.00010984	0.0001122	413.06	139.57	44.871	15.855	0.00011078	61.177	97.484	161.075	215.948	8.771	202.424	13.448	9.843	14.401	171.725	260.393	13.634	18.332	17.837	20.552	49.829	21.969	-8191	255	
5179.465	1	1	0	0	0.075446	0.046371	0.06199	0.23607	0.064427	0.15303	0.12813	0.043985	0.14701	0.065773	0.091513	0.3457	0.033985	0.13116	0.22431	0.20771	-1.6792	-1.3708	-2.2167	-2.0333	-1.6208	-2.2458	-1.7208	-1.6542	-2.1208	-1.4271	-2.2562	-2.0563	-1.5208	-2.3833	-1.6625	-1.8917	267.682	209.606	25.299	47.156	175.360	27.422	354.765	284.178	205.049	100.791	71.724	288.353	124.182	322.281	14.099	273.483	0.0005971	0.0031621	0.00082831	633.35	2.3775e-05	4.1509e-06	1254.5	121.58	1.6954e-05	8.2093e-06	416.84	143.73	30.524	11.234	3.7048e-05	63.08	0.0085525	0.0099206	0.0027473	664.03	0.0001058	0.00010771	1149.7	134.23	0.00010274	0.00010602	412.79	139.54	44.271	15.576	0.00010247	61.419	119.307	28.676	112.846	8.430	112.744	49.823	9.323	13.332	76.695	322.433	13.629	17.656	18.043	23.284	186.102	21.938	-8191	255	
5179.562	1	1	0	0	0.091134	0.34996	0.1333	0.091256	0.071704	0.12829	0.13127	0.26394	0.13341	0.10781	0.27538	0.36614	0.32508	0.10154	0.20495	0.56396	-1.8396	-1.2833	-2.1146	-1.9937	-1.2792	-2.1562	-1.725	-1.525	-2.1021	-1.5333	-2.2396	-2.2333	-1.4688	-2.3833	-1.7896	-1.6375	10.239	240.279	214.094	275.960	73.978	131.744	354.786	54.527	107.208	341.576	-1.070	14.621	173.757	255.430	113.716	317.464	0.00077336	0.00077841	8.3951e-05	631.07	2.0713e-05	7.4847e-06	1245.7	122.34	1.3697e-05	2.8284e-05	411.21	142.75	30.896	11.291	1.4588e-05	63.1	0.0079316	0.0093363	0.002601	653.17	9.9558e-05	0.00010235	1142.9	133.2	9.8096e-05	0.00010273	409.72	138.96	44.152	15.449	0.00010214	60.997	68.807	136.561	17.015	8.588	149.477	251.676	9.315	13.602	160.584	19.143	13.608	17.512	19.154	22.756	112.279	21.153	-8191	255	
5179.657	1	1	0	0	0.042205	0.19439	0.20496	0.10626	0.14054	0.1832	0.15933	0.16592	0.10336	0.14318	0.34931	0.19575	0.15454	0.30281	0.068817	0.21175	-2.1021	-1.3854	-1.7917	-2.2875	-1.2437	-2.1375	-1.9833	-1.3229	-2.3292	-1.4271	-1.95	-2.2104	-1.5021	-2.2354	-1.8396	-1.5479	279.633	55.661	258.980	49.125	276.705	309.970	246.207	193.262	247.994	322.908	324.527	271.095	31.078	33.119	276.766	329.456	0.000424	0.00082205	0.00030764	633.43	2.1818e-05	9.1757e-06	1243.9	121.41	1.8724e-05	1.3226e-05	407.08	144.48	31.231	10.972	2.4252e-05	62.644	0.0078075	0.0093847	0.0025805	655.98	9.9779e-05	0.00010202	1143.6	134.11	9.9371e-05	0.00010448	410.75	139.85	44.067	15.401	0.00010252	61.012	72.197	66.886	305.038	8.780	156.753	118.157	9.266	13.210	205.877	119.058	13.868	17.493	17.611	23.023	31.730	21.684	-8191	255	
5179.753	1	1	0	0	0.19385	0.087985	0.26813	0.15701	0.14281	0.22994	0.44493	0.15337	0.14686	0.1077	0.086287	0.2785	0.01153	0.1218	0.20883	0.12945	-1.9292	-1.5458	-1.7208	-2.2438	-1.3396	-2.0792	-1.9958	-1.675	-2.1208	-1.5021	-1.9354	-2.2292	-1.4188	-2.0062	-1.925	-1.6604	174.611	212.093	121.224	331.128	119.854	81.021	321.427	339.986	195.384	14.483	312.198	5.070	81.372	275.037	246.168	269.202	0.00038988	0.0024823	0.00036426	634.01	9.0478e-06	2.5564e-05	1254.5	122.34	2.1569e-05	3.7395e-06	412.63	143.52	31.034	11.124	7.089e-06	63.979	0.0079353	0.009395	0.0025909	653.6	9.8253e-05	0.00010062	1141.2	133.13	9.6333e-05	0.0001018	410.72	139.38	43.745	15.281	9.9543e-05	61.547	73.860	244.482	221.886	8.277	64.502	150.911	9.758	12.968	128.714	190.681	13.355	17.694	18.968	22.028	191.623	21.716	-8191	255	
5179.849	1	1	0	0	0.30962	0.11561	0.1394	0.11911	0.1173	0.16261	0.15132	0.13801	0.063695	0.11993	0.2121	0.28266	0.077951	0.1642	0.068552	0.15245	-1.8937	-1.7208	-1.4833	-2.2875	-1.5854	-1.9813	-2.0083	-1.2563	-2.1479	-1.8042	-1.5688	-2.4604	-1.3438	-1.9479	-2.1292	-1.4146	350.431	256.930	229.819	-1.146	6.665	78.313	289.733	228.068	136.866	9.927	315.705	337.634	252.654	295.425	209.618	44.044	0.000481	0.0017826	0.00065317	630.05	1.3061e-05	2.9023e-05	1248.8	122.35	1.2599e-05	1.1877e-05	420.46	146.05	31.876	11.613	2.6222e-05	65.113	0.0074487	0.0089729	0.0024628	644.14	9.2445e-05	9.5082e-05	1137.1	131.71	8.9787e-05	9.6684e-05	411.43	139.69	43.339	15.283	9.564e-05	61.995	57.639	6.490	116.801	8.353	307.252	36.817	9.664	13.083	74.425	72.240	13.828	18.219	17.382	22.618	118.722	22.077	-8191	255	
5179.945	1	1	0	0	0.12316	0.16809	0.13032	0.3778	0.052968	0.12366	0.19924	0.13603	0.098188	0.34495	0.076076	0.34164	0.064834	0.22696	0.16454	0.22942	-1.7854	-1.7854	-1.4292	-2.1312	-1.4229	-1.6583	-2.2375	-1.4771	-2.0312	-2.0021	-1.5542	-2.4521	-1.6271	-1.8438	-2.2125	-1.4708	160.928	153.427	232.675	337.729	271.504	210.013	298.472	353.229	216.372	98.730	19.739	266.898	73.451	173.177	45.214	244.295	0.00058574	0.0018657	0.00024723	630.59	1.3862e-05	2.4644e-05	1263	123.16	2.6227e-05	1.4908e-05	420.81	143.99	31.337	11.295	3.4623e-05	64.031	0.0073805	0.0088535	0.0024729	647.1	9.4651e-05	9.8341e-05	1147.8	133.14	9.3546e-05	0.00010147	414.6	139.58	44.243	15.556	0.00010094	61.903	81.123	91.602	159.448	8.613	33.679	315.693	9.026	12.385	295.948	170.643	13.024	18.046	16.374	22.432	225.593	21.813	-8191	255	
5180.066	1	1	0	0	0.12717	0.29858	0.14786	0.07849	0.19387	0.090062	0.1958	0.35278	0.21849	0.301	0.31111	0.10932	0.10684	0.093429	0.11365	0.34531	-1.5875	-1.9146	-1.325	-2.4083	-1.4583	-1.5396	-2.4167	-1.6167	-1.9583	-2.0563	-1.5042	-2.3479	-1.6688	-1.6063	-2.3875	-1.4833	187.985	233.487	206.664	2.614	135.974	104.553	337.157	1.881	29.004	182.391	352.227	225.892	333.244	150.015	144.324	291.670	0.00029828	0.0017425	0.0004041	641.61	5.0455e-06	1.8451e-05	1265	123.84	1.6821e-05	1.2109e-05	415.47	144.5	32.159	11.326	2.4032e-05	64.353	0.0076732	0.0094589	0.0025909	657.6	9.9637e-05	0.00010145	1154.2	134.25	9.6093e-05	0.00010254	413.37	139.87	44.331	15.503	9.7134e-05	61.783	90.420	267.932	72.717	8.942	62.794	260.234	9.365	12.544	141.883	293.823	13.404	17.614	18.589	22.234	177.171	21.558	-8191	255	
5180.162	1	1	0	0	0.043138	0.19331	0.17471	0.17258	0.12155	0.041855	0.26892	0.28559	0.079285	0.19709	0.29094	0.24049	0.085246	0.43247	0.13779	0.085796	-1.6938	-1.9708	-1.2333	-2.1167	-1.6688	-1.5958	-2.4167	-1.6479	-1.6604	-2.1354	-1.6708	-2.3	-1.9229	-1.4396	-2.325	-1.7042	106.716	173.486	203.629	48.119	61.704	198.546	237.694	6.519	334.965	236.299	312.741	263.616	108.968	246.084	351.310	256.666	0.00073278	0.00078722	8.0914e-05	646.73	2.8269e-05	2.699e-05	1258.9	125.14	1.69e-05	1.5263e-05	417.85	147.09	32.222	11.392	6.7111e-06	64.95	0.0075798	0.0092053	0.0025212	657.42	9.7805e-05	0.00010094	1147.8	133.71	9.3793e-05	0.00010068	413.32	140.91	43.922	15.499	9.6868e-05	62.346	147.842	75.792	71.435	9.157	133.529	241.021	9.331	13.253	208.516	103.945	12.857	17.608	16.901	22.799	-3.911	21.461	-8191	255	
5180.234	1	1	0	0	0.11336	0.10998	0.1046	0.25405	0.14857	0.29873	0.39422	0.13096	0.21453	0.052928	0.14712	0.14218	0.2666	0.18756	0.15413	0.13883	-1.4292	-2.1562	-1.2917	-2.1708	-1.7958	-1.4854	-2.4167	-1.7458	-1.7062	-2.3833	-1.475	-2.4271	-2.0271	-1.5625	-2.2208	-1.7729	285.801	3.549	153.136	280.336	216.457	107.535	293.000	86.789	37.148	130.253	347.780	352.039	133.731	263.830	16.404	278.803	0.00066107	0.00055131	0.00049435	646.92	1.7083e-05	2.1429e-05	1267.9	124.48	1.8545e-05	3.6409e-05	421.53	147.57	31.786	11.794	1.2117e-05	65.767	0.0076774	0.0092213	0.0025566	659.48	0.0001	0.00010194	1155.3	135.5	9.7622e-05	0.00010213	418.57	141.64	44.471	15.698	9.8267e-05	62.916	131.027	35.141	168.803	8.011	-3.155	202.440	9.424	13.235	124.028	240.047	13.532	17.789	17.813	21.629	121.219	21.649	-8191	255	
5180.330	1	1	0	0	0.21021	0.38978	0.17805	0.22866	0.11828	0.16111	0.2562	0.05936	0.3797	0.063245	0.085325	0.39092	0.096572	0.15572	0.1798	0.089714	-1.3542	-2.2062	-1.4312	-2.0396	-2.0354	-1.3375	-2.4938	-1.7271	-1.6104	-2.4042	-1.5812	-2.2042	-2.2833	-1.3333	-2.2438	-1.7979	219.968	139.382	134.212	53.476	291.885	203.701	308.108	95.348	23.487	256.920	153.713	354.802	85.425	68.955	310.784	246.118	0.00052705	0.00050547	0.00085587	655.25	9.2107e-06	1.323e-05	1275.8	125.45	2.378e-05	1.1824e-05	419.23	146.71	32.091	11.642	8.4276e-07	65.274	0.0077	0.0091287	0.0025573	665.16	9.9594e-05	0.00010307	1160.6	135.71	9.7192e-05	0.00010046	414.95	140.87	44.228	15.658	9.729e-05	62.62	122.550	345.912	88.621	8.966	342.281	92.637	9.422	13.814	156.971	302.975	13.189	17.765	17.148	21.943	186.518	21.581	-8191	255	
5180.449	1	1	0	0	0.091002	0.093057	0.17472	0.24753	0.16433	0.3077	0.24498	0.42744	0.16887	0.19823	0.30141	0.36376	0.10496	0.089293	0.19388	0.12202	-1.2875	-2.3042	-1.5604	-1.8583	-2.1375	-1.4458	-2.4708	-1.8687	-1.4438	-2.3521	-1.6729	-1.8542	-2.2792	-1.525	-2.0021	-2.0062	137.611	32.962	209.111	348.958	15.883	264.338	283.770	241.692	113.664	12.865	13.410	288.377	119.324	35.710	208.436	167.601	0.00051427	0.001994	0.00038249	654.5	6.573e-06	2.1083e-05	1270.3	126.48	1.8828e-05	1.8129e-05	420.96	146.26	31.734	11.5	1.3697e-05	64.851	0.007709	0.0090716	0.0025789	663.69	9.8807e-05	0.00010115	1157.4	136.36	9.7082e-05	0.00010004	417.74	141.08	44.265	15.684	9.8361e-05	62.64	134.088	-1.756	92.033	8.374	329.245	56.363	9.445	12.795	63.530	180.520	13.365	17.752	17.309	21.611	222.899	21.072	-8191	255	
5180.545	1	1	0	0	0.2591	0.16845	0.21963	0.24508	0.093458	0.081377	0.38702	0.3283	0.26936	0.19936	0.061601	0.066529	0.18934	0.20606	0.16442	0.38129	-0.97708	-2.2125	-1.55	-1.6542	-2.1708	-1.6	-2.1167	-1.9021	-1.2313	-2.2792	-1.7188	-1.7854	-2.2604	-1.3396	-1.9438	-2.1333	304.671	170.617	159.208	336.692	295.072	336.103	307.501	254.202	292.952	289.865	13.244	316.256	56.069	16.803	259.063	345.975	0.00064948	0.00077208	0.00045002	649.37	1.5978e-05	1.6854e-05	1274.7	125.9	1.4846e-05	1.4466e-05	419.43	146.14	31.963	11.512	5.544e-06	64.956	0.0077938	0.0092789	0.0026439	666.69	0.00010057	0.00010394	1164.1	136.55	9.9211e-05	0.00010366	420.07	141.6	44.699	15.835	0.00010096	62.882	146.164	72.268	44.259	9.052	114.442	75.837	9.162	13.180	100.224	99.687	13.384	17.951	17.291	22.168	263.547	21.449	-8191	255	
5180.643	1	1	0	0	0.080875	0.17702	0.23203	0.26154	0.20861	0.19669	0.34068	0.21595	0.054567	0.11922	0.084265	0.15054	0.26588	0.1302	0.15122	0.29054	-1.0292	-2.3042	-1.6396	-1.5479	-2.0208	-1.5187	-2.2417	-2.2	-1.4875	-2.1688	-1.9688	-1.7375	-2.2667	-1.3875	-1.8021	-2.2479	309.638	2.723	166.460	280.740	88.732	173.164	302.921	238.150	279.489	61.949	262.529	214.070	13.077	21.572	292.653	276.169	0.00090532	0.00092215	0.00055084	656.83	1.5424e-05	5.673e-06	1274.2	126.24	3.7181e-06	3.1287e-05	423.07	148.51	32.155	11.562	3.5135e-05	65.775	0.0079335	0.0092667	0.0026308	671.66	9.8265e-05	0.0001041	1164.4	137.16	9.7998e-05	0.0001006	420.33	142.61	44.456	15.801	9.9394e-05	63.451	80.880	16.734	185.379	8.855	115.588	162.333	9.659	13.556	339.154	137.529	13.215	17.967	17.986	22.184	204.011	21.292	-8191	255	
5180.762	1	1	0	0	0.23688	0.10961	0.25954	0.11308	0.22591	0.18629	0.19897	0.13498	0.084573	0.11334	0.33597	0.020317	0.13472	0.25859	0.24706	0.16049	-0.96042	-2.0312	-1.8417	-1.5042	-2.1958	-1.5438	-1.9729	-2.2208	-1.2854	-1.9792	-2.0687	-1.425	-2.3937	-1.7687	-1.7104	-2.3646	311.844	20.896	34.169	101.375	196.342	272.784	338.420	341.161	150.991	13.134	25.116	239.342	69.504	167.889	160.026	312.491	0.00069273	0.0014615	0.00021262	653.72	1.1684e-05	1.6026e-05	1284.2	125.95	3.2783e-05	2.0349e-05	424.06	145.47	31.593	11.544	1.6917e-05	66.042	0.0077153	0.0090915	0.0026022	670.18	9.7368e-05	0.00010266	1169.3	136.71	9.7792e-05	0.00010137	419.68	141.86	44.374	15.935	0.00010035	63.169	93.915	317.402	119.210	8.962	282.160	219.340	9.543	12.997	207.848	160.969	12.560	17.364	18.404	22.242	265.395	21.722	-8191	255	
5180.833	1	1	0	0	0.12611	0.14514	0.30151	0.1451	0.066015	0.29332	0.46857	0.10341	0.20286	0.29151	0.44502	0.17647	0.25209	0.1063	0.22347	0.10482	-0.91458	-2.1063	-2.1833	-1.5979	-2.3438	-1.8687	-1.7521	-2.3812	-1.4813	-1.9208	-2.2271	-1.5396	-2.2562	-1.7125	-1.4188	-2.6437	327.709	131.730	215.779	286.589	338.864	7.594	281.982	276.141	301.463	41.057	10.115	340.748	13.582	304.172	230.648	324.091	0.00021913	0.00095518	0.00044795	655.28	1.9516e-05	1.2911e-05	1284.3	125.44	1.0183e-05	2.6301e-05	420.73	143.53	31.548	11.339	1.2447e-05	64.531	0.0077711	0.0092153	0.0026612	671.27	9.8154e-05	0.00010503	1171.4	137.57	0.00010202	0.0001062	422.03	141.33	45.393	16.266	0.0001085	62.886	88.168	28.105	269.484	9.133	268.539	194.047	9.417	13.193	326.808	156.565	13.347	17.549	18.012	21.372	350.003	21.441	-8191	255	
5180.931	1	1	0	0	0.16302	0.20224	0.0051614	0.24732	0.26274	0.27928	0.11993	0.080119	0.22642	0.16729	0.17492	0.056985	0.24219	0.32908	0.11307	0.15097	-1.1104	-2.0333	-1.9917	-1.4438	-2.4917	-1.85	-1.6479	-2.2687	-1.55	-2.0375	-2.1979	-1.4583	-2.2313	-1.8479	-1.4396	-2.3021	213.154	341.936	311.571	327.330	21.174	30.358	16.905	99.021	332.394	300.550	8.266	280.029	113.496	273.894	69.290	3.969	0.00037896	0.0014851	0.00052338	660.67	2.0768e-05	2.0401e-05	1281.9	125.74	7.5765e-06	1.9805e-05	421.24	142.18	31.934	11.198	9.3934e-06	64.001	0.0084433	0.010125	0.0028818	691.37	0.0001078	0.00011615	1185.5	140.88	0.00011187	0.00011604	427.46	142.43	46.581	16.502	0.00011342	62.955	47.592	234.830	194.636	8.623	196.190	-0.957	9.620	12.823	271.025	114.681	13.167	17.976	17.994	21.214	1.437	21.486	-8191	255	
5181.050	1	1	0	0	0.14606	0.17283	0.12451	0.11619	0.32505	0.081528	0.28551	0.33976	0.27563	0.31197	0.054174	0.013462	0.28119	0.18429	0.067104	0.1034	-1.1125	-1.8	-2.125	-1.4708	-2.0354	-1.8396	-1.4854	-2.3271	-1.6167	-1.7458	-2.3479	-1.4979	-1.8687	-2.0646	-1.2896	-2.3146	6.616	205.180	16.114	263.289	58.777	97.869	305.096	252.188	204.926	199.617	315.751	204.255	194.969	328.932	312.597	249.244	0.00068307	0.0015762	1.738e-05	665.74	1.782e-05	6.8225e-06	1290.5	126.52	1.1671e-05	3.176e-05	418.59	144.02	31.543	11.366	1.3192e-05	65.018	0.0088882	0.010461	0.002952	697.67	0.00011028	0.00011598	1186.2	139.77	0.00010823	0.00011069	421.3	141.25	45.28	16.087	0.00010623	62.6	60.884	52.406	41.200	8.465	3.909	90.016	9.091	12.878	222.145	219.208	13.028	17.600	17.902	21.968	72.765	21.807	-8191	255	
5181.146	1	1	0	0	0.20572	0.26884	0.037875	0.17533	0.11318	0.2257	0.29061	0.02234	0.39519	0.090939	0.10859	0.11268	0.20232	0.11034	0.021889	0.054621	-1.2583	-1.4146	-2.2687	-1.5521	-1.9958	-2.0625	-1.5708	-2.3042	-1.7042	-1.6042	-2.2875	-1.7042	-1.8521	-2.025	-1.3521	-2.1417	198.891	342.963	144.571	55.825	194.350	17.756	288.640	244.428	17.807	12.068	315.830	253.866	305.982	344.685	323.282	75.030	0.00069919	0.00068306	0.00039407	657.88	1.7403e-05	9.4509e-06	1276.3	125.62	1.1526e-05	1.0425e-05	418.76	144.59	31.534	11.215	1.9787e-05	64.672	0.0082996	0.0096974	0.0026948	676.88	0.00010056	0.0001066	1167.2	136.75	0.0001016	0.0001047	417.24	140.56	44.241	15.814	0.0001043	62.408	106.131	56.165	204.162	8.943	206.581	236.145	9.162	12.429	37.361	234.449	13.340	17.777	18.472	21.426	152.783	21.569	-8191	255	
5181.242	1	1	0	0	0.1582	0.20922	0.17363	0.12991	0.17822	0.22947	0.2109	0.22691	0.26318	0.19842	0.16231	0.09552	0.098302	0.042981	0.15538	0.19877	-1.4604	-1.3979	-2.3292	-1.5271	-1.5521	-2.1271	-1.5187	-2.0375	-1.7854	-1.3354	-2.3646	-1.7	-1.6333	-2.2417	-1.2354	-2.0812	172.880	83.655	66.387	289.891	334.256	293.768	256.438	352.867	338.465	216.450	260.666	19.901	58.391	223.372	180.362	279.045	0.0005338	0.0023298	0.00026978	660.45	2.3603e-05	1.6177e-05	1282.8	126.33	1.4446e-05	1.7335e-05	418.81	144.99	31.764	11.201	8.2915e-06	64.501	0.0081898	0.0096947	0.0027228	684.65	0.00010493	0.00011114	1176.7	138.89	0.00010882	0.00011188	421.4	142.24	45.891	16.218	0.00010914	62.708	89.987	121.819	3.306	8.808	99.636	147.710	9.253	13.210	106.279	291.706	12.594	17.244	17.944	21.610	171.315	21.497	-8191	255	
5181.363	1	1	0	0	0.17153	0.14479	0.21262	0.067282	0.22735	0.1361	0.052984	0.044935	0.048962	0.17014	0.059131	0.15952	0.25382	0.14971	0.2104	0.16166	-1.6313	-1.2521	-2.0687	-1.7917	-1.6521	-2.2875	-1.5854	-1.9333	-2.0458	-1.3729	-2.3896	-1.7104	-1.5104	-2.3042	-1.3667	-1.9542	53.560	291.340	227.668	248.006	306.941	80.418	264.427	52.056	124.304	223.151	246.810	299.034	325.238	225.437	243.631	351.750	0.00069573	0.0011538	0.00049054	654.55	7.441e-06	7.223e-06	1277.5	126.62	1.3073e-05	2.1255e-05	418.18	145.95	31.592	11.274	1.6286e-05	64.358	0.0087273	0.010197	0.0027992	688.37	0.00010778	0.00011225	1177.9	138.91	0.00010677	0.00011018	420.36	142.01	45.35	15.92	0.00010458	62.656	94.416	304.285	19.488	8.873	329.109	253.201	8.967	13.394	3.250	7.305	13.042	17.840	17.711	21.891	154.850	21.475	-8191	255	
5181.459	1	1	0	0	0.32682	0.10934	0.24784	0.36857	0.30864	0.077764	0.1665	0.17219	0.26856	0.037613	0.26797	0.12872	0.079672	0.0804	0.12677	0.063433	-1.7396	-1.2708	-2.1354	-1.8604	-1.4771	-2.3563	-1.6917	-1.8312	-2	-1.3042	-2.2396	-1.8979	-1.45	-2.3125	-1.4229	-1.8438	326.109	340.797	47.109	18.799	312.990	250.073	338.718	340.609	282.598	229.750	-0.391	48.862	322.126	84.027	310.782	42.670	0.00057948	0.0018567	0.00048727	654.14	3.2622e-06	2.0606e-05	1268.8	125.74	8.9055e-06	1.6077e-05	421.95	146.48	32.561	11.42	2.2147e-05	65.756	0.0081768	0.0095856	0.0026624	676.19	0.00010227	0.00010551	1164.9	137.25	0.00010253	0.00010622	418.36	142.51	45.074	15.926	0.00010495	63.447	94.828	165.588	259.720	8.595	0.276	192.743	9.328	13.239	16.251	108.396	13.539	17.770	17.407	21.484	131.414	21.507	-8191	255	
5181.529	1	1	0	0	0.21626	0.12951	0.14777	0.277	0.027884	0.10299	0.28622	0.24856	0.17126	0.21025	0.20046	0.18848	0.22235	0.30335	0.30765	0.14401	-1.8375	-1.4813	-2.0563	-1.8792	-1.3354	-2.1583	-1.7	-1.6708	-2.2625	-1.4854	-1.9833	-2.0021	-1.5	-2.3271	-1.6479	-1.6271	13.269	239.526	44.524	354.562	328.254	221.828	301.772	25.070	84.407	221.295	339.407	239.580	351.329	262.704	157.587	25.643	0.00087697	0.0014207	0.00085076	646.38	1.4018e-05	2.417e-05	1271.8	124.89	1.7573e-05	1.1552e-05	423.77	147.37	32.134	11.558	1.3337e-05	65.756	0.0081568	0.0096087	0.0026639	676.32	0.00010152	0.00010354	1166.8	136.08	9.9273e-05	0.00010243	416.41	142.32	44.699	15.794	0.00010191	62.873	120.861	137.622	273.390	8.469	90.314	255.438	9.560	13.581	87.317	211.155	13.194	18.015	18.466	22.723	215.095	21.804	-8191	255	
5181.650	1	1	0	0	0.13406	0.14329	0.09156	0.34223	0.1497	0.29293	0.14717	0.36411	0.17111	0.076825	0.094041	0.23103	0.061032	0.21258	0.058562	0.39744	-1.7792	-1.275	-1.8271	-2.1333	-1.2292	-2.1146	-1.9354	-1.6042	-2.2854	-1.6021	-1.8917	-2.1958	-1.2125	-2.2896	-1.7563	-1.6854	239.171	153.918	284.986	285.935	88.167	324.258	215.616	283.273	155.182	306.062	223.622	276.340	237.668	60.560	137.163	277.597	0.00061001	0.001301	0.00037632	656.35	1.7563e-05	3.0377e-05	1275.7	125.41	1.3184e-05	4.3977e-06	419.56	145.67	31.923	11.416	1.032e-05	65.981	0.007827	0.0093306	0.0025507	672.85	9.9349e-05	0.00010144	1164.5	136.19	9.7524e-05	0.00010224	416.44	141.69	44.353	15.655	9.8379e-05	62.785	144.836	343.786	68.732	8.496	93.137	252.873	9.504	13.613	102.150	28.162	13.325	17.260	18.067	22.631	122.981	21.710	-8191	255	
5181.746	1	1	0	0	0.15683	0.13618	0.12421	0.14713	0.22219	0.10283	0.22742	0.4221	0.11755	0.28654	0.17808	0.092397	0.083429	0.20182	0.12255	0.17043	-1.9042	-1.525	-1.7729	-2.0542	-1.3146	-2.1292	-1.9354	-1.6104	-2.2458	-1.4646	-1.7667	-2.1896	-1.4083	-2.0833	-1.9458	-1.6896	92.761	116.111	1.715	325.825	38.689	213.749	329.143	349.291	140.245	116.154	310.691	334.873	293.694	26.842	303.493	11.663	0.00069214	0.002559	0.00030449	652.06	1.0283e-05	1.0503e-05	1272.2	125.95	2.1267e-05	1.81e-05	423.32	147.46	32.278	11.625	1.605e-05	65.548	0.0074063	0.0088261	0.0024573	659.43	9.2626e-05	9.5374e-05	1154.8	134.06	9.0438e-05	9.7167e-05	415.85	141.16	43.647	15.42	9.6308e-05	62.999	129.936	64.413	325.120	9.080	44.990	275.536	9.111	13.483	205.809	149.003	13.201	17.861	18.087	22.566	7.925	21.641	-8191	255	
5181.842	1	1	0	0	0.38617	0.13461	0.088026	0.17835	0.14337	0.15721	0.1604	0.33248	0.17454	0.3113	0.24614	0.15998	0.36825	0.094018	0.30369	0.091956	-1.9188	-1.6688	-1.7042	-2.2917	-1.4688	-1.9583	-2.0417	-1.4521	-2.1771	-1.7188	-1.7188	-2.6021	-1.3542	-1.8208	-2.0438	-1.5083	58.966	318.924	345.919	232.050	44.056	80.696	332.628	240.019	78.408	41.958	277.260	285.821	232.946	259.773	310.721	334.105	0.00065198	0.00093519	0.00052516	647.08	1.7113e-05	1.3131e-05	1288.7	126.98	2.3159e-05	2.1117e-05	426.32	148.6	32.594	11.924	1.2237e-05	67.471	0.0072921	0.0088799	0.0024417	660.46	9.4098e-05	9.6043e-05	1164	135.34	9.1462e-05	9.6809e-05	416.46	141.83	43.473	15.504	9.3415e-05	63.616	178.698	208.568	123.271	8.953	172.719	84.548	9.219	13.139	268.074	74.728	12.780	17.413	18.134	21.624	342.477	21.620	-8191	255	
5181.938	1	1	0	0	0.1164	0.14981	0.093336	0.19511	0.1601	0.18792	0.20611	0.30244	0.15468	0.24212	0.18578	0.11307	0.2705	0.31484	0.094265	0.099989	-1.8792	-1.6812	-1.6521	-2.3979	-1.5729	-1.9479	-2.3	-1.6583	-2.3167	-1.7917	-1.475	-2.4854	-1.4583	-1.6667	-2.3292	-1.6958	-0.791	14.595	6.351	35.159	121.667	354.411	321.875	-2.106	72.954	186.917	283.679	293.779	8.024	290.408	325.603	314.001	0.00064349	0.0019793	0.00048492	651.53	2.2526e-05	5.1483e-06	1276.3	127.31	1.7302e-05	1.3917e-05	426.52	150.12	32.236	11.755	2.0267e-05	67.187	0.0069989	0.0085464	0.002354	652.66	9.0326e-05	9.2982e-05	1153.9	134.11	8.6615e-05	9.3992e-05	416.03	142.68	43.185	15.392	9.2221e-05	63.446	114.875	99.801	141.072	8.616	116.628	303.561	9.572	13.040	130.728	275.216	13.006	17.828	16.782	21.684	244.000	21.734	-8191	255	
5182.034	1	1	0	0	0.38662	0.33061	0.037064	0.12287	0.19029	0.16983	0.12387	0.12027	0.2206	0.33977	0.29442	0.25205	0.095893	0.14993	0.30359	0.32367	-1.6479	-1.9292	-1.5562	-2.2958	-1.5604	-1.7208	-2.3563	-1.4292	-2.0396	-2.1188	-1.2354	-2.4167	-1.5583	-1.6021	-2.3438	-1.6208	187.320	116.635	33.487	310.569	56.026	230.103	302.991	101.053	149.072	85.870	18.548	342.743	28.607	14.840	72.984	226.803	0.00080809	0.0024794	0.00028652	654.76	9.3694e-06	3.2486e-05	1278.9	126.91	4.853e-06	2.4476e-05	426.91	148.46	32.459	11.771	9.1513e-06	66.261	0.0070935	0.0086011	0.0023577	657.39	9.2092e-05	9.5661e-05	1159	134.58	8.9566e-05	9.7629e-05	416.18	141.12	43.667	15.493	9.4335e-05	62.952	67.657	249.327	276.979	8.764	90.997	245.020	9.376	13.479	132.291	37.380	13.760	17.897	17.610	22.684	4.109	21.819	-8191	255	
5182.131	1	1	0	0	0.1128	0.21067	0.19209	0.13121	0.12254	0.16081	0.35548	0.070066	0.083165	0.031397	0.38784	0.06484	0.3246	0.19328	0.32065	0.13309	-1.4854	-1.9021	-1.3854	-2.3854	-1.8146	-1.6104	-2.5292	-1.5063	-1.8979	-1.9604	-1.5521	-2.4062	-1.7958	-1.6667	-2.4	-1.6479	18.746	146.533	101.818	293.298	87.760	274.636	324.909	61.902	248.056	336.159	261.998	62.149	259.428	311.497	292.153	350.413	0.00044459	0.0020816	0.00023064	643.58	9.1107e-06	1.6546e-05	1276.3	125.64	2.7135e-05	2.839e-05	424.01	148.43	31.844	11.608	1.7824e-05	66.098	0.0071648	0.0088441	0.0024485	656.31	9.3882e-05	9.5923e-05	1156.7	133.66	9.0451e-05	9.6224e-05	415.28	141.68	43.288	15.34	9.2243e-05	62.913	85.489	153.610	91.302	8.899	163.634	180.378	9.183	13.152	92.396	91.404	12.557	17.806	17.285	23.261	51.355	21.567	-8191	255	
5182.227	1	1	0	0	0.19706	0.13928	0.079089	0.15889	0.13509	0.063991	0.11829	0.30697	0.096461	0.30691	0.05762	0.03119	0.028808	0.31718	0.12049	0.27607	-1.5521	-2.0229	-1.4625	-2.2792	-1.9396	-1.5458	-2.4375	-1.5708	-1.7854	-2.1042	-1.5792	-2.2979	-1.8729	-1.6583	-2.2208	-1.7521	199.207	197.361	77.617	-1.308	240.074	141.612	274.468	324.922	188.950	350.798	158.436	296.002	244.576	266.465	55.146	15.429	0.00065571	0.0010989	0.00034487	651.08	1.0486e-05	1.683e-05	1273.6	126.62	2.7152e-05	1.7252e-06	424.66	148.93	33.057	11.77	1.4587e-05	67.441	0.0071743	0.008808	0.0024285	658.96	9.4286e-05	9.565e-05	1156.5	134.35	9.049e-05	9.5022e-05	414.61	141.86	43.436	15.302	8.8016e-05	63.421	81.508	199.960	349.946	8.798	54.450	12.668	9.605	13.455	191.153	312.161	13.372	17.720	17.654	20.920	329.621	21.464	-8191	255	
5182.323	1	1	0	0	0.035518	0.08127	0.085795	0.050271	0.18497	0.11205	0.35815	0.17167	0.26429	0.11148	0.12019	0.23699	0.25205	0.095697	0.22718	0.097317	-1.4083	-2.4437	-1.4042	-2.2313	-2.0542	-1.3875	-2.5833	-1.7125	-1.5896	-2.3688	-1.7458	-2.0875	-2.1437	-1.3583	-2.2354	-2.0604	127.535	320.559	325.011	240.560	318.572	347.939	294.345	305.395	192.444	215.348	22.515	347.390	316.537	177.227	113.435	332.943	0.00055972	0.0016087	0.00031081	641.32	7.3998e-06	1.205e-05	1261.1	126.1	1.9247e-05	1.7491e-05	422.11	150.09	32.037	11.774	2.0072e-05	66.279	0.0069183	0.0083116	0.0023103	641.05	8.9946e-05	9.1181e-05	1140.4	132.62	8.6201e-05	8.9244e-05	411.67	141.84	42.452	15.198	8.6773e-05	62.871	8.829	193.297	132.551	9.002	248.066	339.005	10.033	13.159	223.782	178.456	13.486	18.027	17.263	22.661	229.459	21.568	-8191	255	
5182.443	1	1	0	0	0.15209	0.15314	0.24489	0.27793	0.17185	0.039562	0.32664	0.040887	0.026341	0.19515	0.1927	0.045449	0.1494	0.20089	0.16859	0.25741	-1.2021	-2.2313	-1.4	-1.9083	-2.0896	-1.4167	-2.4396	-1.9125	-1.45	-2.3625	-1.6125	-1.8417	-2.2521	-1.4125	-2.15	-1.875	215.572	224.650	10.892	258.226	99.424	185.444	0.046	160.167	-0.268	136.040	305.403	240.108	183.623	292.231	203.101	30.205	0.00044333	0.001799	0.00037214	643.81	7.7505e-06	1.6756e-05	1269.8	125.03	2.2047e-05	3.5056e-05	423.75	148.59	32.073	11.921	2.1445e-05	67.209	0.0068894	0.0081533	0.0022868	642.94	8.7874e-05	9.0756e-05	1145.2	132.36	8.6241e-05	8.9501e-05	412.85	141.52	42.677	15.174	8.5115e-05	63.326	98.368	140.177	116.853	8.563	347.803	214.927	9.633	13.174	-0.757	204.417	13.451	18.070	18.244	22.564	204.495	21.199	-8191	255	
5182.538	1	1	0	0	0.20677	0.099934	0.48594	0.079821	0.12913	0.35564	0.42957	0.24799	0.27177	0.071457	0.053507	0.31213	0.036492	0.050435	0.071607	0.18912	-0.90833	-2.225	-1.6396	-1.6417	-2.1917	-1.3792	-2.3063	-2.1083	-1.3333	-2.3083	-1.6292	-1.8208	-2.3812	-1.35	-2.0542	-2.1813	319.976	90.052	234.743	-0.216	278.519	65.402	276.461	317.452	142.568	270.445	307.535	322.709	156.899	262.220	-0.093	97.648	0.00042638	0.0020644	0.00067144	641.71	9.6831e-06	2.3553e-06	1274.7	125.55	8.122e-06	9.7378e-06	433.01	151.38	33.232	11.98	1.108e-05	67.755	0.0067221	0.0078244	0.0022166	638.92	8.3964e-05	8.5959e-05	1147.6	132.22	8.1804e-05	8.521e-05	413	142.02	42.289	15.065	8.2717e-05	63.383	147.454	73.911	342.530	8.692	120.381	205.608	9.621	13.767	60.977	67.054	12.868	18.183	17.440	23.154	59.071	21.815	-8191	255	
5182.634	1	1	0	0	0.14906	0.12473	0.10941	0.090003	0.15534	0.10421	0.09582	0.13279	0.15705	0.096578	0.14747	0.031073	0.15309	0.12539	0.13748	0.15479	-0.96042	-2.125	-1.725	-1.7354	-2.475	-1.4125	-2.1396	-2.1708	-1.25	-2.2	-1.9062	-1.4917	-2.3563	-1.5333	-1.8687	-2.2521	240.702	8.430	266.503	203.382	242.388	284.085	145.817	293.810	303.078	58.716	336.310	276.113	301.718	304.839	11.336	341.229	0.00042248	0.0010503	0.00028782	642.63	1.7385e-05	8.3695e-06	1269.2	124.55	4.9409e-06	1.4908e-05	434.29	152.13	32.361	11.916	1.4717e-05	67.423	0.006488	0.0075979	0.002153	636.04	8.1831e-05	8.4994e-05	1138.7	131.04	8.0489e-05	8.3102e-05	413.36	142.34	42.182	14.867	8.1311e-05	63.398	136.489	107.030	222.112	8.880	277.199	254.519	9.569	13.307	269.980	149.571	13.535	18.176	19.242	22.201	66.554	21.697	-8191	255	
5182.730	1	1	0	0	0.10199	0.12546	0.26926	0.29016	0.17908	0.10247	0.3293	0.26149	0.13366	0.1245	0.10307	0.28065	0.29245	0.041002	0.072324	0.10975	-1.1229	-2.0271	-1.7104	-1.6292	-2.2875	-1.5146	-2.0104	-2.2104	-1.4167	-2.0625	-1.9917	-1.5229	-2.2479	-1.5771	-1.7062	-2.2938	66.868	351.886	115.235	0.943	229.677	240.255	288.881	230.643	163.253	257.839	-3.089	-4.210	236.430	322.088	27.840	42.241	0.00062676	0.0010677	0.00042521	642.65	7.0139e-06	2.1183e-06	1269.8	127.27	4.7051e-06	5.6183e-06	429.98	150.59	33.326	11.767	4.2744e-06	68.032	0.006399	0.0074739	0.0021642	636.54	8.0354e-05	8.4056e-05	1140.8	131.65	8.0471e-05	8.1363e-05	413.15	141.91	41.975	14.828	8.0897e-05	63.597	93.382	9.210	185.949	8.622	219.350	150.781	9.347	12.869	-3.479	335.334	13.508	18.105	16.990	21.402	92.965	21.104	-8191	255	
5182.826	1	1	0	0	0.11947	0.06905	0.14448	0.16508	0.24335	0.25588	0.39538	0.104	0.065706	0.1301	0.20372	0.15942	0.13793	0.12396	0.2105	0.23341	-0.975	-1.8792	-2.05	-1.4333	-2.0812	-1.6458	-1.8667	-2.2979	-1.3854	-1.8854	-2.05	-1.6	-2.0521	-1.8708	-1.475	-2.4958	76.011	266.481	341.503	192.995	229.660	205.186	351.503	267.993	1.924	261.226	280.725	262.970	178.763	343.937	192.637	350.444	0.0010238	0.0012538	0.00017794	643.11	2.0922e-06	4.1674e-06	1278.2	126.86	1.3524e-05	2.9357e-05	425.67	150.32	32.618	11.843	1.6758e-05	67.078	0.0063261	0.0073427	0.0021205	635.28	7.9284e-05	8.3704e-05	1144.4	131.66	7.9575e-05	8.2391e-05	413.01	141.83	42.012	15.031	8.3916e-05	63.192	92.069	303.301	165.621	8.075	211.761	20.644	9.307	13.054	22.925	322.191	12.429	17.499	17.700	20.918	303.908	20.917	-8191	255	
5182.922	1	1	0	0	0.16047	0.18525	0.22467	0.15036	0.12505	0.32361	0.33073	0.16637	0.11626	0.11753	0.11846	0.1865	0.28582	0.096523	0.044474	0.3535	-1.0125	-1.8062	-2.1979	-1.5208	-2.1229	-1.8583	-1.5688	-2.1063	-1.3625	-1.7354	-2.1521	-1.4021	-2.1333	-1.9458	-1.4042	-2.2958	261.730	114.340	242.651	243.799	98.560	146.749	332.606	205.532	262.614	339.148	-1.816	328.434	138.722	147.838	267.466	277.353	0.00042357	0.0021907	0.00031945	644.68	6.8056e-06	1.6014e-05	1274.6	128.9	1.4294e-05	2.3712e-05	432.27	150.21	33.24	11.816	2.2217e-05	66.535	0.0066413	0.0077775	0.0021884	642.22	8.2242e-05	8.6893e-05	1152.3	133.07	8.3909e-05	8.6275e-05	414.86	141.75	42.339	15.233	8.6225e-05	62.88	136.340	89.704	155.962	8.387	344.332	243.953	9.173	12.258	27.977	197.217	13.000	17.401	16.910	23.049	175.679	21.121	-8191	255	
5183.043	1	1	0	0	0.20746	0.23765	0.34226	0.16824	0.22706	0.0825	0.1387	0.12104	0.070491	0.083854	0.14182	0.18055	0.092501	0.16639	0.11197	0.32296	-1.1979	-1.7292	-2.1042	-1.4229	-1.9333	-1.9771	-1.4688	-2.3917	-1.4979	-1.6542	-2.3479	-1.5021	-2.1354	-2.0812	-1.3771	-2.3063	198.024	128.480	32.139	315.947	190.990	347.631	16.380	75.392	243.142	231.653	262.626	329.419	38.372	283.729	-4.440	288.778	0.00046241	0.00058377	0.00050264	657.65	1.9766e-05	2.6946e-05	1286	128.77	4.2901e-06	1.368e-05	433.11	150.03	33.016	11.756	1.4724e-05	67.446	0.0068751	0.0080508	0.0022856	651.65	8.5803e-05	9.1259e-05	1162.7	133.85	8.7369e-05	9.057e-05	416.94	142.49	43.315	15.325	9.0924e-05	63.284	88.623	176.183	353.662	8.513	225.853	224.989	9.010	12.852	226.629	342.646	12.520	17.260	17.973	21.143	342.751	21.064	-8191	255	
5183.139	1	1	0	0	0.21809	0.21508	0.18538	0.27593	0.33204	0.097775	0.34668	0.24448	0.15478	0.116	0.3299	0.14835	0.095532	0.23047	0.29928	0.17308	-1.1063	-1.6271	-2.1458	-1.4188	-1.9646	-2.0646	-1.3937	-2.1	-1.7625	-1.5604	-2.3625	-1.575	-1.8646	-2.0542	-1.2708	-2.2396	260.076	245.474	141.782	298.274	3.078	12.004	290.860	222.499	214.210	262.567	300.667	175.138	282.206	157.701	10.106	320.286	0.00050231	0.0019978	0.00012406	658.25	1.6819e-05	2.1009e-05	1298.9	127.57	2.4034e-05	1.55e-05	431.7	149.52	33.338	11.774	9.4295e-06	66.269	0.0070947	0.0083793	0.002334	661.04	8.8755e-05	9.5151e-05	1173.7	135.45	9.0298e-05	9.4804e-05	419.34	142.63	43.888	15.517	9.3994e-05	63.009	92.383	39.974	60.538	8.007	232.573	75.944	9.309	12.613	285.000	202.933	12.918	17.490	18.762	21.631	103.812	21.521	-8191	255	
5183.235	1	1	0	0	0.1457	0.23465	0.1847	0.11373	0.061777	0.14594	0.20981	0.13567	0.30718	0.15867	0.14601	0.18662	0.20145	0.22842	0.21772	0.11255	-1.4042	-1.4854	-2.2271	-1.6333	-1.7875	-2.2438	-1.5917	-2.1208	-1.8729	-1.4792	-2.3875	-1.65	-1.675	-2.25	-1.2396	-2.3063	253.069	13.460	263.043	315.740	5.268	243.369	302.693	265.763	312.064	116.271	28.456	0.366	340.108	292.982	345.510	14.889	0.00062273	0.0011356	0.00049437	659.05	1.6345e-05	2.976e-05	1289	127.7	1.616e-05	6.4907e-06	421.59	148.44	32.755	11.43	1.201e-05	65.803	0.0073892	0.0086932	0.0024048	668.49	9.1535e-05	9.7503e-05	1171.5	136.2	9.3936e-05	9.6768e-05	419.46	142.57	44.382	15.738	9.8106e-05	63.163	138.341	324.462	280.100	8.220	168.988	107.521	8.934	13.086	51.078	217.028	12.234	17.413	17.978	21.360	178.427	21.415	-8191	255	
5183.332	1	1	0	0	0.29728	0.28938	0.12793	0.3056	0.13576	0.26004	0.085022	0.15764	0.18101	0.12852	0.25103	0.15892	0.12132	0.17231	0.06126	0.22632	-1.5938	-1.2729	-2.3396	-1.9625	-1.7979	-2.3146	-1.5333	-1.8667	-2.0833	-1.475	-2.3625	-1.7292	-1.5917	-2.3479	-1.4292	-2.1188	218.432	255.437	143.221	26.053	162.072	143.070	284.823	354.119	260.254	193.916	281.933	307.913	130.873	342.299	210.871	352.305	0.00066914	0.0019107	0.00076163	664.09	1.2034e-05	1.1402e-05	1303.5	128.68	2.5267e-05	1.853e-05	427.52	147.22	31.91	11.584	4.1038e-06	65.064	0.0077992	0.0092023	0.0025782	684.28	0.00010188	0.00010768	1194.5	139.91	0.0001056	0.00010999	425.71	144.02	45.962	16.113	0.00010825	63.082	100.425	71.601	239.971	7.993	124.388	342.629	9.418	13.006	74.423	264.551	12.897	17.520	18.548	21.643	179.315	21.388	-8191	255	
5183.428	1	1	0	0	0.10008	0.16517	0.14312	0.21031	0.33583	0.32331	0.452	0.099181	0.27278	0.37885	0.31849	0.15958	0.12477	0.091419	0.20804	0.18694	-1.6146	-1.3833	-2.0729	-1.9083	-1.5792	-2.2833	-1.6375	-1.9042	-2.1458	-1.2896	-2.3104	-1.9146	-1.5792	-2.5	-1.5938	-1.9625	228.058	231.240	91.157	237.922	124.477	90.754	241.609	350.703	30.357	343.068	303.839	297.787	27.357	213.172	222.973	72.798	0.00047685	0.00076401	0.00027469	666.4	7.8569e-06	1.8017e-05	1290.9	127.44	1.8008e-05	4.2755e-06	425.65	147.11	31.884	11.672	2.1099e-05	65.363	0.0084455	0.0098898	0.0027337	692.44	0.00010686	0.00011104	1187.7	140.86	0.00010731	0.00011154	425.61	144.14	46.349	16.377	0.00011126	63.684	146.303	292.734	315.873	8.725	97.374	112.169	8.652	12.257	331.425	-0.914	13.282	17.821	17.500	21.789	286.690	21.807	-8191	255	
#DATA ENDS
