BOXY.EXE: ISS Imagent and Oximeter Data Acquisition Program Version 0.80
Ascii Record File

#ACQ INFORMATION
2  Detector Channels 
16  External MUX Channels 
1  Auxiliary Channels 
5000  Waveform (CCF) Frequency (Hz)
1  Waveforms Skipped 
30  Waveforms Averaged 
1  Cycles Averaged 
16  Acquisitions per Waveform 
10.0806  Updata Rate (Hz) 

#FILE INFORMATION
TRUE -- External MUX Channel results are PARSED.
FALSE -- AC DC and Phase are NOT grouped.
TRUE -- Companion Program Settings File CREATED.
FALSE -- AC data not excluded
FALSE -- DC data not excluded
FALSE -- Phase data not excluded
FALSE -- Auxillary Chn. data not excluded
Tab delimiters

#CALIBRATION STATE
TRUE -- Waveform Calibration Values APPLIED.


#AUX CALIBRATION VALUES
Val Type	aux-1	

Term	1.0000e+00	
Factor	0.0000e+00	


#WF CALIBRATION VALUES
A = Detector Channel
Val Type	A-AC1	A-AC2	A-AC3	A-AC4	A-AC5	A-AC6	A-AC7	A-AC8	A-AC9	A-AC10	A-AC11	A-AC12	A-AC13	A-AC14	A-AC15	A-AC16	A-DC1	A-DC2	A-DC3	A-DC4	A-DC5	A-DC6	A-DC7	A-DC8	A-DC9	A-DC10	A-DC11	A-DC12	A-DC13	A-DC14	A-DC15	A-DC16	A-Ph1	A-Ph2	A-Ph3	A-Ph4	A-Ph5	A-Ph6	A-Ph7	A-Ph8	A-Ph9	A-Ph10	A-Ph11	A-Ph12	A-Ph13	A-Ph14	A-Ph15	A-Ph16	

Term	0.00000e+00	0.00000e+00	0.00000e+00	0.00000e+00	0.00000e+00	0.00000e+00	0.00000e+00	0.00000e+00	0.00000e+00	0.00000e+00	0.00000e+00	0.00000e+00	0.00000e+00	0.00000e+00	0.00000e+00	0.00000e+00	0.00000e+00	0.00000e+00	0.00000e+00	0.00000e+00	0.00000e+00	0.00000e+00	0.00000e+00	0.00000e+00	0.00000e+00	0.00000e+00	0.00000e+00	0.00000e+00	0.00000e+00	0.00000e+00	0.00000e+00	0.00000e+00	0.00000e+00	0.00000e+00	0.00000e+00	0.00000e+00	0.00000e+00	0.00000e+00	0.00000e+00	0.00000e+00	0.00000e+00	0.00000e+00	0.00000e+00	0.00000e+00	0.00000e+00	0.00000e+00	0.00000e+00	0.00000e+00	
Factor	1.00000e+00	1.00000e+00	1.00000e+00	1.00000e+00	1.00000e+00	1.00000e+00	1.00000e+00	1.00000e+00	1.00000e+00	1.00000e+00	1.00000e+00	1.00000e+00	1.00000e+00	1.00000e+00	1.00000e+00	1.00000e+00	1.00000e+00	1.00000e+00	1.00000e+00	1.00000e+00	1.00000e+00	1.00000e+00	1.00000e+00	1.00000e+00	1.00000e+00	1.00000e+00	1.00000e+00	1.00000e+00	1.00000e+00	1.00000e+00	1.00000e+00	1.00000e+00	X	X	X	X	X	X	X	X	X	X	X	X	X	X	X	X	

B = Detector Channel
Val Type	B-AC1	B-AC2	B-AC3	B-AC4	B-AC5	B-AC6	B-AC7	B-AC8	B-AC9	B-AC10	B-AC11	B-AC12	B-AC13	B-AC14	B-AC15	B-AC16	B-DC1	B-DC2	B-DC3	B-DC4	B-DC5	B-DC6	B-DC7	B-DC8	B-DC9	B-DC10	B-DC11	B-DC12	B-DC13	B-DC14	B-DC15	B-DC16	B-Ph1	B-Ph2	B-Ph3	B-Ph4	B-Ph5	B-Ph6	B-Ph7	B-Ph8	B-Ph9	B-Ph10	B-Ph11	B-Ph12	B-Ph13	B-Ph14	B-Ph15	B-Ph16	

Term	0.00000e+00	0.00000e+00	0.00000e+00	0.00000e+00	0.00000e+00	0.00000e+00	0.00000e+00	0.00000e+00	0.00000e+00	0.00000e+00	0.00000e+00	0.00000e+00	0.00000e+00	0.00000e+00	0.00000e+00	0.00000e+00	0.00000e+00	0.00000e+00	0.00000e+00	0.00000e+00	0.00000e+00	0.00000e+00	0.00000e+00	0.00000e+00	0.00000e+00	0.00000e+00	0.00000e+00	0.00000e+00	0.00000e+00	0.00000e+00	0.00000e+00	0.00000e+00	4.17717e+01	-1.31162e+02	-1.22911e+02	-1.83922e+02	-6.30644e+01	-7.02209e+01	-1.56404e+02	-1.62015e+02	-4.52563e+01	-6.41764e+01	-1.71598e+02	-1.69061e+02	-1.81176e+02	-1.77209e+02	-6.47185e+01	-1.50023e+02	
Factor	6.40346e-05	1.52600e-04	4.19047e-05	1.76566e-01	1.85982e-06	1.60018e-06	1.66977e-01	5.01798e-02	2.39878e-06	1.62312e-06	8.77349e-02	2.88353e-02	2.63990e-02	9.67641e-03	1.83296e-06	1.35945e-02	1.77045e-05	2.95731e-05	8.28597e-06	9.26155e-02	2.88225e-07	3.32224e-07	8.18985e-02	2.64251e-02	2.79175e-07	3.33486e-07	4.47295e-02	1.46946e-02	1.40515e-02	5.14846e-03	3.03169e-07	6.99069e-03	X	X	X	X	X	X	X	X	X	X	X	X	X	X	X	X	



#DISTANCE SETTINGS
A = Detector Channel
A-1	A-2	A-3	A-4	A-5	A-6	A-7	A-8	A-9	A-10	A-11	A-12	A-13	A-14	A-15	A-16	

2.5000e+00	3.0000e+00	2.5000e+00	3.0000e+00	2.0000e+00	3.0000e+00	1.5000e+00	3.0000e+00	3.0000e+00	3.0000e+00	3.0000e+00	3.0000e+00	3.0000e+00	3.0000e+00	1.5000e+00	3.0000e+00	

B = Detector Channel
B-1	B-2	B-3	B-4	B-5	B-6	B-7	B-8	B-9	B-10	B-11	B-12	B-13	B-14	B-15	B-16	

1.0000e+01	1.0000e+01	1.0000e+01	1.4400e+00	1.0000e+01	1.0000e+01	1.5100e+00	1.9400e+00	1.0000e+01	1.0000e+01	1.9900e+00	2.4900e+00	2.4100e+00	2.9000e+00	1.0000e+01	2.9800e+00	




#DATA BEGINS
time	group	step	mark	flag	A-AC1	A-AC2	A-AC3	A-AC4	A-AC5	A-AC6	A-AC7	A-AC8	A-AC9	A-AC10	A-AC11	A-AC12	A-AC13	A-AC14	A-AC15	A-AC16	A-DC1	A-DC2	A-DC3	A-DC4	A-DC5	A-DC6	A-DC7	A-DC8	A-DC9	A-DC10	A-DC11	A-DC12	A-DC13	A-DC14	A-DC15	A-DC16	A-Ph1	A-Ph2	A-Ph3	A-Ph4	A-Ph5	A-Ph6	A-Ph7	A-Ph8	A-Ph9	A-Ph10	A-Ph11	A-Ph12	A-Ph13	A-Ph14	A-Ph15	A-Ph16	B-AC1	B-AC2	B-AC3	B-AC4	B-AC5	B-AC6	B-AC7	B-AC8	B-AC9	B-AC10	B-AC11	B-AC12	B-AC13	B-AC14	B-AC15	B-AC16	B-DC1	B-DC2	B-DC3	B-DC4	B-DC5	B-DC6	B-DC7	B-DC8	B-DC9	B-DC10	B-DC11	B-DC12	B-DC13	B-DC14	B-DC15	B-DC16	B-Ph1	B-Ph2	B-Ph3	B-Ph4	B-Ph5	B-Ph6	B-Ph7	B-Ph8	B-Ph9	B-Ph10	B-Ph11	B-Ph12	B-Ph13	B-Ph14	B-Ph15	B-Ph16	aux-1	digaux	

1770.372	1	1	0	256	0.12464	0.11457	0.19021	0.11001	0.19214	0.083994	0.39263	0.26262	0.17372	0.15227	0.22294	0.044781	0.24629	0.23771	0.20831	0.33898	-3.1375	-2.6063	-3.2292	-3.4104	-2.7562	-3.4604	-3.1229	-2.8937	-3.4146	-2.8	-3.1188	-3.5563	-2.6729	-3.4146	-2.9	-2.9604	306.212	337.331	216.319	117.646	192.483	384.381	403.442	433.647	226.527	393.268	397.327	108.486	430.292	120.849	445.018	374.840	0.0040038	0.00026113	0.00030504	760.82	4.3756e-06	1.1506e-05	1053.8	273.58	1.7806e-05	1.2274e-05	506.52	234.51	121.26	51.03	1.2413e-05	117.57	0.0059297	0.0088256	0.0024618	723.21	8.8845e-05	0.00010066	992.79	259.99	8.6264e-05	0.00010217	480.53	220.06	115.44	49.23	9.5004e-05	112.03	345.532	187.227	200.389	116.530	270.567	273.086	116.741	121.377	268.181	236.307	120.687	123.917	124.164	128.387	287.088	127.230	-8191	255	
1770.493	1	1	0	0	0.19468	0.33902	0.23867	0.28458	0.18357	0.26348	0.11983	0.21863	0.11284	0.25985	0.1916	0.21799	0.072649	0.078823	0.033638	0.61842	-2.9667	-2.8646	-2.9167	-3.4875	-2.6271	-3.3271	-3.4813	-2.7	-3.4917	-2.8833	-3.0458	-3.6625	-2.8563	-3.2125	-3.2854	-2.8167	425.801	379.393	437.837	135.064	250.452	292.221	418.876	443.612	161.729	191.774	415.953	379.042	337.307	120.180	136.682	393.777	0.0035683	0.00094434	0.00041005	750.02	4.468e-06	6.336e-06	1051.2	269.63	2.1503e-05	8.3036e-06	503.8	235.09	120.96	50.693	8.0432e-06	117.33	0.0064224	0.0094686	0.0026029	716.14	9.3179e-05	0.00010596	983.62	256.46	8.9162e-05	0.00010729	479.02	219.3	114.79	48.987	9.6848e-05	111.71	346.059	117.284	197.129	116.763	350.522	275.413	116.665	121.552	274.750	297.587	120.557	124.101	124.567	128.475	220.061	127.297	-8191	255	
1770.587	1	1	0	0	0.162	0.1754	0.13087	0.054591	0.28512	0.11693	0.12421	0.15153	0.0716	0.14745	0.12684	0.03418	0.19566	0.1011	0.20306	0.20435	-3.0438	-2.9354	-2.8187	-3.4771	-2.8208	-3.225	-3.525	-2.7979	-3.5667	-3.1771	-3.1375	-3.7521	-2.7188	-3.3479	-3.3646	-2.9833	326.650	133.931	138.660	208.996	110.952	256.326	111.255	444.709	131.217	307.473	312.803	219.864	156.133	336.375	210.056	147.603	0.0036757	0.00078465	6.5993e-05	746.73	4.1439e-06	8.9565e-06	1047.6	269.43	1.1805e-05	1.2733e-05	503.72	234.1	120.66	51.273	1.4529e-05	118.12	0.0065727	0.0095499	0.0026574	716.66	9.2294e-05	0.00010542	985.17	255.29	8.9226e-05	0.00010535	477.05	219.52	114.58	49.158	9.5652e-05	112.31	341.114	255.109	207.946	116.843	245.004	265.721	116.533	121.402	287.462	258.197	120.454	124.160	124.700	128.612	275.902	127.295	-8191	255	
1770.659	1	1	0	0	0.21081	0.08633	0.089605	0.2509	0.32934	0.18841	0.08668	0.091042	0.20296	0.1407	0.24602	0.13924	0.048113	0.17181	0.014769	0.11827	-2.8917	-3.0667	-2.7062	-3.4188	-2.9396	-3.1208	-3.5271	-2.7562	-3.4125	-3.0833	-2.8333	-3.7062	-2.8208	-3.0687	-3.3083	-3.0104	411.966	155.164	278.147	405.170	349.944	189.124	425.495	457.571	171.384	186.030	415.244	414.416	196.156	459.639	458.863	400.609	0.0035805	0.00078755	0.00039284	748.03	1.1084e-05	5.5532e-06	1051.5	266.2	1.0884e-05	3.8142e-06	493.89	231.05	119.3	50.832	1.7781e-05	116.6	0.0064286	0.0095147	0.0027318	717.65	9.5873e-05	0.00010913	990.15	253.45	9.2418e-05	0.00010781	472.4	217.1	113.14	48.823	9.9978e-05	111.04	348.910	109.580	250.954	116.993	294.831	202.799	116.850	121.416	248.093	256.806	120.418	124.078	124.728	128.786	265.907	127.411	-8191	255	
1770.755	1	1	0	0	0.20114	0.17859	0.12079	0.12472	0.138	0.34198	0.25826	0.24421	0.28304	0.14786	0.22755	0.19103	0.14283	0.079583	0.033196	0.070608	-2.7562	-3.2604	-2.7042	-3.7062	-2.8	-2.9583	-3.4917	-2.7979	-3.3792	-3.2083	-2.7271	-3.5021	-3.1	-3.1479	-3.4562	-2.8625	120.507	144.509	160.948	424.324	357.442	214.067	391.863	413.766	159.843	170.862	374.380	450.669	344.216	135.195	173.934	421.057	0.0039088	0.0011161	5.3371e-05	749.36	1.527e-05	9.8127e-06	1037.4	265.5	3.894e-05	1.1877e-05	493.12	229.39	118.03	50.524	1.0672e-05	116.5	0.0066774	0.0097713	0.0028237	717.77	9.6599e-05	0.00011245	977.38	251.2	9.5286e-05	0.00011207	467.87	215.43	112.53	48.686	0.00010093	110.91	353.705	197.239	273.818	117.364	274.447	293.619	116.992	121.527	296.870	226.185	120.763	124.454	124.396	128.179	248.345	126.871	-8191	255	
1770.876	1	1	0	0	0.13963	0.096783	0.11863	0.15839	0.27576	0.28223	0.17308	0.22383	0.12735	0.070356	0.25588	0.13286	0.26448	0.14485	0.081945	0.17219	-2.8021	-3.2792	-2.5667	-3.4542	-2.9771	-2.8333	-3.55	-2.8812	-3.2042	-3.3458	-2.6333	-3.5375	-3.2708	-2.8146	-3.65	-3.1375	293.126	406.046	129.907	340.696	428.210	457.375	374.999	452.703	357.412	449.652	443.866	358.026	364.510	243.027	218.188	425.800	0.0040049	0.0006176	0.00052626	749.86	9.0976e-06	6.5479e-06	1052	263.56	2.1354e-05	5.1271e-06	492.57	230.66	118.41	51.468	1.9466e-05	118.4	0.0065506	0.0096801	0.0027519	715.98	9.4436e-05	0.00010838	983.27	250.11	9.0007e-05	0.00010534	467.39	216.28	112.35	49.37	9.6204e-05	112.41	346.451	300.225	164.707	116.987	289.777	200.633	116.456	121.314	232.343	172.127	120.105	123.911	124.543	128.243	226.951	126.943	-8191	255	
1770.972	1	1	0	0	0.054055	0.29606	0.15344	0.25038	0.31557	0.11378	0.31587	0.374	0.2265	0.15525	0.39225	0.16496	0.14056	0.21295	0.21443	0.31645	-2.7833	-3.6333	-2.5583	-3.4021	-3.1208	-2.7104	-3.6104	-2.9333	-2.7833	-3.3646	-2.9417	-3.4896	-3.3229	-2.825	-3.3646	-2.9833	400.080	295.877	197.576	126.019	379.695	448.548	418.867	347.658	271.243	188.820	402.936	402.314	127.335	400.615	318.901	442.626	0.0040957	0.00052185	0.00015657	760.5	1.6528e-05	1.4668e-05	1054.5	262.67	2.4016e-05	6.913e-06	497.93	232.94	118.89	51.97	1.1768e-05	120.7	0.0063362	0.0092858	0.0026295	724.2	8.9104e-05	0.00010447	988.98	249.37	8.5181e-05	0.0001003	469.56	218.61	112.97	49.84	9.1833e-05	114.14	354.244	197.660	459.941	116.960	257.848	279.331	116.530	121.390	225.163	188.289	120.321	124.164	124.720	128.514	264.051	127.154	-8191	255	
1771.068	1	1	0	0	0.07511	0.20862	0.2257	0.1301	0.17053	0.204	0.11235	0.31275	0.051141	0.14205	0.24094	0.36713	0.16002	0.32013	0.10288	0.071748	-2.2687	-3.5333	-2.5042	-3.325	-3.0438	-2.7812	-3.5854	-3.175	-2.8604	-3.4708	-2.9125	-3.2687	-3.2062	-2.85	-3.4792	-3.1917	251.356	373.354	366.011	206.339	197.192	124.283	420.696	424.758	429.652	333.170	416.834	389.770	423.539	461.921	461.148	451.483	0.0037414	0.00062439	0.00014728	757.03	7.4793e-06	8.6659e-06	1051.1	261.99	1.263e-05	7.2982e-06	493.86	233.27	118.17	51.85	5.2946e-06	119.72	0.0059971	0.0088061	0.0025125	720.6	8.2154e-05	9.979e-05	984.35	248.45	8.1411e-05	9.6229e-05	467.33	219.01	112.18	49.446	8.8193e-05	112.94	349.969	202.288	188.878	116.673	255.580	232.191	116.375	121.252	305.529	258.944	120.535	123.913	124.697	128.366	377.350	127.109	-8191	255	
1771.164	1	1	0	0	0.30399	0.2488	0.24597	0.091093	0.15637	0.22799	0.33952	0.33666	0.30797	0.13853	0.082824	0.2319	0.20554	0.19525	0.20748	0.37366	-2.3646	-3.3979	-2.7521	-3.1542	-3.3479	-2.75	-3.425	-3.1792	-2.725	-3.5583	-2.8688	-3.1229	-3.3375	-2.65	-3.0354	-3.2979	302.705	386.662	139.762	262.233	396.599	409.313	426.555	367.327	214.951	261.577	166.183	405.714	405.943	451.114	103.932	398.445	0.0037367	0.0015068	0.00023122	756.68	9.5714e-06	1.1558e-05	1049.8	263.75	6.6297e-06	1.1287e-05	498.63	235.7	119.98	52.208	1.5563e-05	120.46	0.0058028	0.0082691	0.0023255	717.07	7.775e-05	9.0114e-05	982.35	249.35	7.4859e-05	8.9018e-05	471.18	220.77	113.12	49.748	8.0375e-05	113.66	346.077	244.323	260.789	116.781	269.482	205.495	116.390	121.532	250.138	224.148	120.515	124.095	124.803	128.750	258.858	126.947	-8191	255	
1771.285	1	1	0	0	0.24198	0.20433	0.38425	0.25045	0.07332	0.21827	0.060257	0.08964	0.14752	0.27931	0.16991	0.27915	0.20048	0.054231	0.19179	0.15315	-2.2333	-3.4	-2.7938	-2.9792	-3.2667	-2.5771	-3.2583	-3.2854	-2.8458	-3.5354	-3.0146	-3.175	-3.5208	-2.8	-3.1333	-3.3125	397.534	324.344	225.747	431.025	323.169	312.737	173.745	173.465	299.748	144.757	436.402	428.115	290.034	258.544	118.176	154.681	0.0041962	0.00066518	0.00029825	758.19	9.1008e-06	7.5932e-06	1056.8	268.37	2.0798e-05	2.6574e-06	500.73	239.3	122.78	52.854	1.9885e-05	121.87	0.0054742	0.007842	0.0021707	718.72	7.6327e-05	8.8953e-05	987.22	253.16	7.5365e-05	8.7507e-05	474.58	223.78	115.43	50.414	7.9883e-05	115.28	345.335	207.500	224.830	116.844	260.883	287.122	116.680	121.235	243.963	425.058	120.266	124.068	124.614	128.629	210.350	127.033	-8191	255	
1771.357	1	1	0	0	0.29488	0.16638	0.12738	0.093369	0.39326	0.16427	0.14821	0.23899	0.027197	0.23848	0.26023	0.19156	0.20025	0.29162	0.096113	0.23661	-2.45	-3.3937	-3.0292	-2.9313	-3.5667	-2.7854	-3.1188	-3.4146	-2.5396	-3.3812	-3.2729	-3.0125	-3.5729	-2.8208	-2.9688	-3.5021	329.189	157.629	423.558	150.461	128.888	392.368	195.903	414.456	238.047	448.027	409.002	408.238	453.341	103.749	261.352	408.113	0.0041208	0.0019175	0.00023462	762.43	7.2825e-06	9.6037e-06	1062	270.83	8.0319e-06	3.5519e-06	508.32	240.92	124.02	52.889	1.726e-05	122.31	0.0056224	0.0078767	0.0022082	724.35	7.8419e-05	8.8943e-05	993.84	255.97	7.6919e-05	8.9948e-05	480.18	226.35	116.6	50.558	8.2653e-05	115.56	345.135	184.527	209.255	116.942	269.906	265.973	116.695	121.467	304.120	219.695	120.519	124.035	124.615	128.456	271.346	127.039	-8191	255	
1771.453	1	1	0	0	0.2746	0.2215	0.088747	0.13066	0.098364	0.17795	0.040649	0.15179	0.17488	0.038955	0.11993	0.16674	0.048419	0.18093	0.17752	0.38112	-2.325	-3.3	-3.0333	-2.6813	-3.5062	-2.8354	-3.0896	-3.475	-2.7125	-3.2375	-3.1188	-2.8521	-3.5771	-2.9875	-2.8854	-3.6979	189.774	346.420	275.554	363.574	212.584	269.289	248.520	371.350	123.735	251.000	383.210	438.993	382.278	324.029	367.072	364.487	0.0038115	0.00055415	0.00027706	764.33	3.3069e-06	1.1128e-05	1053.2	269.46	1.0806e-05	1.082e-05	503.04	238.97	122.95	52.369	1.8625e-05	120.94	0.0056061	0.0078812	0.0022081	724.25	7.7365e-05	8.9001e-05	987.47	253.9	7.6033e-05	8.9554e-05	476.52	224.64	115.65	50.008	8.4001e-05	114.14	351.711	134.612	168.465	117.226	228.649	234.887	116.609	121.524	286.131	302.351	120.335	123.915	124.824	128.556	240.250	127.097	-8191	255	
1771.573	1	1	0	0	0.30847	0.1038	0.036885	0.32617	0.20583	0.13434	0.14548	0.087208	0.11485	0.17874	0.11477	0.073453	0.062918	0.47183	0.11631	0.051634	-2.1667	-3.25	-3.0917	-2.7167	-3.4875	-2.9062	-3.0771	-3.5771	-2.7729	-2.975	-3.3688	-2.6104	-3.375	-3.0354	-2.8646	-3.6729	437.417	412.870	115.265	454.593	261.317	304.990	431.204	371.409	404.401	337.127	104.315	418.480	356.508	433.643	313.808	107.589	0.0042282	0.0012709	0.00015333	756.88	4.5121e-06	5.551e-06	1046.1	266.54	1.2852e-05	5.5904e-06	498.73	238.14	122.16	51.811	1.2635e-05	120.65	0.005791	0.0082137	0.0022772	719.35	8.1541e-05	9.2781e-05	981.85	251.61	7.853e-05	9.3013e-05	473.36	223.52	115.25	49.671	8.5263e-05	114.08	346.264	220.091	460.017	116.993	193.582	227.160	116.447	121.339	218.639	302.817	120.389	124.106	124.733	128.482	243.041	126.965	-8191	255	
1771.668	1	1	0	0	0.15027	0.32374	0.13772	0.13316	0.088253	0.27809	0.039813	0.18564	0.086265	0.12826	0.29116	0.27401	0.27388	0.15293	0.15153	0.21055	-2.2604	-3.1104	-3.0833	-2.6271	-3.5667	-2.9625	-2.9979	-3.5187	-2.7146	-3.0312	-3.3875	-2.8125	-3.4646	-3.3208	-2.75	-3.7958	186.860	127.434	287.079	161.473	168.457	194.097	311.606	404.297	361.263	391.439	151.700	392.546	354.847	422.477	376.794	381.352	0.0044826	0.00096897	0.00026438	759.08	5.2128e-06	1.2883e-05	1051.4	268	1.0366e-06	1.8253e-05	500.89	239.61	120.98	51.728	1.9608e-05	121.01	0.0057599	0.0081651	0.002283	718.84	8.0117e-05	9.0564e-05	985.05	252.08	7.7615e-05	9.0949e-05	473.02	223.87	114.49	49.544	8.3923e-05	114.49	346.098	179.080	151.604	116.814	255.879	237.736	116.759	121.608	319.376	253.880	120.256	124.291	124.873	128.573	299.927	127.108	-8191	255	
1771.764	1	1	0	0	0.13423	0.23492	0.17415	0.29053	0.32155	0.19283	0.26557	0.13113	0.30619	0.15805	0.16966	0.069393	0.12291	0.23264	0.37672	0.18005	-2.5771	-3.1375	-3.4562	-2.6729	-3.3875	-3.1458	-2.9917	-3.6083	-2.8021	-2.9354	-3.3812	-2.9479	-3.2292	-3.2354	-2.6729	-3.5667	431.640	111.378	182.272	444.002	313.633	370.513	417.212	420.749	172.332	353.527	460.611	117.161	384.732	422.929	384.198	390.115	0.0038749	0.0017768	0.00031817	761.24	5.0923e-06	1.4801e-05	1054.1	266.03	1.6647e-05	1.259e-05	500.68	238.49	119.82	52.081	1.0355e-05	121.36	0.0056608	0.0081565	0.0022702	721.76	8.0674e-05	9.1362e-05	987.71	251.05	7.8209e-05	9.2192e-05	474.95	223.77	113.88	49.659	8.4419e-05	114.5	347.174	193.486	199.562	116.921	238.059	274.580	116.713	121.532	271.339	267.679	120.624	124.305	125.013	128.357	301.373	127.171	-8191	255	
1771.884	1	1	0	0	0.20651	0.076629	0.20091	0.19813	0.073043	0.13248	0.16188	0.34399	0.12469	0.18308	0.14786	0.32691	0.079857	0.11521	0.10999	0.37327	-2.5438	-3.0521	-3.4229	-2.6271	-3.2792	-3.4521	-2.7167	-3.5729	-3.0104	-2.9729	-3.6125	-3.0042	-3.3187	-3.4562	-2.8958	-3.7125	375.010	163.768	262.759	425.064	461.757	247.411	396.870	137.342	196.250	306.653	363.126	383.080	167.433	108.470	350.205	390.325	0.0039749	0.00091245	0.00032536	755.15	1.1521e-05	6.4107e-06	1039.2	263.03	2.2846e-05	1.5207e-05	490.59	234.41	117.59	50.992	1.657e-05	118.84	0.0055141	0.0081821	0.0022716	715.82	7.9193e-05	9.1298e-05	975.86	247.62	7.5942e-05	9.1162e-05	465.12	218.95	111.53	48.776	8.3482e-05	112.3	347.958	236.510	195.429	116.784	239.351	187.466	116.588	121.752	248.822	264.666	120.342	123.990	125.015	128.646	262.599	127.411	-8191	255	
1771.956	1	1	0	0	0.12283	0.24263	0.24572	0.20681	0.26151	0.20997	0.31777	0.18335	0.27058	0.080014	0.064963	0.51097	0.16074	0.21814	0.11681	0.24983	-2.6292	-2.7979	-3.5083	-2.9021	-3.1562	-3.3542	-2.8417	-3.4917	-3.0146	-2.6542	-3.5417	-3.0292	-3.0625	-3.6167	-2.7354	-3.5875	201.237	395.151	429.291	383.860	363.305	111.027	409.870	193.890	216.127	282.133	333.158	403.079	111.341	416.504	436.474	418.332	0.0036493	0.00026256	0.00035471	744.85	8.3363e-06	6.8098e-06	1032	260	1.1675e-05	5.5064e-06	489.07	233.27	117.36	50.975	1.6704e-05	119.13	0.0055611	0.007953	0.0022402	708.58	7.8071e-05	8.9595e-05	968.58	244.74	7.5271e-05	8.9765e-05	462.66	217.79	111.03	48.694	8.0347e-05	112.63	349.015	165.077	196.987	116.632	222.743	297.368	116.745	121.733	257.641	261.512	120.767	124.288	124.624	128.624	246.407	127.126	-8191	255	
1772.052	1	1	0	0	0.14053	0.251	0.1202	0.25211	0.16803	0.1065	0.089098	0.26665	0.16959	0.12885	0.35051	0.2516	0.15728	0.27374	0.084835	0.14213	-2.8187	-2.9313	-3.5187	-2.9562	-2.9292	-3.3167	-3.0208	-3.475	-3.1979	-2.6146	-3.5563	-3.0146	-3.0521	-3.7958	-2.6937	-3.35	462.490	298.898	314.666	357.994	312.811	350.808	382.877	378.759	232.908	349.476	417.654	438.191	461.556	444.520	230.190	414.247	0.0036376	0.0011742	0.00019245	747.15	1.0082e-05	4.8843e-06	1041.6	261.28	2.7069e-05	1.8528e-05	493.77	235.31	119.28	51.972	5.7034e-06	120.43	0.0053739	0.0078746	0.0021974	711.04	7.624e-05	8.8401e-05	973.68	246.53	7.2775e-05	8.9623e-05	466.9	220.27	112.61	49.359	8.1395e-05	113.89	348.155	180.602	165.310	116.768	297.419	213.393	117.130	121.793	240.953	274.547	120.735	124.057	124.488	128.412	209.985	127.205	-8191	255	
1772.173	1	1	0	0	0.11706	0.069244	0.17963	0.10839	0.25002	0.19387	0.23894	0.075332	0.20391	0.16917	0.15045	0.25259	0.27808	0.12359	0.054972	0.46088	-2.9375	-2.725	-3.4604	-3.0354	-2.7938	-3.5208	-2.8563	-3.2646	-3.2271	-2.6875	-3.4021	-3.2104	-2.8958	-3.4958	-2.8438	-3.375	263.847	117.526	166.814	246.441	230.892	230.369	344.960	358.242	451.177	359.728	384.133	416.729	380.641	184.377	174.787	412.305	0.0039198	0.0012149	5.0602e-05	760.11	9.9307e-06	1.0528e-05	1056.5	265.74	1.183e-05	1.0876e-05	499.82	239.17	120.57	51.553	9.7659e-06	121.15	0.0054306	0.0079225	0.0021859	719.98	7.8266e-05	8.6875e-05	987.6	250.42	7.4748e-05	9.0824e-05	472.09	223.43	113.86	49.5	8.0107e-05	114.57	348.835	225.261	406.478	116.892	312.576	231.466	116.734	121.975	279.457	262.685	120.861	124.172	125.096	128.392	223.475	127.403	-8191	255	
1772.269	1	1	0	0	0.18599	0.17114	0.044158	0.077441	0.22122	0.37164	0.27822	0.30641	0.055203	0.020028	0.27891	0.2077	0.059763	0.12539	0.23967	0.25598	-2.9896	-2.6833	-3.3563	-3.3063	-2.6542	-3.4417	-3.1167	-2.9896	-3.5146	-2.5396	-3.45	-3.4271	-2.8333	-3.5604	-2.7938	-3.1458	318.216	109.642	151.735	255.559	135.639	305.026	409.254	359.850	384.912	206.196	299.064	444.356	385.967	375.679	310.865	371.701	0.0039657	0.00071152	0.00025536	755.89	1.3274e-05	7.9111e-06	1040.4	264.12	8.2628e-06	5.7851e-06	493.45	235.79	118.8	51.176	1.3538e-05	119.05	0.0053632	0.0079868	0.0021669	715.71	7.8406e-05	8.6787e-05	974.71	248.44	7.2544e-05	8.8118e-05	466.38	220.27	111.94	48.806	7.9122e-05	112.79	345.547	116.841	201.213	116.848	270.050	246.853	116.556	121.448	226.090	257.774	120.864	124.333	125.100	128.433	265.727	127.338	-8191	255	
1772.365	1	1	0	0	0.11982	0.14322	0.057482	0.13362	0.040752	0.077027	0.18606	0.17853	0.29975	0.071611	0.15747	0.19567	0.32988	0.32075	0.071635	0.1277	-2.9958	-2.425	-3.1021	-3.3125	-2.6688	-3.3563	-3.0771	-3.0667	-3.5292	-2.7396	-3.1813	-3.5187	-2.7458	-3.5083	-2.9938	-3.0875	301.339	294.382	224.203	419.649	200.754	240.416	122.868	348.852	178.699	127.714	213.484	431.820	110.308	166.282	438.016	397.787	0.0037377	0.00034686	0.00019891	750.11	1.7609e-05	1.3094e-05	1036.5	261.53	1.6279e-05	1.1073e-05	496.57	236.71	119.27	51.243	8.4059e-06	119.32	0.0053991	0.0077887	0.0022091	710.94	7.802e-05	8.7463e-05	970.16	247.15	7.3716e-05	8.9164e-05	468.85	220.4	112.3	48.82	7.9622e-05	112.96	352.811	261.987	182.273	116.758	223.167	260.090	116.819	121.921	282.981	254.881	120.735	124.184	124.855	128.984	316.146	127.498	-8191	255	
1772.461	1	1	0	0	0.16046	0.17258	0.067489	0.14368	0.22202	0.085384	0.43367	0.013746	0.20345	0.068988	0.3546	0.16809	0.17914	0.27501	0.072114	0.22779	-3.2542	-2.6354	-3.0833	-3.4167	-2.7812	-3.6083	-3.0875	-2.9958	-3.4188	-2.875	-3.05	-3.6	-2.7396	-3.3625	-3.1813	-2.9437	398.252	437.804	252.721	320.453	451.872	348.001	383.399	338.093	245.681	408.662	417.097	371.304	343.059	125.563	421.251	392.118	0.0036265	0.00070657	0.00030517	756.77	4.3255e-06	5.9783e-06	1038.8	263.81	7.1305e-06	3.2298e-06	498.32	237.87	118.69	51.211	1.321e-05	120.13	0.0055355	0.0079133	0.0021801	712.82	7.6628e-05	8.722e-05	974.96	248.21	7.3961e-05	8.621e-05	471.64	222.03	112.41	48.949	7.8963e-05	113.56	343.827	208.729	215.080	116.899	271.181	222.774	116.794	122.341	232.713	285.571	120.930	124.359	125.022	128.870	259.905	127.239	-8191	255	
1772.580	1	1	0	0	0.25264	0.24269	0.0868	0.23049	0.0087878	0.20724	0.30444	0.041953	0.19931	0.23662	0.091985	0.14045	0.15851	0.16224	0.14483	0.070887	-2.9208	-2.8396	-2.9354	-3.5646	-2.6958	-3.2812	-3.4354	-2.7188	-3.4521	-2.95	-2.975	-3.6271	-2.8312	-3.2542	-3.3417	-2.8521	211.788	176.674	208.285	422.059	256.680	265.611	394.888	460.643	247.522	215.476	117.819	126.131	337.235	416.455	297.981	322.495	0.0040413	0.0015661	0.00018633	756.75	8.5996e-06	1.3299e-05	1049.7	265.12	1.7637e-05	1.1752e-05	499.19	238.77	119.2	51.927	8.7237e-06	120.31	0.0054003	0.0076081	0.0022144	718.94	7.6776e-05	8.7154e-05	980.38	250.11	7.3751e-05	8.6627e-05	473.11	222.92	112.89	49.246	7.9857e-05	113.5	349.543	193.650	188.954	117.233	260.832	187.892	116.941	121.490	218.353	278.607	120.998	124.228	124.957	129.133	250.724	127.408	-8191	255	
1772.652	1	1	0	0	0.037726	0.23219	0.27781	0.28892	0.019005	0.12234	0.40538	0.2806	0.22537	0.062431	0.19564	0.26014	0.16273	0.31231	0.20238	0.15356	-3.0583	-3.0708	-2.7396	-3.4625	-2.7708	-3.1771	-3.4083	-2.725	-3.4208	-2.9875	-3.0167	-3.625	-2.8667	-3	-3.3875	-2.7896	302.599	371.937	315.832	447.069	206.438	400.135	113.385	446.012	201.200	244.298	152.877	408.543	461.141	455.482	460.352	221.360	0.0037063	0.00084261	0.00012449	754.25	6.2124e-06	9.5554e-06	1042.2	263.59	1.5565e-05	2.4806e-06	494.02	235.92	119	51.081	8.535e-06	118.78	0.0053826	0.0076242	0.0022204	714.55	7.5509e-05	8.7306e-05	974.45	247.61	7.2956e-05	8.6053e-05	467.8	220.01	112.11	48.834	7.905e-05	112.56	350.628	260.908	135.734	116.714	199.919	303.018	117.016	121.977	299.901	305.567	120.796	124.416	125.224	129.032	240.588	127.364	-8191	255	
1772.748	1	1	0	0	0.14824	0.048502	0.094353	0.024232	0.14672	0.067203	0.11935	0.11828	0.46879	0.094106	0.32155	0.13944	0.38169	0.21346	0.10267	0.26485	-2.8646	-2.9896	-2.85	-3.7625	-2.7292	-2.9729	-3.5417	-2.7229	-3.1667	-3.2313	-2.7729	-3.5667	-2.8583	-2.9042	-3.2896	-2.6833	126.055	227.094	328.934	108.275	312.486	371.374	414.196	432.228	114.969	163.329	115.642	117.205	438.198	384.148	207.703	405.718	0.0037183	0.00074338	3.2285e-05	748.76	1.0202e-05	6.5054e-06	1038.5	264.04	1.0487e-05	1.3166e-05	496.45	235.66	119.03	51.313	1.2885e-05	120.15	0.0053955	0.0076099	0.0021761	708.89	7.562e-05	8.5902e-05	969.24	247.49	7.226e-05	8.5887e-05	466.71	220.28	111.73	48.948	7.7169e-05	113.18	346.836	166.404	167.793	117.100	241.606	225.342	116.885	122.238	262.917	208.507	120.721	124.448	125.165	128.775	251.003	127.497	-8191	255	
1772.846	1	1	0	0	0.041917	0.17529	0.23114	0.11679	0.11427	0.21665	0.15652	0.1551	0.05336	0.17699	0.24993	0.11003	0.061	0.19768	0.19748	0.2171	-3.1333	-3.2562	-2.7333	-3.5458	-3.0354	-2.8042	-3.6	-2.6896	-3.3792	-3.0604	-2.75	-3.6646	-3.1458	-2.9437	-3.5	-2.9188	402.175	129.100	437.524	129.260	368.982	314.877	114.639	118.215	256.566	413.429	404.094	398.568	402.599	453.839	365.478	380.689	0.0037072	0.001181	0.00024838	748.73	1.2771e-05	9.8328e-06	1035.2	262	1.0258e-05	1.1332e-05	496.47	237.29	119.1	51.461	9.8388e-06	121.26	0.0053275	0.0076344	0.0021383	709.6	7.3267e-05	8.5945e-05	972.89	246.47	7.0939e-05	8.3597e-05	469.43	221.79	111.99	49.158	7.8542e-05	114.34	349.793	202.722	171.280	116.781	300.535	289.922	117.132	121.967	262.935	244.821	120.796	124.478	125.171	128.949	305.632	127.255	-8191	255	
1772.965	1	1	0	0	0.16722	0.087432	0.41079	0.29958	0.031557	0.25599	0.13823	0.1315	0.059412	0.075908	0.16606	0.38644	0.16981	0.23679	0.19277	0.11449	-2.6646	-3.2854	-2.8583	-3.2417	-3.0125	-2.9271	-3.5458	-2.8312	-3.1042	-3.2917	-2.7562	-3.5958	-3.2146	-2.9458	-3.4146	-3.0563	357.324	346.420	452.266	381.427	324.929	341.646	369.126	111.220	239.562	193.278	135.041	391.885	370.727	388.067	282.581	141.028	0.0040765	0.0007027	9.6618e-05	760.29	8.0394e-06	5.066e-06	1048.7	262.97	1.32e-05	3.7171e-06	499.07	236.97	118.64	51.708	1.7847e-05	119.82	0.0053483	0.0074875	0.0021978	717.05	7.4611e-05	8.8259e-05	980.8	248.08	7.2976e-05	8.6355e-05	469.42	221.54	111.99	49.216	7.9017e-05	113.36	341.579	296.441	238.542	117.163	249.713	291.967	117.077	121.837	324.222	158.681	120.914	124.657	124.997	128.837	255.625	127.392	-8191	255	
1773.061	1	1	0	0	0.14799	0.097702	0.13469	0.13803	0.1688	0.19993	0.19244	0.16286	0.34064	0.066644	0.1607	0.26257	0.22152	0.13894	0.18619	0.2097	-2.4542	-3.3917	-2.6042	-3.2708	-3.2521	-2.7292	-3.5396	-2.8292	-2.925	-3.5958	-2.7979	-3.3708	-3.2396	-2.7375	-3.475	-3.0375	210.645	176.548	178.613	135.923	224.754	179.485	447.073	106.557	352.370	280.070	433.386	404.088	331.890	138.014	177.184	114.703	0.0041471	0.0007632	0.00029144	750.45	1.0639e-05	9.7635e-06	1044.1	260.61	1.2393e-05	9.3264e-06	493.94	235.12	117.82	51.298	1.3569e-05	119.3	0.005378	0.0077322	0.0021509	708.07	7.5442e-05	8.757e-05	968.39	245.12	7.4492e-05	8.4938e-05	465.41	219.63	111.22	48.885	7.9159e-05	112.67	345.023	213.482	243.004	117.136	318.120	271.395	117.428	122.224	340.216	250.056	121.253	124.693	125.247	129.072	273.310	127.437	-8191	255	
1773.157	1	1	0	0	0.23786	0.10644	0.24604	0.094093	0.20029	0.12071	0.12409	0.25908	0.2446	0.059956	0.19448	0.099055	0.11347	0.19339	0.1109	0.33721	-2.2979	-3.6229	-2.7083	-3.1208	-3.375	-2.7521	-3.7125	-3.1104	-2.7042	-3.4979	-3	-3.4375	-3.5146	-2.7458	-3.2687	-3.2	247.990	199.098	234.872	266.515	385.151	161.695	290.878	290.315	437.470	408.468	463.276	145.850	297.348	149.892	221.063	429.696	0.0038907	0.0011466	0.00014823	744.3	1.0591e-05	9.9047e-06	1035.5	260.8	1.2252e-05	1.6266e-05	495.23	237.81	119.01	51.5	1.5282e-05	119.71	0.0055087	0.0077067	0.0021346	707.01	7.5504e-05	8.6856e-05	966.7	245.44	7.449e-05	8.5265e-05	466.34	221.32	111.95	49.234	7.9679e-05	113.26	344.474	187.177	243.546	117.339	278.640	240.306	117.205	121.939	256.548	267.392	120.864	124.713	125.323	129.074	218.386	127.440	-8191	255	
1773.253	1	1	0	0	0.10828	0.32237	0.095562	0.19025	0.12976	0.26285	0.111	0.083151	0.17393	0.13103	0.13586	0.21915	0.056116	0.21725	0.12339	0.41575	-2.2729	-3.2354	-2.6958	-3.1271	-3.3292	-2.8104	-3.5208	-3.3167	-2.7396	-3.4667	-3.0979	-3.15	-3.5333	-2.8292	-3.3292	-3.3917	276.292	392.392	425.058	310.661	159.030	317.194	439.107	370.428	366.949	326.378	307.569	427.959	173.367	398.919	375.974	391.850	0.0039474	0.0012516	0.00034603	750.68	2.1461e-05	1.4105e-05	1051.4	262.08	1.7849e-05	1.4288e-05	501.17	237.78	119.95	51.729	4.9801e-06	121.1	0.0055229	0.0078054	0.0021854	710.91	7.6156e-05	8.7436e-05	974.8	246.88	7.3552e-05	8.6257e-05	469.97	222.29	112.93	49.594	7.9204e-05	114.46	348.335	190.909	182.276	117.291	245.999	255.291	117.192	122.013	257.558	251.294	121.299	124.528	125.481	129.054	260.370	127.349	-8191	255	
1773.349	1	1	0	0	0.18182	0.33713	0.16183	0.026305	0.20205	0.12624	0.31133	0.18474	0.060616	0.11944	0.18397	0.14055	0.33875	0.16178	0.066933	0.38889	-2.3417	-3.35	-2.9667	-3.125	-3.4813	-2.7313	-3.425	-3.4188	-2.7479	-3.2438	-3.1708	-2.9458	-3.6271	-2.8063	-3.2021	-3.5583	262.875	407.628	245.612	158.258	160.764	316.315	420.581	314.349	122.774	179.862	154.262	401.928	395.457	388.576	363.084	444.877	0.004075	0.0017946	0.00020803	751.75	6.3311e-06	1.1568e-05	1041.8	262.2	2.7536e-05	1.1479e-05	496.75	236.73	118.31	51.461	1.5855e-05	118.93	0.005529	0.0077693	0.0021661	713.29	7.6229e-05	8.9561e-05	974.75	247.69	7.6985e-05	9.0318e-05	469.17	221.67	112.23	49	8.2779e-05	112.8	342.943	208.807	214.377	117.108	266.729	237.828	117.488	122.242	262.797	223.700	121.140	124.608	125.090	128.791	226.522	127.574	-8191	255	
1773.446	1	1	0	0	0.23599	0.15206	0.2294	0.039723	0.020072	0.1284	0.3844	0.29962	0.14235	0.10391	0.1195	0.06555	0.23707	0.17191	0.19443	0.24874	-2.3896	-3.6188	-2.9229	-2.8625	-3.5229	-2.8646	-3.3042	-3.6083	-2.5521	-3.4375	-3.125	-2.9354	-3.5104	-2.9792	-2.8833	-3.4333	246.699	134.186	403.869	329.135	274.825	326.416	404.545	436.546	457.654	341.327	434.491	115.087	375.540	387.835	155.791	349.761	0.0037798	0.0010162	0.00019012	745.82	1.0419e-05	7.491e-06	1031.8	260.05	1.8789e-05	6.9321e-06	489.91	234.36	118.36	50.744	9.4871e-06	117.97	0.0055823	0.0078735	0.0022359	705.69	7.7318e-05	8.7877e-05	963.32	244.26	7.6141e-05	9.0938e-05	462.11	218.59	111.11	48.4	8.2736e-05	111.86	348.235	199.155	108.493	117.386	246.695	201.443	117.555	122.285	261.839	254.673	120.779	124.854	125.436	129.133	272.199	127.622	-8191	255	
1773.566	1	1	0	0	0.21919	0.1512	0.079505	0.42226	0.24585	0.27272	0.21097	0.05345	0.078478	0.25345	0.082705	0.16189	0.24378	0.22316	0.15584	0.17193	-2.3	-3.2417	-3.2292	-2.7687	-3.4729	-2.9667	-3.1792	-3.4917	-2.8458	-3.4229	-3.3979	-2.8729	-3.575	-2.9771	-3	-3.625	441.883	164.177	139.407	430.649	294.458	243.436	366.000	148.037	350.935	308.456	208.872	387.938	429.044	142.830	292.120	414.618	0.004055	0.00083101	0.00029796	742.98	1.2234e-05	5.9053e-06	1030.3	258.06	4.5876e-06	1.1898e-05	490.81	233.75	117.39	50.801	1.9103e-05	118.61	0.0056346	0.0080978	0.0022824	702.48	7.9795e-05	9.2094e-05	960.55	243.51	7.576e-05	9.063e-05	463.24	218.52	110.8	48.494	8.2895e-05	112.22	343.230	145.609	191.246	117.633	267.604	286.344	117.442	122.428	333.079	241.903	121.076	124.908	125.678	129.146	281.494	127.937	-8191	255	
1773.661	1	1	0	0	0.20884	0.14444	0.091587	0.29117	0.19322	0.072654	0.049427	0.066578	0.27152	0.56764	0.044429	0.1415	0.16004	0.29082	0.38979	0.29896	-2.3583	-3.2625	-3.2979	-2.7562	-3.5208	-3.2292	-2.9333	-3.5729	-2.6937	-3.0833	-3.325	-2.8438	-3.4708	-3.1583	-2.75	-3.5354	255.886	178.122	461.235	408.494	396.459	243.069	363.508	433.714	264.431	229.050	332.753	136.377	365.334	424.612	248.959	133.883	0.0038211	0.00084568	0.00013687	743.55	1.2362e-05	1.436e-05	1029.2	261.76	1.1342e-05	8.8018e-06	493.3	235.15	118.28	51.223	4.5995e-06	119.93	0.0056474	0.0080431	0.0022234	706.55	7.668e-05	8.9662e-05	964.83	245.35	7.7075e-05	8.8383e-05	465.8	220.13	111.73	48.977	8.4534e-05	113.06	344.525	161.267	175.192	117.607	222.076	191.553	117.831	122.252	312.155	269.828	120.984	124.828	125.879	129.126	223.043	127.529	-8191	255	
1773.757	1	1	0	0	0.084733	0.19528	0.10253	0.16465	0.15649	0.077826	0.065555	0.13093	0.21147	0.2131	0.3566	0.24296	0.20864	0.18605	0.12989	0.33206	-2.2729	-2.9396	-3.2	-2.6479	-3.2125	-3.0917	-2.8083	-3.5458	-2.7729	-2.85	-3.4	-2.8125	-3.4	-3.1688	-2.7188	-3.4938	353.976	359.929	417.652	431.807	347.303	439.295	379.156	419.832	444.988	164.129	442.667	408.353	424.484	369.679	160.516	379.612	0.0039799	0.0014025	0.0001417	748.7	4.938e-06	3.7091e-06	1036.3	261.09	7.2764e-06	1.0056e-05	495.59	234.98	119.2	50.994	1.2628e-05	119.48	0.0056504	0.0082554	0.0022751	709.6	7.8259e-05	8.901e-05	970.34	245.55	7.6045e-05	8.9888e-05	464.5	219.67	111.73	48.795	8.4582e-05	112.66	343.850	183.226	193.035	117.511	235.641	225.363	117.509	122.903	302.176	230.260	121.377	125.069	125.980	129.725	284.684	128.037	-8191	255	
1773.853	1	1	0	0	0.10357	0.074573	0.17471	0.12147	0.13572	0.13924	0.36816	0.3141	0.18852	0.17069	0.079625	0.1778	0.28198	0.083414	0.22254	0.36684	-2.3438	-2.875	-3.4	-2.8	-3.3583	-3.1937	-2.8479	-3.4896	-2.7604	-2.7354	-3.4062	-2.7708	-3.2708	-3.3229	-2.5	-3.6354	338.643	460.316	309.978	263.347	318.115	106.055	458.805	395.360	138.002	123.126	416.947	305.740	449.914	327.882	389.460	441.347	0.0040797	0.00064699	0.00039434	745.89	8.8226e-06	2.0066e-05	1029.1	258.22	1.6065e-05	5.5687e-06	492.53	233.62	117.43	50.935	1.2363e-05	119.11	0.0056859	0.008371	0.0022918	707.25	8.2047e-05	9.2966e-05	964.92	244.32	7.7572e-05	9.4097e-05	463.62	218.79	111.63	48.678	8.5443e-05	112.39	346.573	192.300	157.536	117.746	234.372	289.031	117.469	122.505	292.772	159.814	120.895	124.766	125.856	128.893	222.269	127.632	-8191	255	
1773.949	1	1	0	0	0.38176	0.15251	0.13774	0.12365	0.26663	0.19951	0.038574	0.26721	0.15119	0.018765	0.10868	0.18981	0.16415	0.12983	0.26919	0.15904	-2.7208	-2.8583	-3.2792	-2.6979	-3.0375	-3.2	-2.8333	-3.5	-3	-2.7458	-3.7375	-2.8187	-3.1688	-3.3979	-2.5271	-3.4854	268.013	379.479	211.782	367.302	200.424	451.885	393.853	396.869	422.415	384.852	377.690	437.015	441.953	394.962	277.776	426.783	0.0038211	0.0012261	0.00043789	746.39	8.484e-06	9.5347e-06	1029.2	259.27	6.5845e-06	1.1178e-05	496.34	235.13	118.47	51.066	1.6201e-05	119.56	0.0056647	0.0084264	0.0023255	705.4	8.1248e-05	9.2699e-05	964.29	244.81	7.9941e-05	9.4272e-05	465.1	219.75	111.92	48.987	8.4769e-05	113.21	348.264	151.781	193.538	117.138	226.273	208.090	117.484	122.258	336.879	278.824	121.270	124.946	125.671	129.245	242.082	127.889	-8191	255	
1774.045	1	1	0	0	0.15461	0.099203	0.16477	0.16174	0.090629	0.12434	0.33857	0.19566	0.094373	0.17783	0.068571	0.17688	0.18547	0.15505	0.39101	0.23505	-2.5521	-2.5938	-3.4333	-2.8021	-3.0625	-3.4542	-2.7625	-3.4	-3.0833	-2.6833	-3.6188	-2.9333	-2.85	-3.5438	-2.6333	-3.4896	377.535	339.965	149.066	395.515	350.126	105.316	380.576	418.780	185.120	191.027	430.474	117.349	368.355	460.272	299.574	404.160	0.003828	0.0011957	0.0001093	747.46	1.2823e-05	8.6143e-06	1035.4	260.65	8.7488e-06	1.5308e-05	498.03	237.31	118.77	51.678	1.1848e-05	120.98	0.0056598	0.0083539	0.0023189	707.28	8.0967e-05	9.0915e-05	970.83	246.34	7.6858e-05	9.23e-05	468.07	221.31	112.21	49.355	8.5887e-05	114.22	342.708	460.350	157.999	117.309	237.320	261.814	117.462	122.750	264.386	225.415	120.811	124.479	125.583	129.117	244.278	127.962	-8191	255	
1774.141	1	1	0	0	0.093387	0.13627	0.39964	0.27972	0.083679	0.10249	0.32866	0.15127	0.33044	0.19513	0.21218	0.15295	0.24088	0.14151	0.11097	0.35744	-2.9042	-2.7083	-3.4125	-2.9667	-2.8625	-3.2938	-2.7729	-3.0625	-3.1854	-2.5521	-3.3125	-3.05	-2.7021	-3.5583	-2.775	-3.1646	122.295	356.347	289.548	412.376	257.190	434.740	367.687	365.949	404.788	449.107	404.667	107.257	398.697	439.956	279.733	413.066	0.0037529	0.00096513	0.00022489	748.77	1.7225e-05	1.1134e-05	1045	261.21	2.2703e-05	1.2729e-05	490.98	235.05	118.41	51.442	1.6331e-05	119.77	0.0056223	0.0082444	0.0022388	709.82	8.0996e-05	9.0013e-05	972.92	246.35	7.6753e-05	9.1059e-05	464.83	219.22	111.36	49.143	8.3936e-05	113.07	349.712	162.995	153.408	117.262	245.851	246.446	117.333	122.183	284.679	225.693	121.465	124.985	125.677	129.362	249.290	128.046	-8191	255	
1774.262	1	1	0	0	0.10374	0.13116	0.10816	0.19123	0.026946	0.11256	0.09335	0.094833	0.26476	0.38472	0.12307	0.17846	0.18952	0.35212	0.261	0.1608	-2.7979	-2.675	-3.3333	-3.0833	-2.7396	-3.4646	-2.8021	-3.1042	-3.2854	-2.7438	-3.4792	-3.0958	-2.6479	-3.4042	-2.6792	-3.125	382.532	377.183	220.871	142.468	371.527	234.454	380.325	443.877	405.642	399.063	282.690	417.875	460.069	426.558	445.743	384.241	0.0041757	0.0010529	0.00016358	739.5	1.3479e-05	2.8716e-06	1020.7	257.82	1.8246e-05	3.6696e-06	489.14	233.89	117.4	51.264	7.2666e-06	118.63	0.0056335	0.0082695	0.0022849	701.01	8.0598e-05	9.0898e-05	957.94	243.14	7.7061e-05	9.3548e-05	461.25	218.05	110.88	48.779	8.566e-05	112.17	346.718	174.433	126.691	117.858	201.519	358.157	117.555	122.492	225.206	235.415	121.256	124.790	125.828	129.614	254.622	128.036	-8191	255	
1774.358	1	1	0	0	0.10581	0.15914	0.25034	0.28075	0.24323	0.13294	0.38985	0.21657	0.18458	0.32125	0.2899	0.17037	0.11681	0.22386	0.062092	0.20558	-3.0729	-2.5625	-3.3729	-3.2625	-2.5729	-3.3833	-2.8333	-3.0042	-3.2896	-2.5146	-3.2979	-3.4958	-2.7396	-3.3979	-2.7583	-3.0229	142.867	302.769	124.840	463.677	205.597	405.292	406.020	388.214	412.428	180.943	445.690	110.451	385.443	377.129	320.742	449.797	0.0041306	0.00022382	0.000182	733.11	9.4528e-06	5.6909e-06	1023.9	256.9	2.7767e-05	6.6073e-06	488.17	233.32	116.25	50.745	8.5562e-06	119.11	0.0057192	0.0082156	0.0023523	697.53	8.2146e-05	9.2627e-05	957.86	242.5	7.8893e-05	9.514e-05	460.37	217.68	110.33	48.642	8.6275e-05	112.46	345.329	234.817	235.944	117.081	258.905	297.140	117.293	122.493	264.421	238.683	121.707	125.049	125.937	129.578	272.096	127.951	-8191	255	
1774.453	1	1	0	0	0.16271	0.25497	0.11119	0.092555	0.20979	0.10354	0.055255	0.24501	0.026681	0.26367	0.40597	0.27359	0.059565	0.22934	0.13224	0.18573	-3.125	-2.6771	-3.2479	-3.3312	-2.7333	-3.4167	-3.0812	-3.0021	-3.45	-2.7875	-3.2042	-3.4479	-2.8396	-3.4917	-3	-2.9479	303.069	357.918	399.431	370.398	266.182	387.063	294.766	397.965	415.942	269.425	396.026	117.206	450.261	132.037	446.409	439.210	0.0037589	0.00015811	0.00011245	731.63	4.687e-06	1.5041e-05	1023.5	258.2	1.4013e-05	4.2847e-06	483.86	234.73	117.23	51.026	1.7264e-05	119.68	0.0057038	0.0082479	0.0023072	697.35	8.0172e-05	9.1312e-05	958.91	242.55	7.7262e-05	9.2441e-05	460.89	218.83	110.55	48.883	8.5686e-05	113.27	350.663	411.424	275.564	117.517	257.378	237.361	117.857	122.505	245.885	265.061	121.099	124.419	125.336	129.097	279.700	127.581	-8191	255	
1774.526	1	1	0	0	0.2377	0.01692	0.21303	0.40678	0.38005	0.078373	0.25174	0.29859	0.20455	0.2843	0.23385	0.19562	0.030746	0.15102	0.15694	0.21157	-3.0792	-2.8146	-2.9292	-3.4917	-2.6667	-3.05	-3.1063	-2.8812	-3.4042	-2.8438	-3.0729	-3.675	-2.7938	-3.2562	-3.2729	-2.8354	197.591	237.464	351.106	441.009	395.794	182.724	413.048	453.695	374.407	314.194	327.159	420.819	127.147	414.390	136.861	437.040	0.0040387	0.00060283	0.00015722	738.94	4.0705e-06	1.2176e-05	1026.8	254.72	2.1383e-05	1.0174e-05	483.74	233.41	116.35	51.18	1.2892e-05	118.87	0.0057445	0.0083279	0.0023199	699.62	8.1001e-05	9.3149e-05	956.61	240.63	7.8372e-05	9.4159e-05	458.62	217.92	109.98	48.744	8.4767e-05	112.15	346.199	126.656	149.518	117.238	273.161	257.099	117.103	122.198	280.761	259.593	121.551	124.621	125.414	129.071	238.542	127.347	-8191	255	
1774.645	1	1	0	0	0.10062	0.25569	0.12494	0.067194	0.20677	0.25304	0.16777	0.2206	0.18444	0.25094	0.49666	0.055437	0.10207	0.12651	0.071618	0.14456	-3.05	-2.9333	-2.8375	-3.5583	-2.6417	-3.2188	-3.3125	-2.8125	-3.5187	-2.9583	-2.8812	-3.6875	-2.85	-3.2604	-3.1354	-2.8563	307.910	432.066	183.631	378.023	131.124	110.637	317.764	157.557	428.809	366.922	419.493	448.220	324.323	417.631	448.832	337.947	0.0039656	0.0014499	0.00016147	731.72	4.9684e-06	1.0479e-05	1017.9	254.15	2.014e-05	5.4888e-06	481.09	232.49	116.01	51.03	5.6563e-06	118.93	0.0057295	0.0084165	0.002387	691.94	8.0973e-05	9.3712e-05	950.79	240.05	7.7903e-05	9.3398e-05	456.07	217.07	109.8	48.698	8.4217e-05	112.19	343.386	178.359	209.193	117.125	258.765	271.999	117.413	122.362	248.888	325.079	121.172	124.870	125.349	129.180	223.600	127.375	-8191	255	
1774.741	1	1	0	0	0.13247	0.28561	0.15319	0.10517	0.26326	0.22584	0.34787	0.43198	0.19268	0.27075	0.16938	0.25363	0.17344	0.11624	0.18059	0.32687	-3.0146	-2.8792	-2.9021	-3.5146	-2.7667	-2.9729	-3.4604	-2.6063	-3.2042	-3.0271	-2.975	-3.5208	-2.7646	-3.1792	-3.3125	-2.8375	410.150	107.959	333.324	404.189	312.034	317.439	441.129	387.028	424.557	414.562	318.056	434.052	163.008	431.024	411.370	435.720	0.0039385	0.00013279	0.0002534	737.81	9.7868e-06	1.1478e-05	1021.7	253.9	1.8494e-05	1.3937e-05	485.4	234.57	116.5	50.977	6.3962e-06	119.9	0.0056955	0.0081696	0.0023517	695.93	8.0484e-05	9.1782e-05	952.91	240.63	7.6681e-05	9.2306e-05	460.34	218.54	110.01	48.881	8.1769e-05	112.97	344.500	154.329	222.358	117.190	295.928	238.773	117.226	122.385	286.542	220.118	120.963	124.739	125.358	128.884	174.068	127.692	-8191	255	
1774.837	1	1	0	0	0.21854	0.087589	0.081248	0.084212	0.053428	0.12197	0.25876	0.031072	0.097261	0.12476	0.17883	0.16182	0.24447	0.33378	0.33197	0.31703	-2.8167	-3.1896	-2.4667	-3.3979	-2.7958	-2.8917	-3.5208	-2.6646	-3.1688	-3.0958	-2.6583	-3.5563	-3.0062	-2.925	-3.3521	-2.7979	378.863	274.931	211.029	401.256	247.559	299.478	399.588	433.795	462.844	442.262	427.918	405.429	443.804	407.619	210.663	429.871	0.0039262	0.0010725	0.00013045	733.27	1.4525e-05	4.4573e-06	1020.9	255.35	7.0341e-06	8.6552e-06	484.88	235.09	117.69	51.328	1.1285e-05	120.05	0.0056173	0.0079484	0.002305	696.14	7.7869e-05	9.0305e-05	956.72	241.19	7.8177e-05	9.0525e-05	460.28	219.44	110.65	49.017	8.2499e-05	113.51	351.396	228.040	279.531	117.275	215.018	230.757	117.286	122.094	264.085	199.081	121.293	124.945	125.528	129.389	260.556	127.633	-8191	255	
1774.933	1	1	0	0	0.15566	0.14277	0.29182	0.074841	0.098955	0.058866	0.17155	0.22949	0.12298	0.13173	0.28042	0.31243	0.19904	0.22411	0.22666	0.4189	-2.8396	-3.3167	-2.7917	-3.5708	-2.8479	-2.7854	-3.7021	-2.725	-3.3812	-3.4021	-2.8438	-3.4833	-3.025	-2.8146	-3.4646	-2.9729	250.340	272.002	419.393	325.610	408.183	351.910	380.164	464.255	259.594	302.357	333.525	450.427	391.131	106.350	452.229	406.252	0.0038841	0.00071021	0.00026552	736.14	1.7844e-05	6.5838e-06	1016.9	254.39	9.7926e-06	1.0864e-05	483.38	233.08	115.71	50.846	2.9816e-06	118.1	0.0058704	0.0083163	0.0023492	697.56	8.2804e-05	9.4997e-05	951.32	240.03	8.1396e-05	9.4243e-05	456.73	217.4	109.25	48.402	8.3452e-05	111.71	344.733	183.258	171.400	117.425	230.918	256.842	117.388	122.303	263.680	301.214	121.249	124.887	125.172	129.456	217.288	127.697	-8191	255	
1775.054	1	1	0	0	0.2431	0.19361	0.048116	0.1423	0.20893	0.042291	0.46025	0.10904	0.21778	0.19891	0.37246	0.10875	0.16871	0.14124	0.095885	0.25218	-2.5229	-3.2875	-2.5542	-3.4146	-3.1396	-2.7354	-3.6188	-2.8958	-3.0146	-3.3958	-2.725	-3.425	-3.2062	-2.8812	-3.3563	-3.0583	203.621	417.142	420.481	403.105	128.977	268.783	406.787	349.405	372.695	301.309	409.737	128.911	134.963	114.963	436.389	406.141	0.0037454	0.00084014	0.00032066	724.96	1.6543e-05	1.0334e-05	1003.3	253.04	1.3706e-05	6.0763e-06	479.89	231.45	115.33	50.601	1.2866e-05	117.33	0.0057393	0.0082153	0.0023109	687.99	8.1318e-05	9.2999e-05	941.45	238.63	8.002e-05	9.3325e-05	453.8	216.33	109.16	48.237	8.5292e-05	111.08	344.010	235.859	194.885	117.746	236.739	218.097	117.474	122.402	338.375	360.299	121.230	124.856	125.879	129.603	268.156	127.345	-8191	255	
1775.126	1	1	0	0	0.24203	0.28186	0.15084	0.23708	0.073181	0.097612	0.27611	0.13158	0.13703	0.11477	0.1666	0.21567	0.26826	0.14201	0.26834	0.39639	-2.5042	-3.5187	-2.4688	-3.2375	-3.1354	-2.5625	-3.5042	-2.9271	-2.8479	-3.3438	-2.8542	-3.3229	-3.4396	-2.7833	-3.425	-3.1562	135.891	112.263	430.600	144.754	305.709	260.796	354.973	361.759	369.045	424.236	162.437	442.982	130.555	360.777	215.254	429.946	0.0036165	0.00098634	0.00016055	723.88	9.1652e-06	9.8507e-06	1004.4	251.84	2.4466e-05	4.9716e-06	478.96	230.67	115.76	50.504	1.095e-05	117.64	0.0058288	0.0084467	0.0024307	690.4	8.2887e-05	9.6564e-05	941.9	238.04	8.1553e-05	9.4798e-05	453.89	216.31	109.52	48.23	8.8364e-05	111.57	343.668	164.085	188.050	117.278	264.464	258.103	116.818	121.920	264.885	148.199	120.407	124.448	124.915	128.650	242.530	127.147	-8191	255	
1775.246	1	1	0	0	0.1573	0.045643	0.079639	0.13238	0.23498	0.09614	0.18239	0.19368	0.23429	0.1484	0.12204	0.23926	0.14427	0.29694	0.1735	0.14229	-2.3896	-3.4292	-2.6063	-3.2167	-3.2375	-2.7542	-3.5333	-2.975	-2.6667	-3.3937	-2.6229	-3.1688	-3.3438	-2.6083	-3.3354	-3.1979	213.612	113.270	412.286	449.511	393.926	199.525	403.976	386.500	270.061	297.285	276.883	425.576	424.507	414.165	460.420	143.614	0.0038621	0.0009294	0.00033405	727.23	1.1979e-05	1.6983e-05	1019.1	251.82	7.184e-06	1.2165e-05	479.77	231.96	115.19	50.298	3.8259e-06	119.21	0.0058804	0.0084464	0.0024157	692.58	8.2769e-05	9.6653e-05	950.21	238.4	8.1384e-05	9.5626e-05	455.21	217.58	109.59	48.435	8.796e-05	112.48	347.478	166.895	126.519	117.112	291.112	236.973	117.020	121.921	251.011	265.142	120.409	124.352	124.800	128.772	250.140	127.010	-8191	255	
1775.342	1	1	0	0	0.30511	0.16038	0.16539	0.10464	0.2696	0.11886	0.086253	0.085139	0.096387	0.13753	0.073119	0.084635	0.05838	0.13711	0.13229	0.062	-2.1292	-3.2833	-2.7562	-3.0208	-3.3167	-2.625	-3.4792	-3.2958	-2.4646	-3.3958	-2.9771	-3.175	-3.3417	-2.75	-3.2958	-3.3833	356.565	149.666	251.438	312.330	208.316	344.552	288.848	398.188	275.871	239.741	371.111	330.202	141.324	359.196	191.377	126.239	0.0035679	0.00097033	0.0002724	722.15	1.168e-05	2.6302e-06	1003.4	250.96	1.6285e-05	9.3004e-06	474.08	230.28	115.06	50.528	8.2446e-06	117.43	0.0057845	0.0084533	0.0023648	689.39	8.0352e-05	9.3539e-05	942.97	237.3	8.116e-05	9.5149e-05	450.12	215.67	108.76	48.367	8.9843e-05	111.16	347.852	192.907	210.423	117.009	212.757	286.743	116.943	122.160	225.062	254.789	120.558	124.715	125.251	128.937	234.053	127.146	-8191	255	
1775.439	1	1	0	0	0.15353	0.064888	0.16597	0.070533	0.054349	0.20403	0.20283	0.23164	0.30462	0.20267	0.11787	0.097869	0.074585	0.22171	0.11353	0.32227	-2.2396	-3.4208	-3.0417	-2.9771	-3.4646	-2.6208	-3.275	-3.3312	-2.5292	-3.4562	-3.1021	-2.9688	-3.5729	-2.7771	-3.2167	-3.5438	427.012	279.505	376.403	392.232	247.900	148.301	338.428	324.427	291.719	442.945	248.619	426.147	312.752	106.920	232.467	343.998	0.0041143	0.00057253	0.00033667	723.39	1.2143e-05	8.4151e-06	993.27	247.34	7.4385e-06	8.159e-06	470.94	226.74	113.34	50.227	8.6463e-06	116.58	0.005844	0.0084514	0.0023933	685.7	8.2641e-05	9.8322e-05	936.73	234.14	8.1706e-05	9.8499e-05	445.86	212.82	107.5	47.976	9.1765e-05	110.43	346.580	207.201	276.372	117.232	224.559	282.696	116.889	121.901	392.500	238.575	121.112	124.545	124.872	128.859	296.176	127.226	-8191	255	
1775.535	1	1	0	0	0.2354	0.1601	0.12739	0.17368	0.032676	0.33654	0.14696	0.07701	0.15851	0.094325	0.21695	0.38074	0.10871	0.23655	0.2835	0.16679	-2.1708	-3.4271	-2.9896	-2.7958	-3.4125	-2.8167	-3.2229	-3.5187	-2.6646	-3.3229	-3.1792	-2.7625	-3.3542	-2.75	-2.8354	-3.5292	349.192	440.888	418.270	108.431	265.932	431.028	400.074	121.404	175.938	408.323	383.607	413.568	381.169	136.503	459.757	441.753	0.0037845	0.00077258	0.00032453	717.44	1.8893e-05	6.4282e-06	997.98	247.53	4.0797e-06	1.1575e-05	468.8	228.41	112.31	49.778	1.4723e-05	117.97	0.0059622	0.0087483	0.0024505	683.7	8.4729e-05	9.8592e-05	934.21	232.81	8.3389e-05	9.6867e-05	443.58	213.25	106.56	47.801	8.7937e-05	111.3	349.774	195.441	212.013	116.936	274.473	334.058	117.394	121.830	325.680	209.252	120.716	124.327	125.169	128.760	240.087	127.391	-8191	255	
1775.654	1	1	0	0	0.10355	0.065652	0.11959	0.27211	0.083375	0.15852	0.069081	0.14403	0.26425	0.091478	0.25117	0.18836	0.047266	0.19946	0.096402	0.29786	-2.1688	-3.2458	-3.1833	-2.7729	-3.4688	-2.825	-3.1458	-3.4167	-2.55	-3.375	-3.3438	-2.7854	-3.3292	-3.0312	-2.875	-3.8083	200.846	159.883	347.730	360.785	356.612	443.263	379.354	379.139	424.409	293.286	106.541	397.367	239.178	287.706	266.969	391.963	0.0035928	0.0010544	0.00011827	715.51	9.0871e-06	2.8586e-06	1010.8	247.16	2.6425e-05	4.3469e-06	474.54	232.1	114.43	50.338	5.1836e-06	118.2	0.0057547	0.0084868	0.0023581	682.04	8.1109e-05	9.3486e-05	942.57	233.47	7.974e-05	9.5224e-05	448.52	216.15	108.28	48.466	8.7697e-05	111.92	349.099	203.923	279.619	117.361	236.399	390.063	116.898	121.702	288.334	285.765	120.546	124.585	125.234	128.735	337.002	127.593	-8191	255	
1775.750	1	1	0	0	0.26472	0.17755	0.11493	0.36689	0.2574	0.16234	0.20056	0.037413	0.2255	0.17116	0.060354	0.070979	0.1121	0.25089	0.1546	0.37883	-2.1813	-3.1271	-3.2354	-2.7313	-3.45	-3.0396	-2.95	-3.625	-2.7104	-3.0208	-3.3354	-2.9604	-3.5062	-3.1646	-2.8604	-3.5062	208.806	107.280	453.114	338.776	326.548	242.343	165.436	421.438	205.032	428.836	173.339	370.326	166.277	400.944	362.721	403.184	0.0038182	0.0010304	0.00016571	717.12	1.0284e-05	7.818e-06	1002.3	248.95	5.9376e-06	9.4522e-06	472.1	229.7	113.33	50.253	2.1643e-06	116.8	0.0058875	0.0086148	0.0023375	683.15	8.3916e-05	9.6012e-05	938.87	235.05	8.3503e-05	9.9428e-05	446.3	214.41	108.01	48.087	8.9847e-05	110.54	345.588	190.602	206.401	117.019	318.658	282.024	117.060	122.273	262.051	254.281	120.916	124.560	125.195	129.029	195.285	127.207	-8191	255	
1775.821	1	1	0	0	0.1191	0.14728	0.17921	0.067744	0.17323	0.070742	0.30085	0.18354	0.087042	0.1799	0.10919	0.10141	0.23779	0.14117	0.37888	0.3411	-2.3708	-2.8896	-3.2729	-2.7271	-3.3479	-3.2313	-2.9417	-3.6562	-2.8146	-2.8937	-3.5417	-2.7	-3.4021	-3.125	-2.6312	-3.6312	123.243	334.328	169.160	287.311	455.677	371.154	117.109	402.825	158.206	113.697	377.984	418.788	401.908	407.963	462.568	354.247	0.0039407	0.00064011	8.2283e-05	713.71	1.1744e-05	6.8788e-06	992.13	247	2.3092e-05	1.0774e-05	468.29	229.93	113.68	50.382	1.2545e-05	117.63	0.0059329	0.0087072	0.0023208	680.18	8.3244e-05	9.3497e-05	929.18	233.21	7.966e-05	9.3237e-05	443.95	214.7	107.64	48.092	8.4126e-05	111.19	345.924	183.651	181.067	117.043	323.966	278.738	117.175	121.781	263.032	163.439	121.384	124.431	125.382	129.241	208.540	127.490	-8191	255	
1775.942	1	1	0	0	0.20713	0.14981	0.013081	0.079989	0.012184	0.009927	0.25398	0.14354	0.1273	0.14401	0.37892	0.37476	0.15437	0.21449	0.19822	0.17876	-2.3854	-2.7521	-3.3458	-2.7729	-3.2875	-3.2583	-2.7229	-3.3063	-2.9021	-2.8958	-3.6083	-2.7708	-3.1917	-3.4792	-2.5417	-3.6625	341.508	159.991	289.530	443.625	386.365	267.046	438.193	414.476	108.246	147.827	421.755	407.756	383.858	421.466	417.755	343.164	0.0039732	0.00089959	0.00024355	718.1	2.5631e-06	4.3139e-06	1001	248.55	3.1597e-06	7.4665e-06	474.93	232.78	115.34	51.032	1.2961e-05	119.78	0.0056425	0.0082441	0.0022417	680.25	7.9981e-05	8.8999e-05	935.3	234.99	7.6909e-05	9.1889e-05	448.72	216.96	109.16	48.51	8.2669e-05	112.9	349.288	226.128	214.531	117.024	279.522	243.015	117.096	121.883	110.964	231.647	121.110	124.755	125.656	129.321	237.776	127.500	-8191	255	
1776.038	1	1	0	0	0.034551	0.12478	0.12216	0.12223	0.37595	0.18075	0.24807	0.28051	0.10809	0.14577	0.28612	0.21374	0.122	0.23686	0.24871	0.15515	-2.4729	-3.0208	-3.4958	-2.7979	-3.0208	-3.4062	-2.5854	-3.4917	-3.0979	-2.9021	-3.5208	-2.9813	-3.3021	-3.5792	-2.7542	-3.5875	431.337	306.939	217.282	370.953	411.090	117.413	407.269	425.835	282.092	366.930	401.707	132.625	233.316	399.579	428.798	318.822	0.0039515	0.0011433	0.00030776	728.51	7.6183e-06	7.2011e-06	1012.9	254.23	5.6789e-06	5.1499e-06	482.33	236.41	118.45	51.44	1.6693e-05	119.38	0.0056283	0.0079579	0.0021788	687.78	7.7575e-05	8.6998e-05	944.84	239.28	7.3729e-05	8.8178e-05	455.78	220.79	111.6	48.925	8.4035e-05	112.69	342.854	199.987	167.289	117.157	229.170	248.623	117.152	122.392	240.118	217.742	120.867	124.608	125.290	129.023	199.214	127.946	-8191	255	
1776.134	1	1	0	0	0.34148	0.25167	0.19897	0.14289	0.12541	0.20076	0.3034	0.20814	0.080763	0.12379	0.35206	0.083463	0.040344	0.075938	0.19961	0.20824	-2.6542	-2.5875	-3.4167	-2.9437	-2.7562	-3.2979	-2.825	-3.5417	-2.9229	-2.7917	-3.6813	-2.9792	-2.9854	-3.5833	-2.7687	-3.3021	382.504	352.002	419.892	112.122	165.714	453.003	352.422	413.011	160.059	215.774	129.721	371.847	457.420	264.772	202.462	462.016	0.0040529	0.0014222	0.00035395	717.54	1.8603e-05	5.6252e-06	1000.5	256.25	9.8198e-06	8.9189e-06	487.62	235.46	117.57	49.869	1.4029e-05	117.11	0.0055188	0.0081962	0.0023242	682.41	8.0237e-05	8.9042e-05	937.07	241.36	7.5644e-05	8.9508e-05	460.44	219.22	111.19	47.657	7.9702e-05	110.71	340.395	173.373	215.339	117.164	232.794	293.748	117.163	122.266	244.585	258.359	120.873	124.305	125.336	129.143	246.253	127.653	-8191	255	
1776.230	1	1	0	0	0.18532	0.13404	0.15766	0.24126	0.20105	0.13221	0.18949	0.14294	0.26379	0.22956	0.43827	0.26521	0.10758	0.040766	0.14633	0.36852	-2.9646	-2.6125	-3.475	-2.9229	-2.75	-3.4062	-2.8042	-3.2313	-3.3063	-2.6458	-3.5875	-3.1958	-2.9604	-3.5417	-2.8458	-3.2979	116.196	395.519	156.958	449.312	241.818	391.897	402.666	437.542	383.973	263.074	419.154	432.027	117.989	459.710	377.383	387.383	0.0038406	0.00096859	7.5135e-05	709.28	6.193e-06	9.9295e-06	995.27	256.95	1.1408e-05	1.4731e-05	485.47	235.3	118.02	50.478	9.7686e-06	118.03	0.0052264	0.0074795	0.0021219	671.11	7.3905e-05	8.2352e-05	928.48	240.67	6.9457e-05	8.3538e-05	458.51	219.39	111.06	48.074	7.4969e-05	111.65	347.039	191.645	158.752	117.055	280.179	308.963	117.134	122.568	238.587	256.228	121.298	124.715	125.522	129.287	221.599	127.688	-8191	255	
1776.351	1	1	0	0	0.24525	0.1964	0.061704	0.23328	0.1406	0.20576	0.062056	0.13987	0.16482	0.20372	0.29492	0.18074	0.06469	0.15926	0.45707	0.24658	-3.05	-2.6875	-3.5	-3.1521	-2.6042	-3.4792	-3.0271	-3.0708	-3.2708	-2.7667	-3.4854	-3.2812	-2.8625	-3.5146	-2.775	-3.2042	315.032	290.972	166.188	429.446	141.449	365.640	163.171	312.113	408.987	274.377	388.888	117.061	136.655	109.233	429.629	396.593	0.0039113	0.0012047	0.00031461	703.85	1.0863e-05	9.0428e-07	996.43	252.2	1.5375e-05	8.6971e-06	480.58	237.67	117.76	51.1	1.502e-05	120.57	0.005086	0.0073757	0.0020339	666.59	6.9483e-05	7.9598e-05	925.45	236.68	6.4857e-05	8.0702e-05	454.56	221.06	110.64	48.789	7.1415e-05	113.58	345.832	204.587	181.334	117.737	289.479	417.968	117.422	122.249	239.287	277.154	121.286	124.671	125.367	128.941	289.499	127.515	-8191	255	
1776.423	1	1	0	0	0.11026	0.15871	0.20076	0.34897	0.20163	0.15076	0.085237	0.18435	0.20026	0.15864	0.15306	0.029672	0.29539	0.087419	0.28652	0.24228	-2.8708	-2.5187	-3.2687	-3.3125	-2.5729	-3.4542	-2.9125	-3.1167	-3.4229	-2.8229	-3.3583	-3.4833	-2.7167	-3.5646	-2.9979	-2.9437	220.202	441.875	318.980	451.548	399.254	425.653	321.820	396.258	309.525	432.958	275.683	446.065	378.837	380.456	357.730	389.851	0.0040348	0.00082052	0.00041711	709.68	1.8547e-05	8.9895e-06	993.89	254.92	1.3873e-05	7.9245e-06	490.21	238.34	118.9	51.945	2.0666e-05	120.52	0.0049031	0.0070656	0.0019884	669.93	6.8629e-05	7.7324e-05	929.62	238.79	6.641e-05	7.9522e-05	461.34	222.95	112.08	49.213	7.3293e-05	113.94	346.601	132.162	186.014	116.998	257.732	223.337	116.779	122.112	202.928	300.917	121.100	124.085	124.828	128.954	254.492	127.423	-8191	255	
1776.519	1	1	0	0	0.19479	0.10268	0.18375	0.23929	0.18819	0.26435	0.15121	0.086235	0.13921	0.10329	0.15435	0.024145	0.096058	0.14958	0.020567	0.26131	-3.1083	-2.8958	-3.0625	-3.3833	-2.6833	-3.5583	-3.3042	-2.9042	-3.3833	-2.7729	-3.2479	-3.5917	-2.9	-3.45	-3.0438	-2.9583	104.390	463.510	417.775	419.044	234.423	176.334	107.420	417.642	205.235	393.809	456.072	390.506	383.122	301.988	283.409	419.451	0.0035603	0.0010099	0.00038494	709.28	1.229e-05	3.0722e-06	990.58	251.28	1.4865e-05	1.0994e-05	480.71	237.21	117.52	51.171	9.3985e-06	119.25	0.0050297	0.0071949	0.0020351	669.44	6.9881e-05	8.0287e-05	923.96	236.8	6.777e-05	8.1341e-05	454	220.65	110.45	48.722	7.4061e-05	112.42	348.769	172.825	236.377	116.970	260.408	257.686	116.631	122.063	270.847	230.443	121.042	124.428	125.035	128.889	225.785	127.293	-8191	255	
1776.615	1	1	0	0	0.20083	0.095845	0.16064	0.2777	0.14249	0.082775	0.30782	0.27894	0.036196	0.17288	0.10299	0.074722	0.17063	0.13354	0.16596	0.19406	-3.0042	-2.7	-3.0104	-3.5021	-2.85	-3.2438	-3.1937	-2.8271	-3.45	-2.8083	-2.8625	-3.7208	-2.85	-3.325	-3.1667	-2.8458	138.732	175.907	144.419	344.079	175.761	415.865	105.926	109.474	105.005	422.195	150.494	315.764	450.139	322.866	279.209	414.020	0.003797	0.00087829	0.00027031	696.65	1.2306e-05	3.2557e-06	979.37	246.85	5.3616e-06	8.6116e-06	474.65	233.86	115.49	51.101	5.8799e-06	119.33	0.0051776	0.0074507	0.0020867	661.61	7.2926e-05	8.3423e-05	916.29	232.91	6.956e-05	8.251e-05	447.65	217.84	108.72	48.661	7.3421e-05	112.59	346.808	116.703	191.770	116.928	197.076	339.572	116.286	121.765	233.976	222.842	120.470	123.914	124.792	128.815	278.237	127.398	-8191	255	
1776.734	1	1	0	0	0.19122	0.14963	0.009707	0.068551	0.25388	0.11157	0.18982	0.024182	0.24283	0.24899	0.11535	0.17684	0.14719	0.25639	0.13593	0.21689	-2.9354	-2.9625	-2.8812	-3.475	-2.6583	-3.0375	-3.3521	-2.7854	-3.3729	-2.9688	-2.7083	-3.5729	-2.7417	-3.2542	-3.2292	-2.7146	310.549	272.611	259.596	314.878	293.954	303.592	121.348	285.616	311.757	306.230	462.983	409.057	275.336	389.442	159.006	387.135	0.0039136	0.0016676	0.00015741	700.36	1.7541e-05	1.3034e-05	982.95	244.53	1.4446e-05	1.9536e-06	473.75	232.49	114.08	51.254	1.0875e-05	120.13	0.0051715	0.0072375	0.0020193	665.33	7.1425e-05	8.1804e-05	917.62	231.12	6.7926e-05	8.0535e-05	446.27	217.22	107.59	48.562	7.2044e-05	113.52	344.411	203.515	196.497	116.986	219.289	236.576	116.898	121.868	227.991	328.183	120.757	124.277	124.975	128.911	222.551	127.416	-8191	255	
1776.830	1	1	0	0	0.25887	0.2334	0.18171	0.067326	0.13856	0.084737	0.31866	0.063099	0.22393	0.16161	0.10387	0.43701	0.094617	0.071408	0.082838	0.16755	-3	-2.9729	-2.8438	-3.5958	-2.8917	-2.8833	-3.2646	-2.7125	-3.2938	-3.1396	-2.6979	-3.6542	-2.8396	-3.2125	-3.3812	-2.9083	222.329	417.298	191.714	114.827	182.327	117.434	458.859	308.344	444.182	462.941	409.331	433.501	279.744	306.391	436.222	404.043	0.0040448	0.00068068	0.00033675	708.14	1.1174e-05	1.3586e-05	997.41	245.65	2.528e-05	1.201e-05	474.85	234.91	115.09	51.494	1.4501e-05	120.46	0.0050297	0.0070811	0.0019769	671.15	7.0171e-05	8.0408e-05	930.93	231.66	6.7771e-05	7.7432e-05	448.78	219.22	108.21	48.971	7.1343e-05	113.78	344.664	179.147	211.939	116.855	292.993	273.633	116.939	122.012	278.759	251.747	121.263	124.634	125.555	128.955	253.952	127.231	-8191	255	
1776.926	1	1	0	0	0.26878	0.16293	0.11665	0.076641	0.039278	0.1711	0.15824	0.10268	0.13869	0.14926	0.057546	0.22484	0.26321	0.19358	0.26158	0.10641	-2.9417	-3.2313	-2.6646	-3.5292	-2.9229	-3.0438	-3.4521	-2.7958	-3.3563	-3.275	-2.8333	-3.5167	-3.1729	-2.9771	-3.5583	-2.9625	379.967	144.705	335.593	446.788	254.672	242.482	382.684	165.510	428.377	207.030	351.943	432.262	109.934	123.039	297.196	445.306	0.0039413	0.0010879	0.00027664	708.37	8.0964e-06	6.5782e-06	985.67	247.46	6.6728e-06	2.5752e-06	471.37	234.01	114.59	51.476	1.2085e-05	119.93	0.0050057	0.0069993	0.0019809	671.84	7.0001e-05	7.8417e-05	920.94	232.56	6.6702e-05	7.544e-05	444.38	217.77	107.7	48.749	6.9437e-05	113.24	351.614	233.153	294.529	117.243	261.739	191.269	116.953	122.105	178.739	287.165	121.061	124.596	125.670	128.832	256.275	127.344	-8191	255	
1777.022	1	1	0	0	0.085421	0.14461	0.048213	0.13494	0.1552	0.26557	0.17684	0.21118	0.2861	0.13989	0.2843	0.32757	0.031003	0.16652	0.17262	0.28647	-2.8625	-3.3146	-2.4292	-3.3646	-3.0646	-2.6521	-3.5208	-2.7875	-3.0583	-3.4146	-2.8771	-3.6312	-3.2292	-3.0312	-3.6458	-3.0333	349.436	233.592	277.418	461.249	317.413	426.371	190.134	294.271	412.694	110.805	410.378	458.235	313.213	375.176	275.466	418.757	0.0041464	0.00018478	0.00029801	710.6	8.9408e-06	8.662e-06	991.71	246.34	1.0471e-05	9.7481e-06	473.08	233.32	115.32	52.094	1.3818e-05	121.45	0.0048421	0.0067062	0.0019212	669.65	6.6826e-05	7.7066e-05	921.13	231.49	6.5623e-05	7.4797e-05	445.07	217.54	108.48	49.244	6.8861e-05	114.02	348.579	413.392	166.606	117.661	278.644	246.704	117.456	122.121	309.198	242.662	121.247	124.979	125.811	129.304	254.793	127.487	-8191	255	
1777.119	1	1	0	0	0.029001	0.14493	0.28387	0.10789	0.11404	0.10018	0.21082	0.27088	0.32701	0.07204	0.21854	0.36852	0.13884	0.43684	0.14302	0.25192	-2.55	-3.3833	-2.5146	-3.5	-3.1229	-2.6708	-3.5687	-2.9813	-2.8563	-3.5208	-2.7417	-3.5104	-3.1854	-2.8104	-3.45	-3.2104	438.814	226.474	190.546	423.794	174.080	432.056	297.152	415.318	121.620	136.960	356.191	348.818	325.018	447.067	390.847	463.178	0.0036016	0.0014675	0.0001977	713.61	1.0677e-05	1.1367e-05	989.75	245.36	1.6633e-05	6.5544e-06	473.85	233.89	116.33	51.799	6.6525e-06	122.17	0.0048616	0.0066482	0.0019342	672.32	6.6329e-05	7.6508e-05	924.13	231.85	6.5543e-05	7.6871e-05	446.36	218.79	108.65	49.435	7.0589e-05	114.74	345.366	180.924	176.842	117.437	233.064	286.975	117.360	122.292	243.341	263.780	120.929	124.723	125.388	128.998	309.560	127.671	-8191	255	
1777.215	1	1	0	0	0.074989	0.15854	0.1334	0.026841	0.28866	0.28785	0.094702	0.12402	0.011988	0.21433	0.19693	0.17341	0.19959	0.17077	0.065313	0.52607	-2.5479	-3.2313	-2.6771	-3.2896	-3.2938	-2.7542	-3.675	-3.0729	-2.7958	-3.4896	-2.7292	-3.3708	-3.2646	-2.7687	-3.3312	-3.2583	150.594	257.660	149.012	246.571	273.015	182.235	370.059	104.964	249.220	250.311	423.871	143.895	437.202	357.539	214.808	375.116	0.0035832	0.00085888	0.00050308	714.41	2.1448e-05	8.5005e-06	999.86	248.32	1.9574e-05	3.9042e-06	475.12	236.79	115.63	52.049	7.3636e-06	121.09	0.0048908	0.0067715	0.0019225	675.63	6.594e-05	7.765e-05	932.98	232.8	6.6064e-05	7.874e-05	448.05	220.03	108.53	49.403	7.2663e-05	114.28	344.464	130.027	176.499	117.709	261.356	248.368	117.531	122.345	269.966	327.081	121.614	125.031	125.863	129.328	243.717	127.305	-8191	255	
1777.335	1	1	0	0	0.12265	0.11319	0.10161	0.22349	0.14535	0.31484	0.037834	0.078008	0.1689	0.19825	0.07418	0.34047	0.24858	0.23993	0.11328	0.29745	-2.4083	-3.4646	-2.8104	-3.1	-3.2125	-2.6188	-3.6292	-3.2562	-2.6583	-3.6292	-2.8625	-3.1375	-3.4333	-2.6833	-3.3187	-3.2771	266.822	237.252	281.245	141.578	135.782	234.382	150.220	327.644	189.077	308.530	326.291	417.404	419.450	395.414	315.782	380.758	0.0042025	0.00092379	0.00010446	711.08	1.3646e-05	1.3233e-05	983.53	244.56	1.4407e-05	7.1066e-06	469.22	233.85	115.1	51.782	8.9444e-06	120.43	0.0049678	0.0069519	0.0019948	672.29	6.6459e-05	7.7491e-05	917.77	231.1	6.5631e-05	7.6993e-05	443.56	217.66	108.11	49.162	7.1578e-05	113.26	345.816	246.760	194.417	117.450	238.523	244.337	117.100	122.009	255.433	285.401	121.224	124.720	125.591	129.290	289.689	127.839	-8191	255	
1777.430	1	1	0	0	0.13534	0.33962	0.22183	0.16209	0.28333	0.075444	0.12979	0.043175	0.33122	0.2821	0.30893	0.4539	0.091136	0.14568	0.18615	0.46616	-2.1875	-3.5125	-2.8521	-2.9688	-3.375	-2.6396	-3.5938	-3.35	-2.625	-3.5187	-2.9292	-3.2771	-3.5854	-2.8854	-3.0771	-3.6292	123.586	439.813	261.052	322.449	113.899	175.778	352.199	167.001	219.091	368.403	390.277	408.785	122.895	433.976	370.338	386.124	0.0035681	0.00069536	0.00040379	704.66	2.5204e-06	7.9374e-06	983.08	244.29	1.936e-05	1.274e-05	466.19	232.99	115.03	51.395	1.2087e-05	120.28	0.0049167	0.0068826	0.0019212	665.91	6.648e-05	7.9269e-05	916.38	230.44	6.6753e-05	7.8926e-05	440.6	216.78	108.07	48.956	7.3055e-05	113.17	345.660	164.275	199.269	117.714	207.050	242.289	117.441	121.929	307.901	257.322	121.231	124.506	125.641	128.813	311.030	127.369	-8191	255	
1777.526	1	1	0	0	0.021106	0.054944	0.06011	0.19453	0.15717	0.15189	0.20517	0.18835	0.09906	0.082382	0.14251	0.32989	0.23553	0.07775	0.17284	0.15423	-2.1708	-3.3667	-2.8625	-2.8833	-3.475	-2.5	-3.275	-3.3604	-2.7104	-3.475	-2.8917	-3.0438	-3.4208	-2.8104	-3.0396	-3.4354	295.043	408.995	237.904	415.153	301.518	349.559	389.143	435.311	441.969	402.002	421.475	422.745	378.004	453.946	265.969	400.298	0.0038787	0.00018305	0.00025925	704.28	1.2256e-05	1.4676e-05	988.63	244.99	1.3321e-05	8.968e-06	472.78	232.21	115.09	51.758	9.5886e-06	120.45	0.0049797	0.0070119	0.0019592	664.77	6.7857e-05	7.895e-05	918.31	230.27	6.6537e-05	7.7783e-05	443.38	217.62	108.1	49.216	7.0908e-05	113.68	350.065	207.373	216.774	117.358	289.011	212.012	117.479	122.571	274.132	279.515	120.948	124.345	125.169	128.863	278.827	127.015	-8191	255	
1777.647	1	1	0	0	0.074853	0.052042	0.14146	0.10376	0.11103	0.17924	0.15669	0.23889	0.080381	0.063112	0.082195	0.28539	0.12001	0.28518	0.15298	0.30202	-2.2792	-3.2979	-3.0396	-2.8688	-3.4917	-2.6958	-3.2917	-3.3604	-2.5333	-3.3708	-3.3146	-2.8208	-3.5	-2.9854	-2.9	-3.5521	260.667	342.373	364.824	393.947	294.114	168.345	281.824	378.794	208.862	240.360	359.580	405.602	366.421	377.803	416.518	398.167	0.0039628	0.00059397	0.00026604	709.31	1.4569e-05	6.2109e-06	983.86	244.91	8.3742e-06	1.0674e-05	469.26	232.95	114.58	51.45	1.1949e-05	119.9	0.0050341	0.0070196	0.0019325	670.29	6.7323e-05	7.8739e-05	921.45	230.53	6.7376e-05	7.901e-05	441.98	217.45	107.84	48.98	7.272e-05	113.18	345.309	150.952	184.227	117.427	240.774	302.887	116.784	122.029	240.271	285.944	120.788	124.541	125.220	128.835	281.743	127.028	-8191	255	
1777.718	1	1	0	0	0.10151	0.18641	0.1335	0.22794	0.077442	0.13934	0.1429	0.24607	0.26777	0.33065	0.065588	0.23246	0.055114	0.21376	0.059679	0.46718	-2.1312	-3.3021	-3.2125	-2.7833	-3.3729	-2.9208	-2.8479	-3.6521	-2.6667	-3.325	-3.4167	-2.8354	-3.5687	-3.1292	-2.7521	-3.725	176.307	321.254	340.744	451.683	300.622	381.757	401.376	121.309	130.063	455.980	233.142	411.851	111.887	425.539	183.723	418.535	0.0038585	0.0015339	0.00032593	700.86	1.2363e-05	7.1195e-06	983	243.36	1.3855e-05	1.1525e-05	463.97	230.19	114.25	50.636	6.1396e-06	118.85	0.0050355	0.0070141	0.0019122	665.43	7.068e-05	7.9215e-05	912.52	227.68	6.8859e-05	8.0421e-05	436.18	214.67	107.15	48.36	7.3935e-05	112.14	345.450	189.473	217.155	117.152	324.032	252.714	117.047	122.142	234.066	270.823	120.778	124.497	125.730	128.433	189.589	127.169	-8191	255	
1777.814	1	1	0	0	0.12497	0.11732	0.089254	0.38416	0.15699	0.027649	0.17828	0.35293	0.28153	0.16975	0.21566	0.17057	0.20004	0.14624	0.059318	0.13673	-2.2438	-3.1104	-3.2833	-2.8312	-3.2938	-3.0438	-2.8604	-3.7104	-2.8354	-3.1083	-3.3583	-2.7792	-3.3458	-3.2417	-2.8396	-3.5854	390.007	203.504	351.148	411.425	323.930	141.744	365.596	393.345	407.993	187.925	391.707	422.952	445.815	105.209	193.971	236.262	0.0038308	0.0012433	0.00044559	700.83	1.262e-05	4.5033e-06	977.02	241.34	1.3219e-05	3.0149e-06	463	231.16	114.59	51.425	3.7212e-06	119.6	0.0050429	0.0071304	0.0019725	660.45	7.0073e-05	7.8678e-05	908.4	228.23	6.7903e-05	7.906e-05	437.18	215.83	107.91	48.829	7.3728e-05	112.67	342.594	186.554	178.833	117.098	272.936	286.840	116.599	122.108	269.058	218.790	121.177	124.456	124.780	128.796	277.498	127.167	-8191	255	
1777.910	1	1	0	0	0.28527	0.07148	0.082438	0.34432	0.073447	0.19991	0.22954	0.057363	0.16235	0.22166	0.18924	0.1742	0.2984	0.17768	0.032656	0.30166	-2.5167	-2.7313	-3.3542	-2.6708	-3.1937	-3.0812	-2.675	-3.6083	-2.8979	-3.0896	-3.3583	-2.8937	-3.4583	-3.4458	-2.6312	-3.6417	269.370	126.530	324.352	106.094	385.761	188.040	196.661	272.740	433.986	378.169	369.111	426.684	463.701	149.463	336.972	398.787	0.0039881	0.00014021	0.00018968	701.86	1.2576e-05	1.6148e-06	978.26	245.49	7.9646e-06	3.2265e-06	466.01	234.27	115.16	51.648	3.9615e-06	120.66	0.0050796	0.0070693	0.0019691	663.62	6.987e-05	7.7246e-05	914.24	230.43	6.7228e-05	7.8656e-05	439.47	217.98	108.58	49.205	7.2283e-05	113.91	345.770	240.894	183.649	117.166	217.870	230.474	117.144	122.114	303.283	295.735	120.624	124.267	125.077	128.582	182.732	127.208	-8191	255	
1778.007	1	1	0	0	0.096762	0.09228	0.23453	0.24639	0.11221	0.05662	0.1899	0.17999	0.29906	0.10655	0.13553	0.26521	0.1518	0.037187	0.11471	0.24817	-2.6063	-2.7896	-3.4938	-2.8208	-2.9958	-3.0583	-2.7792	-3.4729	-3.0125	-2.9229	-3.5521	-2.9562	-3.2542	-3.3563	-2.7917	-3.5167	115.410	174.034	144.747	429.771	126.501	108.833	396.479	114.431	120.305	209.971	364.478	442.142	435.570	339.434	443.090	404.962	0.0040541	0.00063613	0.00013542	706.46	1.3205e-05	6.8478e-06	985.87	245.11	5.9139e-07	9.1734e-06	468.22	233.27	114.86	51.999	1.1481e-05	120.78	0.0049158	0.0069563	0.0019462	668.54	6.8513e-05	7.6365e-05	917.68	229.54	6.4483e-05	7.6559e-05	440.55	217.64	108.38	49.281	7.114e-05	113.65	350.280	154.026	185.628	117.133	228.541	220.336	117.222	121.797	315.760	281.557	121.057	124.313	125.182	128.703	193.521	127.206	-8191	255	
1778.126	1	1	0	0	0.2799	0.11881	0.084857	0.19617	0.25502	0.2209	0.14207	0.20062	0.23107	0.19724	0.15239	0.19426	0.10254	0.26537	0.11328	0.31733	-2.5271	-2.8438	-3.5438	-2.8292	-2.9813	-3.2542	-2.8125	-3.2979	-3.0354	-2.8354	-3.5458	-2.9979	-3.0833	-3.3833	-2.6333	-3.4979	168.607	109.351	397.898	163.389	276.511	405.874	405.023	438.069	411.852	293.187	406.595	422.576	431.497	121.578	277.152	389.767	0.0038976	0.00024203	0.00026862	699.5	1.0951e-05	1.3386e-05	969.79	243.29	2.0386e-05	7.3566e-06	462.73	231.36	114.13	51.288	3.9696e-06	119.44	0.0048034	0.0067979	0.0019382	660.68	6.6952e-05	7.5421e-05	905.4	227.89	6.3634e-05	7.6968e-05	435.46	215.71	107.41	48.97	7.1251e-05	112.38	350.394	145.660	141.165	117.059	232.207	308.243	116.991	122.051	223.193	271.836	121.174	124.544	125.259	128.962	203.687	127.325	-8191	255	
1778.222	1	1	0	0	0.078954	0.14157	0.12594	0.23828	0.23311	0.080614	0.095332	0.26099	0.16985	0.13128	0.05609	0.42769	0.13878	0.23914	0.18561	0.052832	-2.6417	-2.5333	-3.45	-2.8875	-2.9479	-3.3875	-2.7167	-3.3125	-3.3271	-2.7646	-3.5417	-3.1083	-3.1833	-3.4729	-2.8125	-3.3792	370.826	163.134	149.992	369.911	180.470	194.473	374.462	140.920	404.131	416.493	134.503	385.141	256.398	369.041	412.083	132.429	0.0037326	0.0010103	0.00013241	694.2	9.2792e-06	1.3424e-05	962.39	241.1	1.3163e-05	3.5693e-06	458.15	231.13	114.49	52.004	1.406e-05	119.93	0.0047087	0.006845	0.0018995	656.23	6.5651e-05	7.4107e-05	902.19	226.32	6.1316e-05	7.5882e-05	434.07	215.35	107.73	49.289	6.9913e-05	113.1	343.559	209.739	215.816	116.926	224.025	237.715	117.003	122.244	296.605	237.884	120.598	123.954	125.315	129.004	281.040	127.333	-8191	255	
1778.295	1	1	0	0	0.24503	0.11155	0.058458	0.025741	0.099323	0.15956	0.1408	0.15675	0.15071	0.19385	0.16215	0.16686	0.043553	0.37474	0.14689	0.39531	-2.9417	-2.6771	-3.55	-2.9375	-2.9396	-3.3792	-2.8271	-3.2271	-3.3875	-2.6875	-3.4479	-3.2792	-2.8604	-3.5896	-2.8167	-3.4333	455.902	250.711	262.930	447.501	221.811	363.216	414.212	399.689	311.806	122.300	276.026	438.525	335.294	439.588	185.014	397.911	0.0038503	0.00053783	0.00034426	697.55	7.4344e-06	1.7679e-05	970.01	241.58	2.575e-05	1.181e-05	464.08	233.13	115.47	52.577	8.9874e-06	121.72	0.0047901	0.0068347	0.0018706	660.65	6.4449e-05	7.3286e-05	906.81	227.73	5.9532e-05	7.3381e-05	437.15	217.26	108.38	49.785	6.6143e-05	114.45	350.070	185.931	196.149	116.967	262.586	219.836	116.972	122.064	257.351	219.667	120.724	124.202	125.002	128.541	239.397	127.442	-8191	255	
1778.414	1	1	0	0	0.17245	0.19085	0.10098	0.18118	0.12355	0.25602	0.23376	0.17876	0.13698	0.1964	0.38132	0.20936	0.33277	0.41906	0.097639	0.13692	-3.0021	-2.575	-3.1875	-3.2875	-2.9062	-3.6104	-3.0208	-3.1813	-3.5771	-2.6417	-3.3979	-3.1625	-2.7333	-3.55	-2.8042	-3.1	153.393	408.214	221.802	407.678	390.433	391.549	458.184	329.990	376.299	280.615	415.657	409.696	432.868	422.775	314.951	437.730	0.0038938	0.00062382	0.00016148	711.35	6.9728e-06	7.6468e-06	979.94	243.98	2.6924e-05	1.3065e-05	467.88	235.42	117.14	52.844	7.8197e-06	121.76	0.0045274	0.006506	0.0017873	667.52	6.3754e-05	7.1108e-05	914.37	230.12	6.0414e-05	7.3759e-05	439.61	218.86	109.89	50.209	6.5543e-05	114.37	349.778	195.672	180.761	116.738	240.607	250.678	116.615	121.793	292.488	231.922	121.005	124.112	125.470	128.874	263.765	127.326	-8191	255	
1778.510	1	1	0	0	0.14414	0.14592	0.07441	0.27029	0.11798	0.064576	0.18703	0.22997	0.17113	0.22783	0.084902	0.20219	0.17105	0.20793	0.22432	0.29845	-2.9979	-2.6708	-3.2125	-3.3354	-2.6771	-3.3479	-3.1271	-3.0667	-3.425	-2.7125	-3.2438	-3.2125	-2.7021	-3.5021	-2.9562	-3.0375	367.031	179.790	342.635	426.129	238.727	205.652	411.370	177.861	145.478	335.380	450.449	378.081	410.816	109.229	232.387	398.399	0.0036066	0.001335	0.00024096	708.27	1.9428e-05	9.7701e-06	970.63	245.3	2.1289e-05	9.1896e-06	468.12	235.28	117.3	52.763	2.0194e-05	121.7	0.0045429	0.0064819	0.0017894	664.99	6.3319e-05	7.1282e-05	905.72	229.99	5.88e-05	7.103e-05	438.62	217.96	109.84	50.018	6.3259e-05	113.91	345.546	206.807	227.843	117.103	210.507	238.530	116.904	122.084	209.448	302.822	121.093	124.544	125.422	128.714	245.557	127.236	-8191	255	
1778.606	1	1	0	0	0.085036	0.042356	0.16015	0.059537	0.057315	0.047644	0.38891	0.29172	0.13995	0.02438	0.24694	0.051488	0.17608	0.22042	0.086051	0.36804	-3.0771	-2.8021	-3.1542	-3.3354	-2.7833	-3.4625	-3.0854	-2.925	-3.4583	-2.7062	-3.0479	-3.5438	-2.7271	-3.2896	-3.0604	-2.9167	127.020	229.837	398.240	396.206	118.310	114.804	384.151	403.399	107.074	127.198	410.971	368.555	432.783	433.108	291.183	397.873	0.0040871	0.00073003	0.00021765	701.33	1.0535e-05	4.7989e-06	977.58	244.59	5.8787e-07	1.4556e-05	468.48	236.62	117.62	53.052	7.325e-06	122.26	0.0045611	0.006349	0.0017687	663.6	6.2068e-05	6.9702e-05	908.74	230.85	5.8046e-05	6.9927e-05	442.39	219.53	110.07	50.213	6.3174e-05	114.55	342.974	141.309	124.988	116.719	263.719	283.870	116.859	122.250	453.774	232.080	120.881	124.363	125.233	128.629	199.741	127.451	-8191	255	
1778.727	1	1	0	0	0.19772	0.070189	0.18204	0.1336	0.10569	0.064294	0.2059	0.072891	0.090629	0.14757	0.16273	0.053544	0.24744	0.21323	0.16639	0.28003	-3.1771	-2.8125	-2.9104	-3.2896	-2.4917	-3.2812	-3.5271	-2.7438	-3.4104	-3.0042	-3.0187	-3.6021	-2.5646	-3.3312	-3.2708	-2.9542	276.114	335.303	367.271	440.587	348.576	383.960	148.566	179.206	275.960	287.039	395.967	176.157	437.330	126.981	201.645	398.932	0.003581	0.00086896	0.00025296	709.34	1.3553e-05	1.1507e-05	977.28	246.29	1.7364e-05	8.1256e-06	475.07	237.8	117.9	52.997	1.0189e-05	122.16	0.004472	0.0061801	0.0017517	667.68	6.1686e-05	6.924e-05	914.3	231.71	5.8845e-05	6.8508e-05	445.93	221.11	110.7	50.272	6.4196e-05	115.09	350.544	201.126	173.626	117.018	254.739	204.127	116.591	122.033	272.005	222.073	120.964	124.647	125.332	129.126	266.803	127.590	-8191	255	
1778.823	1	1	0	0	0.022442	0.078017	0.10133	0.1045	0.10778	0.15636	0.24886	0.21932	0.17694	0.038301	0.08614	0.17149	0.39539	0.13328	0.068852	0.24456	-2.9979	-2.8917	-2.6917	-3.5625	-2.6437	-3.1854	-3.5042	-2.8187	-3.5021	-2.9125	-3.075	-3.7125	-2.8729	-3.2062	-3.45	-2.8625	137.808	221.640	342.203	437.785	294.087	440.491	415.446	438.657	127.384	200.829	181.474	422.611	422.922	432.598	345.078	398.042	0.0038426	0.0011514	0.00045131	706.51	1.6746e-05	9.6021e-06	985.42	247.63	2.1903e-05	4.9574e-06	468.23	236.76	116.26	52.161	7.0547e-06	120.44	0.0045106	0.006298	0.0017928	666.4	6.2819e-05	7.0672e-05	915.14	231.87	6.1725e-05	7.159e-05	440.92	219.85	109.38	49.579	6.5348e-05	113.16	344.079	177.534	213.160	117.540	261.148	216.605	116.707	122.152	295.047	214.353	121.129	124.711	125.604	129.057	216.892	127.952	-8191	255	
1778.917	1	1	0	0	0.093295	0.11694	0.035864	0.051263	0.17994	0.29268	0.21612	0.095232	0.081655	0.25346	0.16032	0.14445	0.13716	0.17899	0.17592	0.38396	-3.1708	-3.0771	-2.8083	-3.6208	-2.8208	-2.9813	-3.5312	-2.7458	-3.5312	-3.1854	-2.8563	-3.6437	-2.8354	-3.1312	-3.4125	-2.9854	215.140	144.756	119.770	414.359	391.869	249.138	425.350	431.169	410.426	187.233	458.614	430.254	184.616	190.841	292.520	414.017	0.0038091	0.0011449	0.00017189	702.23	6.7786e-06	2.4313e-06	971.89	243.12	1.2885e-05	8.9191e-06	460.98	230.98	114.05	51.873	4.5678e-06	118.25	0.0046489	0.0063544	0.0018577	659	6.376e-05	7.292e-05	901.67	227.82	6.1392e-05	7.0834e-05	434.7	215.41	107.38	49.002	6.4826e-05	111.72	346.111	173.282	160.196	117.599	225.315	336.411	116.861	122.673	298.033	260.291	120.812	124.755	125.426	129.067	258.885	127.308	-8191	255	
1779.015	1	1	0	0	0.031575	0.12617	0.18286	0.16867	0.22897	0.18518	0.10871	0.17757	0.099166	0.23608	0.25169	0.030854	0.11416	0.11199	0.25327	0.19868	-2.8542	-3.3083	-2.7438	-3.5625	-2.9479	-3.0208	-3.6437	-2.8896	-3.2313	-3.3021	-2.9813	-3.6354	-3.0938	-3.0479	-3.3896	-2.9688	367.213	243.681	290.803	420.511	453.798	405.367	319.967	379.829	245.666	127.619	124.097	417.087	444.906	339.042	292.391	423.903	0.0035816	0.000557	0.00012858	696.72	1.1452e-05	8.9585e-06	969.92	242.33	1.2357e-05	1.466e-05	460.47	231.69	114.69	51.338	9.688e-06	118.24	0.0046013	0.0063805	0.0018288	656	6.192e-05	7.2266e-05	898.97	227.29	6.0369e-05	7.1793e-05	434.09	215.23	107.18	48.801	6.5203e-05	111.74	350.887	129.474	219.523	117.425	312.965	225.449	117.163	122.500	314.493	177.664	121.554	124.919	125.791	129.610	287.387	127.625	-8191	255	
1779.110	1	1	0	0	0.19803	0.18628	0.16746	0.36443	0.23335	0.2551	0.21249	0.12468	0.17302	0.20027	0.32232	0.29391	0.3136	0.21015	0.11401	0.30754	-2.9521	-3.3563	-2.8146	-3.3479	-3.0521	-2.9958	-3.6312	-2.775	-3.1854	-3.3812	-2.8021	-3.5958	-3.175	-2.8146	-3.5375	-3.0042	146.741	334.867	313.054	438.577	342.386	371.833	414.605	265.505	225.543	457.636	384.242	442.138	367.160	377.606	213.115	397.187	0.0041935	0.0010469	0.00020456	701.78	1.3066e-05	5.5035e-06	969.89	241.81	1.9078e-05	1.2136e-05	464.72	233.24	114.16	51.805	1.4274e-05	119.56	0.0046557	0.0064167	0.0018687	658.84	6.187e-05	7.2513e-05	903.48	227.28	6.1693e-05	7.2601e-05	436.59	216.37	107.51	49.172	6.6907e-05	112.51	351.306	163.013	185.767	117.598	220.002	199.885	117.194	122.573	246.135	257.037	121.247	124.771	125.376	129.310	241.237	127.633	-8191	255	
1779.206	1	1	0	0	0.21551	0.10667	0.28083	0.087943	0.13753	0.11098	0.10535	0.39594	0.23664	0.27949	0.20746	0.21868	0.14335	0.02758	0.18814	0.32902	-2.6479	-3.4229	-2.6312	-3.4104	-3.2458	-2.7833	-3.5583	-2.9062	-3.2188	-3.4333	-2.8771	-3.5167	-3.5187	-2.7375	-3.4833	-3.1083	329.292	372.620	442.864	266.493	436.524	455.942	448.224	412.390	273.547	452.902	434.346	111.356	174.208	313.660	417.411	111.919	0.0039234	0.00047936	0.00035541	707.35	1.6605e-06	6.1593e-06	973.99	241.75	8.5533e-06	1.1321e-05	460.68	230.28	113.04	51.303	1.2151e-05	118.16	0.0046371	0.0064612	0.0018306	663.41	6.18e-05	7.4037e-05	909.78	227.3	6.2639e-05	7.3773e-05	432.73	214.23	106.48	48.647	6.8116e-05	111.16	347.497	168.474	176.134	117.565	224.980	225.899	117.667	122.721	305.257	290.153	121.358	124.923	125.794	129.415	268.022	127.569	-8191	255	
1779.302	1	1	0	0	0.15684	0.13205	0.08643	0.057539	0.16748	0.21178	0.12204	0.50075	0.13019	0.16446	0.33204	0.12833	0.1447	0.11305	0.049867	0.21518	-2.7417	-3.5667	-2.7188	-3.325	-3.1417	-2.6333	-3.7604	-3.1125	-2.9	-3.5167	-2.8333	-3.4229	-3.375	-2.8812	-3.4167	-3.1813	444.516	376.357	275.513	258.354	421.805	141.554	113.508	392.431	237.041	151.101	413.210	108.111	119.689	455.673	141.068	404.305	0.0036482	0.0007083	0.0002054	695.85	8.7809e-06	6.5275e-06	965.41	239.09	1.4836e-05	4.4546e-06	457.04	228.99	113.21	50.701	1.1035e-06	117.01	0.0047077	0.0066016	0.0018474	655.35	6.3536e-05	7.4635e-05	897.8	224.48	6.222e-05	7.302e-05	429.41	212.57	106.08	48.185	6.6219e-05	110.34	343.506	188.628	190.721	117.480	237.994	290.106	117.238	122.438	264.541	277.532	121.133	124.958	125.709	129.068	211.363	127.471	-8191	255	
1779.423	1	1	0	0	0.25	0.26692	0.11652	0.21964	0.16148	0.07362	0.08407	0.25969	0.17721	0.28896	0.23527	0.084683	0.1776	0.22527	0.10976	0.38985	-2.4479	-3.6208	-2.7104	-3.1063	-3.1542	-2.7333	-3.3792	-3.3104	-2.6521	-3.5271	-2.9083	-3.2708	-3.4167	-2.6354	-3.1813	-3.2917	299.646	422.594	123.684	107.371	347.393	447.406	322.396	343.601	236.818	108.788	411.731	268.511	392.673	427.975	357.135	442.309	0.0036837	0.00040958	0.00024382	691.85	1.4617e-05	7.1869e-06	964.44	240.78	5.4435e-06	5.8538e-06	456.88	228.82	112.97	50.864	7.5455e-06	118.23	0.0046579	0.0064114	0.001788	652.92	6.2002e-05	7.1704e-05	896.66	225.49	6.04e-05	7.045e-05	430.16	212.8	106.32	48.405	6.4291e-05	111.46	346.562	152.656	196.486	117.347	209.015	248.724	117.041	121.926	317.422	258.806	120.896	124.322	125.207	128.634	252.375	127.367	-8191	255	
1779.519	1	1	0	0	0.35122	0.12345	0.13153	0.31477	0.1077	0.098245	0.16924	0.15155	0.16441	0.017196	0.12414	0.21245	0.15709	0.19186	0.27701	0.21261	-2.1417	-3.6437	-2.7604	-3.0042	-3.2729	-2.7958	-3.4313	-3.2708	-2.7771	-3.3667	-3.0875	-2.9708	-3.5812	-2.7604	-3.1604	-3.4062	338.279	234.380	402.237	124.947	405.292	367.782	147.896	456.184	285.441	179.931	449.437	456.629	147.650	359.089	443.526	433.313	0.0036719	0.00031078	0.00023198	698.94	9.1742e-06	1.0809e-05	969.48	242.09	8.7492e-06	7.6897e-06	460.98	230.81	114.31	51.15	1.62e-05	118.13	0.004593	0.0063208	0.0017881	659.45	6.263e-05	7.1532e-05	902.37	226.64	6.2674e-05	7.3302e-05	433.3	214.55	107.28	48.803	6.6791e-05	111.56	347.590	182.781	151.446	117.296	282.174	257.211	116.992	121.860	275.339	322.274	120.814	124.232	125.317	128.973	253.485	127.255	-8191	255	
1779.591	1	1	0	0	0.05221	0.22202	0.12196	0.33423	0.18428	0.13425	0.36135	0.10431	0.14302	0.23117	0.34288	0.27262	0.22254	0.061808	0.14429	0.18248	-2.2313	-3.4854	-3.0146	-2.8937	-3.4792	-2.8729	-3.1646	-3.45	-2.6167	-3.3354	-3.1333	-2.9771	-3.5979	-2.9437	-3.0938	-3.7	229.798	135.805	365.198	385.531	410.657	432.412	106.285	394.165	385.475	384.472	390.909	463.308	363.568	318.460	381.479	423.361	0.0037848	0.0011867	0.00031054	703.39	1.2451e-05	7.6428e-06	964.4	239.61	2.5162e-05	3.3698e-06	461.18	227.96	114.11	50.845	1.1601e-05	117.29	0.0046525	0.0065347	0.0018228	661.98	6.1807e-05	7.3702e-05	900.79	226.32	6.2276e-05	7.2348e-05	432.14	213.03	106.71	48.231	6.6456e-05	110.46	347.349	215.482	189.020	117.157	219.934	306.877	117.200	121.986	313.536	265.473	120.612	124.616	125.463	128.608	259.884	126.873	-8191	255	
1779.687	1	1	0	0	0.10211	0.10061	0.038735	0.19985	0.17	0.28918	0.36287	0.12435	0.31082	0.046881	0.22947	0.035763	0.2477	0.077417	0.26871	0.04254	-2.1042	-3.3083	-3.0583	-2.8208	-3.5417	-2.8146	-3.1646	-3.5083	-2.7667	-3.1479	-3.2917	-2.7729	-3.4375	-2.9042	-3.075	-3.6688	337.059	440.742	445.912	369.581	418.732	406.829	445.081	184.205	224.231	407.729	120.495	463.582	128.764	441.948	324.289	460.698	0.0040109	0.00078971	0.00035128	689.01	1.0288e-05	5.9462e-06	956.58	239.8	1.2905e-05	6.4994e-06	458.76	226.56	112.8	50.367	7.3357e-06	117.32	0.0046637	0.0064138	0.0017944	653.73	6.3633e-05	7.1793e-05	893.07	225.64	6.2214e-05	7.2175e-05	430.14	211.43	105.95	47.798	6.8175e-05	109.96	344.428	152.774	208.214	116.917	263.136	295.670	117.177	122.065	269.755	256.213	120.746	124.577	125.165	128.833	274.749	127.350	-8191	255	
1779.807	1	1	0	0	0.16546	0.029042	0.20165	0.16811	0.037575	0.19577	0.0443	0.18146	0.33499	0.21611	0.057132	0.22711	0.27416	0.16829	0.093425	0.13337	-2.1	-3.2375	-3.3563	-2.6937	-3.525	-2.8604	-3.0417	-3.6937	-2.7875	-3.2292	-3.4562	-2.9083	-3.4625	-3.1312	-2.8312	-3.6083	210.751	377.928	374.703	113.763	367.787	447.293	179.450	332.862	336.507	145.672	141.049	405.084	425.025	397.889	290.884	418.211	0.0037168	0.00067698	0.00020586	696.93	6.6517e-06	1.4447e-05	961.23	240.97	1.035e-05	7.1654e-06	460.63	228.02	113.42	50.68	8.321e-06	117.7	0.0046936	0.0064568	0.0018117	655.38	6.3524e-05	7.2208e-05	898.68	226.57	6.2418e-05	7.3593e-05	432.43	212.63	106.46	48.081	6.6835e-05	110.28	343.177	224.643	213.460	117.103	224.790	266.111	117.178	122.201	245.064	260.881	120.859	124.611	125.638	128.957	244.117	127.629	-8191	255	
1779.903	1	1	0	0	0.11938	0.062664	0.084441	0.22946	0.16896	0.13019	0.19867	0.24542	0.26681	0.12575	0.08193	0.17563	0.1136	0.45496	0.086695	0.36753	-2.1646	-3.1854	-3.1917	-2.6229	-3.4729	-2.9917	-2.8979	-3.5479	-2.8083	-3.2146	-3.575	-2.8583	-3.5208	-3.1875	-2.6625	-3.5312	403.683	307.553	258.786	330.670	295.619	223.436	347.639	343.990	232.843	462.764	304.225	419.796	200.293	444.212	363.212	365.385	0.0039703	0.00013848	0.00041464	697.61	1.3755e-05	4.426e-06	970.4	243.82	8.3508e-06	2.5969e-06	466.42	229.77	115.07	51.047	1.2103e-05	117.66	0.0046837	0.0064532	0.0018036	657.18	6.2651e-05	7.0389e-05	903.08	229.24	6.1071e-05	7.2712e-05	438.12	214.49	107.79	48.247	6.9124e-05	110.92	345.757	182.900	222.277	116.818	311.995	224.000	116.983	122.042	297.804	296.441	120.768	124.492	125.491	128.508	255.049	127.379	-8191	255	
1779.998	1	1	0	0	0.18407	0.26842	0.26107	0.19799	0.17259	0.1461	0.18837	0.054907	0.030386	0.25038	0.28215	0.23959	0.21661	0.48087	0.067279	0.36118	-2.4437	-3.0396	-3.1896	-2.7292	-3.375	-3.1875	-2.9104	-3.4729	-3.0354	-3.0896	-3.3375	-2.7542	-3.3875	-3.1208	-2.6292	-3.5083	444.644	448.183	264.414	395.909	296.962	421.158	356.533	172.994	403.478	399.223	426.726	458.071	454.993	419.813	196.839	435.353	0.0038009	0.00098373	0.00020035	698.41	1.009e-05	3.8403e-06	971.42	243.78	2.3501e-05	7.7936e-06	459.68	227.99	113.76	50.038	1.3926e-05	115.82	0.0045935	0.0064188	0.0018153	659.09	6.3329e-05	7.2725e-05	902.52	228.48	6.1109e-05	7.2542e-05	434	212.14	106.63	47.585	6.8044e-05	108.91	346.675	210.766	197.719	117.099	252.507	194.802	117.201	122.402	270.210	208.490	120.995	124.187	125.692	128.716	261.269	127.437	-8191	255	
1780.096	1	1	0	0	0.29437	0.26022	0.16282	0.23346	0.13123	0.1375	0.0037963	0.36483	0.14682	0.023799	0.16546	0.41672	0.17722	0.027402	0.13852	0.16039	-2.4042	-2.8104	-3.3375	-2.7125	-3.1188	-3.1833	-2.8167	-3.3375	-2.975	-2.875	-3.4062	-2.9688	-3.3229	-3.2687	-2.5396	-3.5146	448.843	196.094	197.434	451.787	129.574	262.875	144.147	329.465	363.931	381.164	356.008	464.229	230.845	435.037	230.382	438.783	0.0039828	0.00093103	0.00033204	688.3	1.2058e-05	1.0149e-05	953.53	239.8	8.9468e-06	1.0224e-05	455.86	225.63	112.1	50.147	1.2252e-05	115.08	0.0045649	0.0064676	0.0018032	650.49	6.2345e-05	7.2414e-05	890.3	225.03	6.0321e-05	7.0958e-05	428.78	209.64	105.5	47.352	6.5562e-05	108.43	348.352	171.041	158.927	116.848	247.736	247.154	116.997	122.305	310.217	185.751	120.992	124.381	125.476	128.664	247.319	127.469	-8191	255	
1780.190	1	1	0	0	0.15194	0.13692	0.19524	0.21677	0.15372	0.13441	0.15451	0.41103	0.17429	0.26731	0.35995	0.13959	0.2306	0.10771	0.17437	0.26606	-2.5417	-2.7375	-3.4813	-2.8458	-3.0271	-3.3	-2.7146	-3.6437	-3.0354	-2.8312	-3.4625	-3.0792	-2.8833	-3.6646	-2.6396	-3.4875	395.062	397.285	170.616	460.486	227.365	153.817	134.390	424.462	455.063	114.643	395.333	446.425	108.380	120.066	322.351	382.746	0.0036268	0.00091597	0.00015534	690.17	8.2232e-06	7.7154e-06	951.89	238.17	1.7956e-05	4.5867e-06	454.45	225.03	111.6	49.557	1.1206e-05	115.8	0.0045122	0.0063863	0.0017601	648.35	6.2774e-05	7.0413e-05	886.89	224.31	5.9954e-05	7.2649e-05	427.03	209.05	104.51	47.061	6.6186e-05	108.4	343.657	198.459	223.948	117.244	288.843	205.315	117.075	122.112	291.433	247.818	121.218	124.518	125.446	129.125	293.864	127.530	-8191	255	
#DATA ENDS
