BOXY.EXE: ISS Imagent and Oximeter Data Acquisition Program Version 0.80
Ascii Record File

#ACQ INFORMATION
2  Detector Channels 
16  External MUX Channels 
1  Auxiliary Channels 
5000  Waveform (CCF) Frequency (Hz)
1  Waveforms Skipped 
30  Waveforms Averaged 
1  Cycles Averaged 
16  Acquisitions per Waveform 
10.0806  Updata Rate (Hz) 

#FILE INFORMATION
TRUE -- External MUX Channel results are PARSED.
FALSE -- AC DC and Phase are NOT grouped.
TRUE -- Companion Program Settings File CREATED.
FALSE -- AC data not excluded
FALSE -- DC data not excluded
FALSE -- Phase data not excluded
FALSE -- Auxillary Chn. data not excluded
Tab delimiters

#CALIBRATION STATE
TRUE -- Waveform Calibration Values APPLIED.


#AUX CALIBRATION VALUES
Val Type	aux-1	

Term	1.0000e+00	
Factor	0.0000e+00	


#WF CALIBRATION VALUES
A = Detector Channel
Val Type	A-AC1	A-AC2	A-AC3	A-AC4	A-AC5	A-AC6	A-AC7	A-AC8	A-AC9	A-AC10	A-AC11	A-AC12	A-AC13	A-AC14	A-AC15	A-AC16	A-DC1	A-DC2	A-DC3	A-DC4	A-DC5	A-DC6	A-DC7	A-DC8	A-DC9	A-DC10	A-DC11	A-DC12	A-DC13	A-DC14	A-DC15	A-DC16	A-Ph1	A-Ph2	A-Ph3	A-Ph4	A-Ph5	A-Ph6	A-Ph7	A-Ph8	A-Ph9	A-Ph10	A-Ph11	A-Ph12	A-Ph13	A-Ph14	A-Ph15	A-Ph16	

Term	0.00000e+00	0.00000e+00	0.00000e+00	0.00000e+00	0.00000e+00	0.00000e+00	0.00000e+00	0.00000e+00	0.00000e+00	0.00000e+00	0.00000e+00	0.00000e+00	0.00000e+00	0.00000e+00	0.00000e+00	0.00000e+00	0.00000e+00	0.00000e+00	0.00000e+00	0.00000e+00	0.00000e+00	0.00000e+00	0.00000e+00	0.00000e+00	0.00000e+00	0.00000e+00	0.00000e+00	0.00000e+00	0.00000e+00	0.00000e+00	0.00000e+00	0.00000e+00	0.00000e+00	0.00000e+00	0.00000e+00	0.00000e+00	0.00000e+00	0.00000e+00	0.00000e+00	0.00000e+00	0.00000e+00	0.00000e+00	0.00000e+00	0.00000e+00	0.00000e+00	0.00000e+00	0.00000e+00	0.00000e+00	
Factor	1.00000e+00	1.00000e+00	1.00000e+00	1.00000e+00	1.00000e+00	1.00000e+00	1.00000e+00	1.00000e+00	1.00000e+00	1.00000e+00	1.00000e+00	1.00000e+00	1.00000e+00	1.00000e+00	1.00000e+00	1.00000e+00	1.00000e+00	1.00000e+00	1.00000e+00	1.00000e+00	1.00000e+00	1.00000e+00	1.00000e+00	1.00000e+00	1.00000e+00	1.00000e+00	1.00000e+00	1.00000e+00	1.00000e+00	1.00000e+00	1.00000e+00	1.00000e+00	X	X	X	X	X	X	X	X	X	X	X	X	X	X	X	X	

B = Detector Channel
Val Type	B-AC1	B-AC2	B-AC3	B-AC4	B-AC5	B-AC6	B-AC7	B-AC8	B-AC9	B-AC10	B-AC11	B-AC12	B-AC13	B-AC14	B-AC15	B-AC16	B-DC1	B-DC2	B-DC3	B-DC4	B-DC5	B-DC6	B-DC7	B-DC8	B-DC9	B-DC10	B-DC11	B-DC12	B-DC13	B-DC14	B-DC15	B-DC16	B-Ph1	B-Ph2	B-Ph3	B-Ph4	B-Ph5	B-Ph6	B-Ph7	B-Ph8	B-Ph9	B-Ph10	B-Ph11	B-Ph12	B-Ph13	B-Ph14	B-Ph15	B-Ph16	

Term	0.00000e+00	0.00000e+00	0.00000e+00	0.00000e+00	0.00000e+00	0.00000e+00	0.00000e+00	0.00000e+00	0.00000e+00	0.00000e+00	0.00000e+00	0.00000e+00	0.00000e+00	0.00000e+00	0.00000e+00	0.00000e+00	0.00000e+00	0.00000e+00	0.00000e+00	0.00000e+00	0.00000e+00	0.00000e+00	0.00000e+00	0.00000e+00	0.00000e+00	0.00000e+00	0.00000e+00	0.00000e+00	0.00000e+00	0.00000e+00	0.00000e+00	0.00000e+00	-8.19620e+01	-1.31387e+02	-1.23947e+02	-1.82180e+02	-6.73124e+01	-7.06461e+01	-1.57453e+02	-1.62015e+02	-5.26248e+01	-5.03545e+01	-1.74207e+02	-1.70246e+02	-1.81558e+02	-1.76604e+02	-6.38946e+01	-1.49731e+02	
Factor	1.74277e-05	1.42447e-04	4.46277e-05	1.46431e-01	1.15311e-06	1.52853e-06	1.67333e-01	5.49476e-02	1.18619e-06	1.77604e-06	9.88515e-02	2.93754e-02	2.77491e-02	9.55186e-03	1.29905e-06	1.36949e-02	3.85813e-06	4.49126e-06	1.24776e-06	7.72237e-02	4.81768e-08	4.92794e-08	8.25847e-02	2.90232e-02	4.80511e-08	4.91379e-08	5.01668e-02	1.50227e-02	1.47801e-02	5.06767e-03	4.82509e-08	7.00746e-03	X	X	X	X	X	X	X	X	X	X	X	X	X	X	X	X	



#DISTANCE SETTINGS
A = Detector Channel
A-1	A-2	A-3	A-4	A-5	A-6	A-7	A-8	A-9	A-10	A-11	A-12	A-13	A-14	A-15	A-16	

2.5000e+00	3.0000e+00	2.5000e+00	3.0000e+00	2.0000e+00	3.0000e+00	1.5000e+00	3.0000e+00	3.0000e+00	3.0000e+00	3.0000e+00	3.0000e+00	3.0000e+00	3.0000e+00	1.5000e+00	3.0000e+00	

B = Detector Channel
B-1	B-2	B-3	B-4	B-5	B-6	B-7	B-8	B-9	B-10	B-11	B-12	B-13	B-14	B-15	B-16	

1.0000e+01	1.0000e+01	1.0000e+01	1.4400e+00	1.0000e+01	1.0000e+01	1.5100e+00	1.9400e+00	1.0000e+01	1.0000e+01	1.9900e+00	2.4900e+00	2.4100e+00	2.9000e+00	1.0000e+01	2.9800e+00	




#DATA BEGINS
time	group	step	mark	flag	A-AC1	A-AC2	A-AC3	A-AC4	A-AC5	A-AC6	A-AC7	A-AC8	A-AC9	A-AC10	A-AC11	A-AC12	A-AC13	A-AC14	A-AC15	A-AC16	A-DC1	A-DC2	A-DC3	A-DC4	A-DC5	A-DC6	A-DC7	A-DC8	A-DC9	A-DC10	A-DC11	A-DC12	A-DC13	A-DC14	A-DC15	A-DC16	A-Ph1	A-Ph2	A-Ph3	A-Ph4	A-Ph5	A-Ph6	A-Ph7	A-Ph8	A-Ph9	A-Ph10	A-Ph11	A-Ph12	A-Ph13	A-Ph14	A-Ph15	A-Ph16	B-AC1	B-AC2	B-AC3	B-AC4	B-AC5	B-AC6	B-AC7	B-AC8	B-AC9	B-AC10	B-AC11	B-AC12	B-AC13	B-AC14	B-AC15	B-AC16	B-DC1	B-DC2	B-DC3	B-DC4	B-DC5	B-DC6	B-DC7	B-DC8	B-DC9	B-DC10	B-DC11	B-DC12	B-DC13	B-DC14	B-DC15	B-DC16	B-Ph1	B-Ph2	B-Ph3	B-Ph4	B-Ph5	B-Ph6	B-Ph7	B-Ph8	B-Ph9	B-Ph10	B-Ph11	B-Ph12	B-Ph13	B-Ph14	B-Ph15	B-Ph16	aux-1	digaux	

1875.727	1	1	0	768	0.17907	0.1079	0.074037	0.24629	0.32057	0.10166	0.10086	0.36816	0.11845	0.21382	0.21383	0.057279	0.078329	0.25316	0.2134	0.20249	-0.95417	-2.1	-1.225	-1.7104	-2.0917	-1.3188	-2.1521	-2.0312	-1.175	-2.2958	-1.6854	-1.6458	-2.3979	-1.3729	-1.7062	-1.975	296.792	324.937	259.217	129.721	311.720	198.138	427.186	437.456	368.231	292.154	395.941	464.838	137.226	415.706	163.765	338.885	0.00055665	0.0011263	0.0010751	689.18	2.8991e-05	2.9699e-05	856.54	233.79	2.1694e-05	2.0072e-05	342.13	118.61	75.966	30.221	2.4525e-05	51.095	0.016645	0.019215	0.005361	991.28	0.00020757	0.00021247	1166.1	349.64	0.0002081	0.0002129	541.06	178.42	136.1	50.795	0.00020821	79.281	201.289	430.813	184.779	124.287	137.874	237.190	124.012	129.002	320.364	271.967	128.386	132.783	133.500	138.641	205.531	136.684	-8191	255	
1875.823	1	1	0	0	0.037653	0.037056	0.048563	0.27695	0.09052	0.3898	0.11026	0.15486	0.052653	0.22494	0.20338	0.26153	0.11901	0.47939	0.18458	0.27264	-1.0562	-2.2354	-1.4729	-1.5562	-2.1396	-1.3729	-1.9458	-2.0729	-1.2062	-2.1125	-1.8792	-1.5521	-2.425	-1.6354	-1.6854	-2.1104	389.596	284.610	265.667	465.297	457.455	453.845	268.092	118.722	468.904	161.186	391.563	160.869	402.502	446.297	122.604	116.294	0.00069914	0.00193	0.00020318	691.57	1.262e-05	1.5031e-05	855.9	236.04	1.399e-05	2.4973e-05	345.51	120.65	76.696	30.272	5.6788e-06	51.318	0.016685	0.019275	0.0053726	991.33	0.00020607	0.00020939	1165	347.67	0.00020289	0.00020759	539.65	178.37	135.45	50.684	0.00020545	79.213	231.583	233.254	355.601	124.384	468.421	303.762	124.144	129.220	237.919	411.661	127.604	133.246	133.822	138.531	234.837	136.505	-8191	255	
1875.919	1	1	0	0	0.2368	0.08592	0.20963	0.067964	0.23231	0.14211	0.15814	0.14038	0.0995	0.11006	0.27512	0.011569	0.31968	0.26733	0.11109	0.30515	-0.93958	-2.0687	-1.8667	-1.3062	-2.2604	-1.4354	-1.7417	-2.1396	-1.2042	-1.9833	-1.7708	-1.2563	-2.2604	-1.4771	-1.7375	-2.2271	271.884	358.417	192.525	118.039	174.241	140.603	396.543	135.612	310.886	252.042	446.908	154.489	162.307	294.715	146.706	427.073	0.00036207	0.0010926	0.00050263	694.32	1.6583e-05	2.4012e-05	850.79	234.37	1.615e-05	4.6466e-05	339.2	117.92	75.651	30.067	1.1035e-05	50.533	0.016622	0.01919	0.0054048	992.23	0.00020762	0.00021243	1168.3	349.37	0.00020616	0.00021181	540.15	178.25	135.7	50.633	0.00020804	78.675	206.167	169.216	274.517	124.391	241.089	297.875	123.637	129.735	223.795	340.939	128.147	132.975	133.499	138.736	313.166	136.564	-8191	255	
1876.015	1	1	0	0	0.027679	0.22849	0.17501	0.19186	0.22951	0.1693	0.039504	0.17714	0.13305	0.037693	0.22857	0.27096	0.10619	0.23949	0.086694	0.14647	-0.90625	-2.0542	-1.7542	-1.2792	-2.2833	-1.5562	-1.5812	-2.1042	-1.3417	-2.0875	-1.975	-1.2625	-2.1667	-1.6104	-1.6125	-2.2542	325.855	239.803	334.779	454.866	276.424	421.504	191.331	386.128	384.967	242.559	459.509	431.901	296.208	460.296	411.250	247.085	0.0005601	0.0025964	0.00098118	693.14	1.5875e-05	1.7917e-05	850.65	232.88	3.4495e-06	1.0931e-05	340.24	117.68	75.355	30.193	2.1331e-05	50.289	0.016733	0.019248	0.0053833	987.08	0.00020358	0.0002092	1158.4	345.36	0.00020267	0.00020682	534.9	175.73	133.74	49.966	0.00020277	77.768	248.864	137.995	241.134	124.669	313.671	401.495	123.960	129.569	233.666	411.336	127.678	133.252	134.013	138.465	172.248	136.650	-8191	255	
1876.111	1	1	0	0	0.21212	0.11709	0.17385	0.1763	0.1426	0.28827	0.14651	0.085642	0.046345	0.14158	0.29243	0.3444	0.12891	0.17968	0.1842	0.24217	-1.0521	-1.9583	-1.9625	-1.4167	-2.1542	-1.7313	-1.6583	-2.4104	-1.4396	-1.8208	-2.1875	-1.3125	-1.9958	-1.7229	-1.4792	-2.4208	295.594	357.181	136.899	379.737	432.956	404.452	457.686	412.859	241.074	165.707	352.976	354.561	295.082	237.290	311.520	426.455	0.00044798	0.00099833	0.00092638	693.91	4.7541e-06	2.4494e-05	861.75	234.32	3.4972e-05	1.8371e-05	341.65	119.48	75.765	29.95	7.3163e-06	50.978	0.016219	0.018815	0.0052566	981.49	0.00019892	0.00020491	1156.4	343.71	0.00019786	0.00020261	533.13	175.52	132.9	49.786	0.00019937	77.676	236.247	167.965	206.706	124.220	401.402	189.115	124.185	129.139	245.205	131.902	127.687	133.151	133.528	138.432	447.347	136.287	-8191	255	
1876.208	1	1	0	0	0.18175	0.31087	0.24126	0.016254	0.15444	0.076216	0.14812	0.13066	0.24845	0.11987	0.10268	0.12701	0.10714	0.17026	0.27717	0.21047	-0.9	-1.8417	-2.1437	-1.4979	-2.1625	-1.8937	-1.4188	-2.1896	-1.4729	-1.8062	-2.2167	-1.2854	-1.9625	-1.8958	-1.1521	-2.3125	376.522	317.926	364.665	297.533	437.616	376.788	193.944	446.466	182.363	455.944	208.281	157.398	174.061	410.664	414.462	413.255	0.00098542	0.0020247	0.0012809	695.11	1.9905e-05	9.4456e-06	859.16	238.97	1.9152e-05	4.9169e-05	351.21	119.87	76.889	30.889	1.4613e-05	51.702	0.01598	0.018463	0.0051484	979.74	0.00019654	0.00020317	1160.5	345.02	0.00019499	0.00019992	533.04	175.56	132.25	49.738	0.00019345	77.761	216.539	301.751	226.376	124.182	222.989	129.975	124.202	129.816	277.766	197.670	128.378	133.578	134.322	138.796	246.647	136.491	-8191	255	
1876.328	1	1	0	0	0.22049	0.19581	0.094704	0.11307	0.39231	0.26659	0.25522	0.24854	0.23798	0.20909	0.15217	0.31675	0.17802	0.20702	0.11423	0.31436	-1.075	-1.6208	-1.9854	-1.475	-1.8396	-1.9937	-1.4958	-2.275	-1.65	-1.4417	-2.3479	-1.5438	-2.025	-2.0958	-1.2771	-2.3167	238.441	430.129	266.488	367.034	262.503	148.148	442.359	404.953	131.195	174.111	195.655	434.938	459.515	424.023	425.482	441.123	0.00062389	0.0010862	0.00019254	701.26	2.6064e-05	1.5727e-05	866.35	238.02	1.3679e-05	2.397e-05	347.38	120.83	76.199	30.283	1.4812e-05	51.184	0.015547	0.018159	0.0050405	979.25	0.00019399	0.00020029	1163.2	344.41	0.00019591	0.00020096	535.47	176.65	133.77	50.074	0.00019951	77.863	235.086	420.634	231.487	124.763	373.857	179.154	123.734	129.685	223.194	256.429	128.525	132.727	134.379	138.534	359.597	137.103	-8191	255	
1876.423	1	1	0	0	0.142	0.15916	0.28368	0.20937	0.20772	0.18623	0.34251	0.14821	0.029987	0.026654	0.3066	0.19245	0.23496	0.14479	0.17247	0.22047	-1.4229	-1.3667	-2.0917	-1.525	-1.6688	-2.1104	-1.3625	-2.1833	-1.6583	-1.2271	-2.2854	-1.4958	-1.6521	-2.1125	-1.1396	-2.05	287.776	200.947	372.818	414.752	159.314	361.397	395.704	395.448	373.885	283.630	288.633	172.562	261.033	150.717	274.168	401.759	0.00041539	0.0015564	0.0013125	704.77	1.4765e-05	2.6608e-05	864.1	236.98	1.131e-05	1.7557e-05	340.91	118.26	76.536	30.053	4.3404e-06	50.56	0.016101	0.018619	0.0051582	985.93	0.00019844	0.00020383	1161.9	345.09	0.00019888	0.00020364	532.78	175.63	133.78	49.88	0.000203	77.902	222.828	232.928	219.020	124.742	261.608	207.501	123.748	129.694	254.634	470.368	128.041	132.868	134.503	138.156	389.783	136.687	-8191	255	
1876.519	1	1	0	0	0.27931	0.1312	0.19683	0.2638	0.074009	0.22178	0.27171	0.12866	0.4359	0.03938	0.097514	0.19843	0.21808	0.25602	0.15394	0.10283	-1.3458	-1.2437	-2.2104	-1.5187	-1.6542	-2.1396	-1.4667	-2.1083	-1.9562	-1.3	-2.2854	-1.6375	-1.6396	-2.35	-1.1625	-2.2625	439.944	437.262	441.201	126.172	227.200	360.827	350.158	433.257	114.687	344.798	163.730	459.834	435.498	119.459	450.574	405.563	0.00084073	0.0014966	0.00031049	702.93	1.3812e-05	1.2164e-05	866.55	235.61	1.7667e-06	3.2665e-05	343.2	119.71	76.175	30.033	3.841e-05	51.242	0.01644	0.019154	0.0053053	996.01	0.00020511	0.00021041	1170.7	347.13	0.00020333	0.00020669	536.12	176.89	134.24	50.106	0.00020152	78.445	232.793	222.220	174.426	124.568	135.401	414.341	124.080	129.811	248.534	143.914	128.270	133.194	134.295	138.484	272.478	136.675	-8191	255	
1876.617	1	1	0	0	0.15918	0.24003	0.12986	0.19813	0.33545	0.23311	0.10656	0.2247	0.20827	0.077524	0.20864	0.24462	0.35589	0.19755	0.18322	0.22651	-1.6812	-1.4021	-2.3333	-1.6875	-1.6104	-2.2917	-1.4479	-2.0354	-1.9917	-1.2104	-2.1521	-1.6417	-1.4917	-2.3063	-1.3958	-1.7729	126.755	180.518	358.114	400.455	257.458	164.068	153.772	466.362	142.619	383.168	177.773	454.284	404.376	386.013	199.099	445.109	0.00039749	0.0019326	0.00052787	704.88	2.5172e-05	1.1148e-05	866.87	239.58	1.3693e-05	3.0911e-05	350.18	119.45	77.25	30.403	1.567e-05	51.95	0.016399	0.019152	0.0053301	999.59	0.00020661	0.00021187	1178.8	352.32	0.00020741	0.00021154	545.77	179.46	136.35	50.653	0.00020503	79.295	237.682	227.182	367.180	124.453	165.011	253.507	123.801	129.432	146.510	177.993	128.415	132.258	133.741	138.256	239.520	136.179	-8191	255	
1876.711	1	1	0	0	0.090714	0.066202	0.11475	0.14527	0.23881	0.041988	0.24678	0.17605	0.14143	0.15549	0.17371	0.067325	0.14647	0.13912	0.10026	0.26217	-1.6042	-1.2375	-2.0687	-1.7875	-1.3604	-2.4	-1.5625	-1.8875	-2.0667	-1.4062	-2.2083	-1.8563	-1.5521	-2.1646	-1.5187	-1.7521	381.603	248.933	230.836	385.029	114.466	231.825	374.355	133.775	141.848	319.055	349.693	227.957	454.428	342.232	362.887	456.510	0.00034383	0.00028638	0.00096837	707.77	2.2832e-05	6.7415e-06	873.89	240.39	1.1646e-05	2.7436e-05	349.09	121.36	78.562	30.629	8.221e-06	51.577	0.016616	0.0191	0.0052889	999.73	0.00020405	0.00020871	1179.2	350.2	0.00020338	0.00020727	542.4	179.22	135.92	50.512	0.00020332	79.161	201.563	319.287	302.807	124.170	287.634	152.296	124.049	129.692	289.491	372.747	128.499	132.650	133.755	138.981	218.999	136.380	-8191	255	
1876.807	1	1	0	0	0.14738	0.16057	0.20598	0.079636	0.2081	0.18102	0.2822	0.096452	0.21204	0.23302	0.31711	0.2753	0.16914	0.061823	0.056653	0.12897	-1.7229	-1.1958	-2.1063	-2.0563	-1.3625	-2.2417	-1.4438	-1.9021	-2.1792	-1.3292	-2.1208	-1.9813	-1.4021	-2.3167	-1.5938	-1.7188	292.548	399.851	302.993	402.249	369.638	411.454	388.658	355.640	432.927	329.644	452.350	406.901	389.878	148.954	175.255	442.282	0.0004248	0.00042233	0.0010141	703.97	1.8824e-05	2.0429e-05	873.88	237.99	2.4177e-06	4.7085e-05	346.71	119.57	76.598	30.259	3.2448e-05	50.807	0.016443	0.018932	0.0052422	996.29	0.0002024	0.00020641	1173.2	348.78	0.00019992	0.00020414	537.46	176.82	133.86	49.743	0.00019902	77.435	232.334	138.201	296.711	124.105	242.526	391.435	123.433	129.415	368.711	305.021	127.810	132.837	133.900	138.495	249.590	136.579	-8191	255	
1876.928	1	1	0	0	0.14213	0.10442	0.069158	0.24151	0.10911	0.11997	0.12129	0.19883	0.24841	0.12019	0.19764	0.051671	0.2196	0.10897	0.153	0.24569	-1.6771	-1.5	-1.7313	-2.175	-1.1708	-2.1667	-1.6938	-1.3521	-2.1333	-1.4125	-1.7833	-2.1479	-1.4	-2.1854	-1.7979	-1.3687	450.666	244.587	193.100	370.308	443.328	191.698	144.075	128.745	352.664	274.017	137.997	349.212	114.076	222.056	380.725	368.539	0.00053889	0.00094009	0.00097094	698.16	7.3254e-06	1.1868e-05	870.42	237.13	8.9513e-06	4.3218e-05	343.55	119.67	75.512	30.057	3.2366e-05	50.443	0.015944	0.018395	0.0050949	983.02	0.00019504	0.00019878	1157.5	343.68	0.00019571	0.00020029	531.7	174.9	132.33	49.146	0.0001977	77.161	209.541	251.849	182.442	124.137	398.907	416.397	123.513	129.386	142.546	316.456	128.436	132.588	133.764	138.179	255.854	136.323	-8191	255	
1877.024	1	1	0	0	0.24303	0.21337	0.12203	0.16251	0.12529	0.061057	0.23161	0.21245	0.17857	0.11086	0.21704	0.1467	0.22635	0.039078	0.28875	0.14001	-1.9125	-1.2271	-1.9333	-2.2125	-1.3	-2.2042	-1.7979	-1.5688	-2.2667	-1.4562	-1.7771	-2.2896	-1.2479	-2.0292	-1.775	-1.5854	252.920	341.802	256.984	434.702	460.031	355.686	420.169	355.618	120.571	428.249	432.302	430.988	228.928	372.577	383.075	410.792	0.00037843	0.0023646	0.00033314	702.9	2.4178e-05	2.3218e-05	862.16	236.17	3.3454e-05	7.2639e-06	342.47	119.23	76.495	29.753	8.3918e-06	50.87	0.015957	0.018453	0.0051296	986.33	0.0001975	0.00020119	1161.8	344.21	0.00019632	0.00020202	532.39	175.65	133.23	49.665	0.00020067	77.641	269.830	118.320	373.793	124.126	264.642	188.291	123.706	129.376	302.496	275.212	127.532	132.594	133.301	138.550	420.789	135.893	-8191	255	
1877.120	1	1	0	0	0.27759	0.11518	0.14321	0.19778	0.13519	0.086582	0.30753	0.1566	0.15626	0.18302	0.08132	0.39116	0.023064	0.18027	0.43955	0.1299	-1.9083	-1.4604	-1.5417	-2.1792	-1.3917	-1.9833	-2.0938	-1.3062	-2.2229	-1.4917	-1.5729	-2.2208	-1.1812	-1.7354	-2.0187	-1.4208	456.616	233.797	147.470	407.931	298.937	164.936	378.850	286.531	349.042	329.943	148.373	416.050	333.519	396.072	224.682	391.982	0.00039287	0.00076303	0.0007226	702.28	5.3942e-06	1.4852e-05	875.35	238.86	2.3519e-05	3.3735e-05	345.75	119.48	77.007	30.111	2.9932e-05	51.522	0.016017	0.018641	0.0051708	991.36	0.00019831	0.00020191	1169.9	346.05	0.00019478	0.00020005	533.39	175.92	132.66	49.381	0.00019567	77.696	240.142	149.199	251.077	123.960	385.698	190.897	123.335	129.240	135.366	155.405	127.937	132.624	133.037	137.807	277.721	136.472	-8191	255	
1877.216	1	1	0	0	0.22679	0.52317	0.11712	0.13591	0.068727	0.16149	0.12622	0.19129	0.093281	0.1837	0.11748	0.26613	0.17622	0.33701	0.16634	0.16194	-1.7417	-1.7333	-1.4958	-2.35	-1.1938	-1.925	-1.9792	-1.3062	-2.1104	-1.6646	-1.4125	-2.3083	-1.4771	-1.8375	-2.0604	-1.2062	222.720	300.207	142.951	325.853	160.739	223.584	447.075	376.448	135.817	146.570	403.616	461.582	406.341	452.428	412.129	276.160	0.00042593	0.0025479	0.00046518	707.98	1.5451e-05	3.7591e-05	873.81	237.78	1.889e-05	5.0657e-05	347.25	120.19	76.465	30.2	3.2658e-05	50.689	0.015606	0.018273	0.0050792	989.95	0.00019503	0.00020053	1168.4	346.39	0.0001946	0.00020037	536.73	176.71	133.59	49.672	0.0001988	77.507	228.061	460.388	456.181	123.877	467.726	232.740	123.539	129.061	249.400	175.275	127.947	132.423	132.932	138.388	350.765	136.077	-8191	255	
1877.288	1	1	0	0	0.091441	0.19979	0.34342	0.094326	0.17374	0.061541	0.26878	0.2134	0.1335	0.22043	0.056143	0.10215	0.25122	0.0041686	0.099773	0.019179	-1.8083	-1.5417	-1.3312	-2.1521	-1.5146	-1.6292	-2.225	-1.3542	-2.0312	-1.975	-1.5625	-2.0604	-1.4667	-1.5896	-2.0833	-1.3937	117.233	330.847	226.923	380.630	458.390	117.387	414.499	414.022	300.809	235.940	193.394	420.119	383.391	450.693	366.899	437.635	0.00053127	0.0022879	0.00021042	699.57	3.761e-06	1.9149e-05	865.75	236.25	1.4737e-05	1.4175e-05	343.09	119.58	75.578	29.65	1.7111e-05	50.652	0.015783	0.01838	0.005114	982.35	0.0001956	0.00019978	1162.5	343.5	0.00019415	0.00020072	531.52	174.87	132.78	49.377	0.000199	77.096	226.197	205.188	436.341	124.167	112.118	273.947	123.699	129.480	252.245	311.716	127.990	132.249	133.349	138.136	267.276	135.812	-8191	255	
1877.409	1	1	0	0	0.26791	0.14687	0.11728	0.28278	0.05685	0.39873	0.1553	0.22812	0.13455	0.064867	0.2598	0.2752	0.28028	0.33914	0.18321	0.081003	-1.7333	-1.9521	-1.2292	-2.2812	-1.4542	-1.5896	-2.4375	-1.4583	-1.8604	-2.0708	-1.4625	-2.2854	-1.6104	-1.6896	-2.3063	-1.2854	297.262	348.746	271.400	123.695	265.211	130.696	428.493	342.252	419.543	122.016	113.594	346.108	111.869	307.102	428.214	397.887	0.0007837	0.002339	0.00035207	705.6	1.4335e-05	1.9906e-05	868.89	236.45	1.218e-05	4.1376e-05	341.88	118.69	76.155	29.764	4.9594e-05	50.487	0.015874	0.018651	0.0051917	986.13	0.00019905	0.00020299	1164.7	344.6	0.0001974	0.00020342	534.29	175.76	133.8	49.752	0.00020074	77.451	223.657	460.155	373.872	123.323	182.227	214.148	123.676	129.227	316.897	298.567	127.798	132.228	133.172	138.303	336.745	136.428	-8191	255	
1877.505	1	1	0	0	0.077547	0.31076	0.26464	0.42113	0.38839	0.036985	0.35961	0.18182	0.14864	0.19739	0.12026	0.1622	0.051985	0.16824	0.25118	0.34486	-1.4375	-2.0083	-1.3354	-2.1917	-1.6542	-1.3854	-2.3771	-1.5208	-1.6	-1.9979	-1.3479	-2.2292	-1.8333	-1.4604	-2.2104	-1.5688	132.118	333.666	121.129	422.413	334.640	313.645	432.162	405.513	294.447	374.188	155.863	114.296	389.402	346.215	337.199	455.467	0.00068092	0.0045435	0.00051557	707.13	8.7995e-06	2.808e-05	868.05	236.52	1.7147e-05	9.7031e-06	347.75	120.47	76.74	30.161	1.7112e-05	50.886	0.016204	0.018898	0.0052398	994.17	0.00020365	0.00020948	1177.8	348.79	0.00020364	0.00021003	542.6	178.48	136.01	50.565	0.00020538	78.744	210.216	234.544	181.669	123.890	135.649	292.560	123.355	128.885	412.357	430.624	127.171	132.687	133.332	138.199	349.429	136.276	-8191	255	
1877.599	1	1	0	0	0.1095	0.29177	0.17028	0.1927	0.17351	0.27638	0.172	0.20003	0.31002	0.083635	0.33993	0.072208	0.098229	0.18347	0.052097	0.27989	-1.2687	-2.2104	-1.3104	-2.1125	-1.7	-1.4562	-2.25	-1.5583	-1.8167	-2.1167	-1.2354	-1.8604	-1.8542	-1.6271	-2.0396	-1.6938	264.996	144.120	252.176	113.804	415.037	266.388	409.594	409.520	313.234	311.122	420.092	387.657	427.630	262.473	401.182	138.771	0.00035762	0.0021682	0.00032255	710.51	1.0814e-05	6.3305e-06	871.7	240.35	9.8737e-06	1.3416e-05	348.74	120.85	77.287	30.443	8.3899e-06	51.591	0.016471	0.019316	0.0053704	1004.8	0.00020831	0.00021352	1187.9	353.64	0.00020656	0.00021237	545.5	179.3	136.61	50.593	0.00020467	78.9	202.287	177.639	220.882	124.069	211.393	229.421	123.596	129.324	152.269	458.360	128.195	132.356	133.900	138.171	264.296	136.147	-8191	255	
1877.697	1	1	0	0	0.14062	0.19896	0.35396	0.048037	0.12276	0.20166	0.086137	0.21991	0.27733	0.091377	0.21536	0.10327	0.16834	0.2323	0.069567	0.08587	-1.1583	-2.0438	-1.3958	-2.1063	-1.9417	-1.1958	-2.4042	-1.4813	-1.5854	-2.075	-1.4521	-1.825	-2.0354	-1.1146	-2.0208	-1.6	417.590	278.379	281.595	223.550	117.551	124.514	112.941	461.386	415.135	358.052	147.010	355.077	402.612	345.463	193.010	267.414	0.00060122	0.0015685	0.00094194	707.11	1.7036e-06	3.6044e-05	870.97	238.37	4.5232e-06	2.7654e-05	345	119.73	75.673	30.006	1.0954e-05	51.256	0.016423	0.019166	0.0053136	1003.5	0.00020587	0.00020999	1179.8	349.63	0.00020337	0.00020773	539.1	176.83	134.26	49.843	0.00019994	77.589	234.908	441.076	245.619	124.230	246.000	400.603	123.984	128.932	145.925	426.828	127.896	132.796	133.394	138.189	222.160	136.415	-8191	255	
1877.816	1	1	0	0	0.028983	0.17205	0.28566	0.15711	0.086103	0.17435	0.24333	0.24047	0.12601	0.20261	0.12556	0.15687	0.17016	0.13036	0.217	0.079927	-1.1229	-2.1396	-1.2938	-1.8813	-2.0312	-1.3354	-2.2771	-1.5729	-1.4167	-2.2938	-1.4125	-1.5896	-2.1063	-1.5042	-1.9521	-1.8917	415.575	125.753	300.867	219.833	401.933	261.783	377.490	380.617	327.851	332.479	421.811	397.642	438.882	287.613	461.770	406.607	0.00019897	0.00095055	0.00038666	704.36	8.7822e-06	1.2563e-05	869.43	238.46	1.6821e-05	1.1292e-05	342.65	120.06	76.752	30.094	2.2836e-05	51.106	0.016057	0.018644	0.0051681	987.98	0.00020082	0.00020495	1170.3	348.37	0.00020266	0.00020885	542.16	178.68	137.11	50.781	0.00020851	79.323	217.931	272.783	161.261	124.138	237.000	443.536	123.808	129.327	271.172	185.658	127.662	132.378	133.548	138.914	468.134	136.271	-8191	255	
1877.888	1	1	0	0	0.41797	0.14183	0.025672	0.030527	0.095138	0.161	0.32473	0.060992	0.13256	0.25458	0.18555	0.17996	0.16922	0.014642	0.2777	0.30841	-0.92083	-2.2167	-1.1396	-1.8917	-2.2375	-1.2521	-2.1292	-1.8	-1.2833	-2.2979	-1.575	-1.7104	-2.1188	-1.4875	-1.9417	-1.9896	210.169	406.898	187.862	355.086	362.555	453.104	402.761	223.043	300.236	411.596	413.160	415.121	422.362	448.714	322.446	315.019	0.00020679	0.0022625	0.001033	698.75	7.7906e-06	2.0773e-05	864.46	240.68	1.4941e-05	3.1221e-05	348.93	121.19	77.175	30.458	2.2553e-05	51.613	0.016904	0.01957	0.0054487	1008.5	0.00021265	0.00021774	1188.5	356.77	0.00021389	0.00021897	554.24	182.81	139.6	51.921	0.00021639	81.026	207.860	370.450	176.620	123.870	455.447	268.601	123.922	128.974	190.784	239.273	127.225	132.601	133.319	138.605	112.743	135.983	-8191	255	
1878.008	1	1	0	0	0.038268	0.24878	0.043479	0.26993	0.29261	0.069497	0.28669	0.24395	0.057511	0.20956	0.15278	0.14681	0.11615	0.41861	0.17505	0.043398	-1.0646	-2.1375	-1.3146	-1.5958	-2.1021	-1.3375	-1.9937	-1.9521	-1.0667	-2.2021	-1.6125	-1.5354	-2.1479	-1.3917	-1.8021	-2.0604	121.794	356.356	129.634	313.015	428.766	344.084	390.556	307.537	394.663	325.952	460.032	299.672	211.115	397.731	207.255	424.830	0.00054886	0.0012721	0.000258	708.32	2.7439e-05	1.331e-05	869.58	240.45	1.2636e-05	2.549e-05	348.01	122.26	78.311	30.635	1.5528e-05	51.989	0.017461	0.02019	0.0056206	1021.4	0.00021661	0.00022148	1199.3	359.41	0.00021466	0.00021856	555.08	183.7	139.16	51.557	0.00020934	80.387	229.493	172.568	318.358	124.563	311.676	275.720	123.865	128.864	418.869	295.617	127.621	133.022	133.224	138.191	253.093	135.865	-8191	255	
1878.104	1	1	0	0	0.0089885	0.12898	0.13473	0.15928	0.13312	0.025726	0.14187	0.27035	0.3495	0.13255	0.29469	0.1531	0.12388	0.29581	0.15492	0.18604	-0.93333	-2.3146	-1.6979	-1.4479	-2.1958	-1.4625	-1.9708	-2.1437	-1.1917	-2.2229	-1.7708	-1.25	-2.2292	-1.3292	-1.6229	-2.025	251.311	266.064	446.116	398.932	329.989	403.559	468.120	394.713	133.372	356.004	130.942	461.933	119.496	418.399	267.555	209.796	0.00066493	0.0010512	0.00025397	709.13	5.9292e-06	8.5701e-06	875.01	240.37	2.1783e-05	2.3094e-05	350.21	122.54	77.968	30.371	4.0912e-05	51.506	0.016806	0.019216	0.0053603	1005.2	0.00020435	0.0002093	1182	352.75	0.00020343	0.00020913	548.01	180.48	136.82	50.874	0.00020524	79.383	238.995	160.334	248.594	124.009	253.946	339.461	123.805	129.033	260.295	240.888	127.625	132.752	133.539	138.194	341.096	136.218	-8191	255	
1878.200	1	1	0	0	0.16623	0.023247	0.2807	0.24722	0.048882	0.081645	0.18209	0.14896	0.084691	0.15381	0.069399	0.15534	0.13284	0.27079	0.24304	0.11915	-0.86458	-1.8333	-1.6542	-1.3354	-2.2479	-1.4271	-1.6604	-2.05	-1.1479	-2.2521	-1.9979	-1.4375	-2.0187	-1.6375	-1.5771	-2.2021	294.931	394.056	405.517	417.201	424.874	251.671	417.566	328.676	152.817	274.447	427.784	423.755	159.542	187.791	381.837	341.148	0.00044787	0.001156	0.00040708	707.73	9.9653e-06	3.1409e-05	868.8	238.01	1.8524e-05	1.8182e-05	345.13	120.22	77.458	30.2	1.5974e-05	50.742	0.016506	0.019011	0.0053018	999.25	0.00020129	0.00020576	1169.1	347.75	0.00019811	0.00020057	535.4	176.19	133.4	49.504	0.00019671	77.028	235.497	243.442	261.510	124.108	280.917	391.453	124.179	129.558	246.195	194.388	127.765	132.359	133.525	138.127	351.872	136.307	-8191	255	
1878.297	1	1	0	0	0.16155	0.13811	0.093961	0.069477	0.060987	0.155	0.10399	0.16134	0.096736	0.097619	0.28312	0.035606	0.20728	0.19286	0.12366	0.10379	-0.96458	-1.9375	-1.7354	-1.4417	-2.1167	-1.5562	-1.4708	-2.2021	-1.2479	-1.9958	-1.9688	-1.3479	-2.2896	-1.625	-1.3729	-2.2229	357.421	157.353	166.634	433.332	275.440	225.484	220.893	156.887	165.991	213.837	122.222	414.850	168.224	440.433	389.334	260.284	0.00055687	0.0029768	0.00038151	699.64	2.1768e-05	1.3443e-05	865.96	237.82	6.5346e-06	2.7825e-05	346.43	120.09	76.794	30.081	1.2253e-05	50.774	0.015512	0.017952	0.0050031	976.19	0.00019117	0.00019516	1149.3	341.23	0.00018926	0.00019294	526	173.46	129.88	48.404	0.00018829	75.965	243.876	129.713	228.901	124.001	217.514	122.691	124.245	129.681	399.570	161.757	128.006	132.455	133.675	138.356	404.465	136.473	-8191	255	
1878.417	1	1	0	0	0.43083	0.33205	0.07078	0.13434	0.2169	0.21914	0.26849	0.17802	0.14156	0.14377	0.44219	0.36989	0.23485	0.1229	0.20351	0.2316	-0.89583	-2.0146	-1.9	-1.5125	-2.0333	-1.775	-1.2708	-2.1729	-1.3521	-1.95	-2.1229	-1.3937	-2.05	-1.875	-1.4104	-2.3875	158.212	293.757	356.750	466.012	470.984	228.288	366.045	132.202	270.960	187.264	115.970	418.526	385.243	389.180	275.564	411.871	0.00058914	0.00052424	0.00037354	704.43	5.6671e-06	1.0198e-05	871.3	238.91	3.1544e-05	1.1203e-05	348.21	119.74	76.777	30.076	1.1146e-05	50.682	0.015038	0.017488	0.0048823	970.55	0.00018758	0.000193	1148.7	340.77	0.00018846	0.00019237	526.83	173.27	130.37	48.667	0.00018778	75.929	224.183	119.556	423.255	124.228	250.811	348.904	123.985	129.518	206.633	317.058	127.795	132.509	133.835	138.857	169.294	136.529	-8191	255	
1878.512	1	1	0	0	0.15781	0.16072	0.24122	0.24334	0.050324	0.22201	0.11313	0.25121	0.16651	0.13672	0.14169	0.29011	0.17644	0.087987	0.1167	0.095744	-1.1208	-1.4042	-1.9542	-1.2104	-1.9833	-1.9292	-1.3813	-2.1458	-1.3333	-1.8396	-2.25	-1.2875	-1.9688	-1.9354	-1.3479	-2.2208	368.218	403.871	347.701	419.363	412.867	215.341	342.470	470.271	333.839	161.462	167.269	455.413	431.796	287.033	415.869	432.064	0.00057513	0.0017562	0.001155	705.41	2.0697e-05	2.3915e-05	869.99	239.64	7.5746e-06	8.3178e-06	348.74	121.01	77	30.244	3.3103e-06	51.607	0.015062	0.017392	0.0048239	968.62	0.00018437	0.00018997	1143.5	338.95	0.00018363	0.00018673	522.91	172.46	129.49	48.229	0.00018221	75.504	242.753	234.064	348.502	124.572	280.547	183.893	123.910	129.641	141.224	228.516	127.906	132.764	133.414	138.260	149.553	136.341	-8191	255	
1878.585	1	1	0	0	0.31874	0.23438	0.11685	0.12479	0.036489	0.1395	0.253	0.15165	0.28986	0.25166	0.34764	0.1329	0.14142	0.38233	0.024643	0.27736	-1.0958	-1.4958	-2.3	-1.3937	-1.9188	-1.7542	-1.5771	-2.0604	-1.5438	-1.6271	-2.1146	-1.2875	-1.9021	-2.1792	-1.3	-2.1562	251.029	459.582	391.174	411.157	155.380	379.774	429.139	401.475	130.068	115.730	114.273	409.971	344.855	440.065	453.635	397.921	0.0002296	0.0031969	0.00027598	703.65	2.0056e-05	1.5757e-05	867.07	238.13	5.9414e-06	2.1587e-05	345.43	118.66	77.296	29.862	1.0794e-05	51.076	0.01462	0.016966	0.0047246	962.2	0.00018035	0.00018648	1135.6	336.04	0.00017864	0.00018166	513.11	168.99	126.41	47.129	0.0001746	73.454	231.682	177.064	171.597	124.120	235.645	341.126	123.774	129.021	306.236	229.490	127.656	132.544	133.154	138.260	282.832	136.659	-8191	255	
1878.704	1	1	0	0	0.069347	0.11125	0.27137	0.22151	0.34785	0.24797	0.34241	0.091982	0.17568	0.23611	0.19443	0.31648	0.19244	0.14874	0.35239	0.28431	-1.2958	-1.3083	-2.0896	-1.3021	-1.6396	-1.9542	-1.3625	-2.225	-1.625	-1.3729	-2.2896	-1.5625	-1.8333	-2.0521	-1.1938	-2.1667	135.892	440.838	189.124	381.129	245.442	160.736	351.204	164.093	194.088	188.056	382.258	381.000	387.988	314.352	116.173	420.381	0.00063183	0.0027624	0.00084757	701.04	5.6378e-06	2.1493e-05	860.07	235.89	1.0923e-05	3.4687e-05	343.7	118.18	76.375	29.459	4.7123e-06	49.678	0.013959	0.016257	0.0045162	944.43	0.00017326	0.00017932	1117.5	330.62	0.00017729	0.00018241	512.15	168.96	126.84	47.257	0.00017921	73.519	247.829	249.001	122.361	123.530	250.338	277.917	123.878	129.374	193.382	309.909	127.667	132.994	133.741	138.170	245.072	135.992	-8191	255	
1878.800	1	1	0	0	0.14108	0.11378	0.1642	0.24778	0.14557	0.29744	0.18451	0.2875	0.14834	0.25327	0.15469	0.21742	0.18707	0.33198	0.3192	0.14274	-1.4104	-1.2812	-2.2396	-1.4375	-1.4583	-2.1188	-1.3771	-2.15	-1.825	-1.25	-2.2812	-1.4833	-1.5417	-2.2396	-1.2083	-2.0917	212.507	221.763	339.477	347.300	265.384	361.244	394.256	469.505	384.479	156.464	420.387	408.831	449.571	394.715	341.364	307.265	0.00070312	0.00035843	0.0010182	700.63	1.8713e-05	2.8283e-05	855.47	235.33	2.9195e-05	2.3284e-05	342.38	119.12	76.343	29.683	9.2983e-06	50.57	0.01435	0.016503	0.0045574	946.97	0.00017611	0.00018206	1119.6	331.63	0.00017855	0.00018449	514.53	170.5	128.38	47.824	0.00018534	75.42	222.886	397.061	158.860	123.804	178.564	162.566	123.920	129.169	344.431	357.448	128.024	132.627	133.138	138.041	279.809	136.180	-8191	255	
1878.896	1	1	0	0	0.090271	0.37733	0.16013	0.16305	0.17043	0.20218	0.52859	0.18953	0.17051	0.075652	0.15166	0.17075	0.2247	0.25466	0.17096	0.20047	-1.5063	-1.2979	-1.95	-1.5042	-1.5	-2.1688	-1.5167	-1.9104	-1.9604	-1.1208	-2.1354	-1.6875	-1.3021	-2.0021	-1.2437	-1.9438	291.664	269.560	234.770	423.798	442.051	257.726	420.363	280.679	183.195	385.435	376.736	144.379	183.889	437.115	204.681	436.705	0.00092447	0.0024046	0.00063633	699.17	4.9986e-06	1.8356e-05	858.49	238.26	6.211e-06	2.931e-05	350.16	120.91	78.467	30.496	3.8254e-05	52.033	0.014984	0.017367	0.0048189	963.82	0.00018729	0.00019255	1141.8	341.09	0.00018928	0.00019448	529.54	175.76	132.42	49.354	0.00019043	76.959	222.220	157.822	361.602	123.928	181.050	391.124	123.907	129.454	248.004	360.300	127.427	132.812	133.117	138.338	187.030	136.198	-8191	255	
1878.992	1	1	0	0	0.09671	0.053451	0.22054	0.38586	0.22337	0.10552	0.055646	0.17048	0.15922	0.21573	0.20436	0.083921	0.13646	0.098496	0.33006	0.12132	-1.5917	-1.1604	-1.8292	-1.6625	-1.4021	-2.0687	-1.3708	-1.7792	-1.9417	-1.3083	-2.1833	-1.8646	-1.3042	-2.2229	-1.3667	-1.7646	430.402	470.232	241.053	452.582	439.352	146.337	182.954	380.694	268.250	236.397	403.424	230.749	393.863	264.455	140.234	205.706	0.00030298	0.0021561	0.00057341	706.96	3.0494e-05	2.902e-05	874.27	240.28	1.2135e-05	2.5052e-05	349.5	120.97	77.815	30.51	1.1653e-05	51.787	0.015293	0.017683	0.0048695	968.96	0.00018771	0.00019187	1147.2	340.97	0.00018706	0.00019174	528.02	175.36	132.49	49.42	0.0001921	77.254	228.325	312.059	397.804	124.247	330.294	242.654	123.747	129.040	428.254	308.960	127.770	132.511	133.055	138.095	397.186	135.705	-8191	255	
1879.113	1	1	0	0	0.21188	0.14283	0.21671	0.14046	0.14566	0.056839	0.23568	0.14295	0.26202	0.025617	0.2028	0.10913	0.44486	0.14969	0.16016	0.11869	-1.7125	-1.1	-2.05	-1.9625	-1.2333	-2.2729	-1.4583	-1.65	-2.0312	-1.2875	-1.9479	-1.9604	-1.1333	-2.0604	-1.4417	-1.7375	415.484	221.194	418.748	387.203	359.263	115.736	412.634	372.226	367.481	272.099	181.052	378.399	393.564	403.405	198.782	443.537	0.0006922	0.0021531	0.00060895	696.21	1.731e-05	5.2843e-06	870.19	238.22	4.7081e-06	1.4539e-05	342.85	118.76	75.571	29.822	1.2116e-05	50.158	0.015435	0.017757	0.004888	967.61	0.00018745	0.00019005	1138.3	337.14	0.00018361	0.00018754	516.08	170.76	128.23	47.53	0.00018139	74.442	209.396	406.646	157.968	123.999	191.167	421.790	123.809	128.983	202.715	414.618	128.467	132.578	133.918	138.628	348.873	136.646	-8191	255	
1879.185	1	1	0	0	0.060571	0.23399	0.2161	0.32761	0.30377	0.271	0.18221	0.14964	0.082431	0.25645	0.16759	0.29082	0.15966	0.039136	0.24098	0.16123	-1.8042	-1.2979	-1.6896	-2.0417	-1.2437	-2.1292	-1.625	-1.4354	-2.0208	-1.3	-1.6896	-2.0125	-1.3583	-2.175	-1.5063	-1.4729	149.585	250.491	382.365	436.197	451.177	367.382	442.197	112.547	230.557	290.302	379.410	376.647	408.933	389.086	444.872	359.255	0.0005291	0.0016534	0.00069382	700.08	3.0413e-05	1.0456e-05	856.59	236.5	2.899e-06	1.9293e-05	341.5	118.27	75.913	29.561	8.7454e-06	50.164	0.014682	0.016952	0.0046944	956.49	0.00018149	0.00018421	1122.7	332.82	0.0001798	0.00018282	510.85	168.96	127	47.189	0.00018	74.363	224.170	463.299	335.236	124.015	270.888	373.883	123.552	129.197	150.396	454.182	128.036	132.740	133.350	138.428	232.364	136.541	-8191	255	
1879.281	1	1	0	0	0.16775	0.11305	0.015403	0.3407	0.30843	0.05916	0.13289	0.33217	0.26065	0.13373	0.11331	0.11291	0.15568	0.25811	0.080868	0.20425	-1.7812	-1.0458	-1.9354	-2.0625	-1.325	-1.8687	-1.9083	-1.3708	-2.1708	-1.2208	-1.7333	-2.1896	-1.1958	-1.9583	-1.7563	-1.1958	140.936	445.419	375.567	408.332	389.253	137.518	328.501	441.555	388.076	166.708	367.211	434.307	344.430	413.813	406.993	460.000	0.00033605	0.0011855	0.00096063	703.91	2.0223e-05	1.4107e-05	855.99	236.84	1.4945e-05	5.1755e-05	346.37	119.35	76.154	30.176	3.0333e-05	50.816	0.014591	0.01688	0.004678	958.3	0.00018017	0.00018411	1127	333.93	0.00018018	0.00018562	516.02	171.08	128.83	48.033	0.0001846	75.591	217.930	250.221	112.383	123.824	405.041	354.250	124.083	129.077	231.359	305.472	127.819	133.071	133.949	138.765	174.736	136.507	-8191	255	
1879.377	1	1	0	0	0.17203	0.12601	0.069489	0.070315	0.37856	0.19194	0.16734	0.42332	0.025261	0.33049	0.28441	0.19297	0.18059	0.18239	0.22542	0.13016	-1.7437	-1.3146	-1.4	-2.1021	-1.3062	-1.9813	-1.9479	-1.1854	-2.1437	-1.6104	-1.3563	-2.0563	-1.2833	-1.8062	-1.8563	-1.3583	370.582	230.150	178.781	156.945	328.158	381.166	114.431	161.732	463.038	173.525	452.724	384.893	429.735	123.328	357.405	430.741	0.00092887	0.0020412	0.00046617	705.6	2.7683e-05	2.5923e-05	863.91	238.35	1.4076e-05	2.2346e-05	347.33	120.69	76.647	30.638	1.5598e-05	51.994	0.014906	0.017365	0.0048471	971.13	0.00018692	0.00019001	1146.5	340.35	0.0001857	0.00019111	525.81	174.47	131.07	48.882	0.00018943	77.163	227.269	442.906	179.379	123.868	263.276	239.993	123.704	129.466	264.379	151.587	127.770	132.635	133.910	138.797	308.105	136.486	-8191	255	
1879.496	1	1	0	0	0.089483	0.13665	0.10182	0.16358	0.037338	0.26399	0.094557	0.10624	0.12134	0.057215	0.2231	0.15222	0.1881	0.16742	0.38042	0.2107	-1.6187	-1.5479	-1.3146	-2.1688	-1.3833	-1.8229	-2.1354	-1.1979	-2.0646	-1.4479	-1.3896	-2.2375	-1.3167	-1.7333	-2.0646	-1.2458	149.028	368.188	185.698	155.587	328.960	305.966	444.761	277.896	314.409	116.356	209.550	328.041	232.071	285.562	334.913	357.029	0.00073984	0.0018434	0.0002391	704.49	2.3012e-05	1.6299e-05	864.42	237.87	7.336e-06	1.2334e-05	350.27	120.53	76.934	30.255	3.006e-05	51.446	0.015143	0.017721	0.0049142	976.22	0.00018901	0.00019414	1151.4	341.29	0.00018763	0.00019206	527.34	174.13	130.52	48.474	0.00018657	76.363	220.355	177.833	270.957	124.108	393.614	269.403	123.601	129.246	415.627	451.548	127.851	132.352	133.685	138.419	346.556	136.145	-8191	255	
1879.592	1	1	0	0	0.074389	0.23382	0.13361	0.08311	0.11258	0.21278	0.24283	0.083713	0.16142	0.089713	0.08949	0.20232	0.17985	0.13889	0.1327	0.075266	-1.5542	-1.6354	-1.1542	-2.1771	-1.2104	-1.7396	-2.2292	-1.3208	-2.2083	-1.8021	-1.3917	-2.3979	-1.4062	-1.5771	-2.0208	-1.3813	116.319	231.630	157.806	352.977	220.877	446.251	451.618	146.219	406.602	343.040	225.183	391.690	340.333	309.625	300.697	166.545	0.00068897	0.0015353	0.001146	699.51	1.7423e-05	2.5903e-05	859.74	235.11	2.3854e-05	2.6725e-05	343.23	119.97	76.242	30.181	6.1918e-06	50.738	0.01493	0.017464	0.0048561	964.27	0.00018622	0.00019085	1137.3	337.55	0.0001853	0.00019033	520.34	172.46	129.37	48.22	0.00018686	75.724	231.493	208.206	153.557	123.913	339.072	189.347	123.729	128.917	276.896	200.610	127.705	132.574	133.307	138.262	200.151	136.487	-8191	255	
1879.690	1	1	0	0	0.14608	0.16722	0.13746	0.21712	0.29093	0.14479	0.11793	0.045852	0.019995	0.10487	0.30044	0.11525	0.12867	0.20735	0.10588	0.1471	-1.6688	-1.6625	-1.2896	-2.2458	-1.3271	-1.3708	-2.3104	-1.3604	-1.6792	-1.9104	-1.4625	-2.0625	-1.6146	-1.5854	-2.2396	-1.0125	253.488	254.935	257.629	462.923	247.979	243.539	133.696	301.329	327.085	373.327	139.098	324.367	216.778	417.640	339.818	134.310	0.00037505	0.0011362	0.00028868	702.63	1.8416e-05	3.449e-05	857.26	236.36	9.5158e-06	1.1931e-05	346.66	120.57	76.548	29.906	1.7446e-05	50.959	0.014912	0.01737	0.0048362	963.17	0.00018582	0.00019071	1136.5	337.27	0.00018526	0.00019052	522.23	172.27	129.54	48.202	0.00018527	75.491	260.063	263.950	364.082	123.619	365.119	376.348	123.644	128.867	242.760	451.873	127.814	132.652	133.287	138.479	184.294	136.197	-8191	255	
1879.784	1	1	0	0	0.12928	0.089459	0.22235	0.22927	0.12419	0.11925	0.11516	0.253	0.22183	0.13674	0.11274	0.26577	0.030075	0.082803	0.13299	0.14459	-1.35	-1.9688	-0.97292	-2.0312	-1.6042	-1.4312	-2.2458	-1.2125	-1.8979	-2.0438	-1.2479	-2.175	-1.7729	-1.4625	-2.1958	-1.5646	321.747	133.789	453.375	429.109	372.892	396.259	413.916	409.282	341.551	258.188	444.921	414.435	146.884	402.697	309.596	384.653	0.00054156	0.0027045	0.00048489	701.42	1.4298e-05	3.1941e-05	861.11	237.22	1.9483e-05	2.335e-05	345.7	120.68	77.241	30.366	2.1661e-05	51.449	0.014761	0.017223	0.0047962	961.24	0.00018414	0.00018947	1137.3	337.21	0.00018267	0.00018853	520.7	172.57	129.69	48.467	0.00018386	76.065	224.432	467.863	391.603	123.788	149.947	142.081	123.487	128.406	241.580	163.305	127.855	133.008	133.371	138.078	302.789	136.216	-8191	255	
1879.880	1	1	0	0	0.015908	0.17005	0.15089	0.091754	0.12508	0.018874	0.10394	0.28529	0.19414	0.31439	0.020325	0.23747	0.18819	0.1541	0.047278	0.16003	-1.3229	-2.0687	-1.2521	-2.2271	-1.7313	-1.1812	-2.2	-1.4813	-1.7354	-2.0583	-1.3875	-2.1937	-1.8542	-1.2917	-2.2708	-1.5438	394.354	466.235	181.879	387.854	176.567	236.893	424.593	425.317	400.976	398.071	111.074	461.145	449.635	457.249	135.125	183.991	0.00051214	0.00024979	0.0009069	702.12	1.4948e-05	1.5786e-05	868.81	240.34	3.0109e-05	3.0543e-05	351.09	121.67	77.018	30.416	1.182e-05	51.4	0.01479	0.017289	0.0047739	964.04	0.00018363	0.00018842	1143.7	338.43	0.00018271	0.00018824	523.05	173.26	129.33	48.373	0.00018239	75.784	251.600	221.383	390.697	124.336	173.976	248.434	123.512	128.515	288.322	331.551	128.067	132.291	133.382	138.711	189.732	136.230	-8191	255	
1879.977	1	1	0	0	0.13372	0.16614	0.12106	0.19632	0.19499	0.029561	0.024091	0.12645	0.44333	0.16708	0.075958	0.054656	0.21716	0.10263	0.022282	0.23976	-1.2146	-2.1271	-1.1521	-1.9792	-1.7958	-1.2687	-2.1792	-1.9021	-1.4979	-2.2396	-1.5625	-1.8542	-2.0125	-1.2979	-2.2333	-1.5646	402.354	266.425	375.126	313.688	270.089	443.534	458.596	424.706	382.565	136.500	352.011	177.610	406.511	279.751	352.978	281.428	0.00050665	0.00069447	0.00082841	700.16	4.9515e-06	6.0618e-06	863.99	237.36	4.5163e-06	1.9885e-05	345.37	119.68	76.529	29.963	1.7256e-05	50.978	0.014617	0.016921	0.0046747	953.81	0.00017955	0.00018357	1126.8	332.55	0.00017641	0.00018038	510.81	168.61	126.78	47.203	0.00017516	74.198	195.009	454.776	279.295	123.789	381.155	239.901	123.572	129.115	421.527	392.392	128.019	132.332	133.369	138.492	340.544	135.882	-8191	255	
1880.097	1	1	0	0	0.082081	0.20228	0.050969	0.32247	0.14867	0.26105	0.32523	0.085356	0.18385	0.081471	0.088427	0.38547	0.069269	0.099861	0.24605	0.25309	-0.96667	-2.4062	-1.4208	-1.9312	-2	-1.2208	-2.3417	-1.6667	-1.2354	-2.1583	-1.2729	-1.9083	-2.1042	-1.1562	-2.1667	-1.7313	253.990	185.928	243.015	344.238	328.521	392.576	345.777	231.789	244.860	227.856	416.748	366.406	141.327	435.811	198.191	451.738	0.00028304	0.00067735	0.0005259	700.72	1.9253e-05	2.761e-05	862.91	237.32	1.5173e-05	1.3873e-05	346.49	119.01	75.926	29.617	1.0469e-05	50.643	0.01423	0.016487	0.0045789	951.09	0.00017868	0.00018164	1123.2	332.52	0.0001774	0.00018087	512.52	169.56	127.25	47.107	0.00017496	74.268	246.506	241.411	117.182	123.933	145.098	236.943	123.608	128.917	226.046	223.282	126.963	132.465	133.861	138.398	304.413	135.773	-8191	255	
1880.193	1	1	0	0	0.30214	0.30586	0.15289	0.21377	0.20518	0.030596	0.19048	0.25106	0.099298	0.076945	0.12633	0.14954	0.064655	0.22218	0.10424	0.13815	-0.99167	-2.1562	-1.3875	-1.975	-2.075	-1.175	-2.1458	-1.8104	-1.3604	-2.2958	-1.4979	-1.6167	-2.0958	-1.5021	-1.9208	-1.8646	139.988	166.947	112.598	466.681	419.341	443.183	435.180	112.743	123.044	448.801	247.150	155.114	362.843	173.866	227.971	177.840	0.00059987	0.0010995	0.00061212	695.56	2.8413e-05	3.6666e-05	862.72	237.47	1.3982e-05	1.5733e-05	348.43	121.38	77.372	30.521	7.2748e-06	51.121	0.014161	0.016426	0.0045508	949	0.0001763	0.00018007	1123.4	332.73	0.0001758	0.00017952	514.39	170.8	127.97	47.731	0.0001779	75.398	232.277	455.289	192.740	124.074	204.351	239.237	124.098	129.142	291.825	172.145	127.683	132.675	133.549	138.031	176.585	136.244	-8191	255	
1880.290	1	1	0	0	0.081626	0.023295	0.20375	0.1583	0.15378	0.063563	0.15353	0.34238	0.09082	0.15616	0.05285	0.45888	0.074083	0.10563	0.1949	0.22623	-0.80208	-2.2979	-1.4375	-1.5729	-2.1708	-1.2917	-2.1146	-1.8229	-1.2646	-1.9875	-1.3917	-1.4312	-2.2979	-1.4271	-1.7854	-1.9708	248.318	400.338	424.614	120.299	402.255	197.390	438.307	421.752	346.263	303.019	228.615	282.276	339.952	399.846	146.438	402.671	0.000386	0.001161	0.00067097	705.77	1.4791e-05	2.3769e-05	866.92	240.96	9.0997e-06	2.0457e-05	350.12	122.68	78.414	30.533	7.3006e-06	52.016	0.014395	0.016623	0.0046433	960.99	0.00017989	0.00018317	1132.9	337.03	0.00017838	0.00018103	518.8	172.67	128.28	47.903	0.00017564	75.481	217.297	201.958	237.629	124.150	285.297	142.883	123.728	128.922	299.705	181.126	127.692	132.360	133.194	138.298	287.637	136.470	-8191	255	
1880.410	1	1	0	0	0.25972	0.11011	0.20337	0.1135	0.2027	0.21979	0.060876	0.11624	0.09343	0.14681	0.17162	0.1126	0.20511	0.075616	0.3161	0.31598	-0.64792	-2.1063	-1.7104	-1.4875	-2.1729	-1.3062	-1.9708	-1.9958	-1.1542	-1.8937	-1.8771	-1.3563	-2.3271	-1.4146	-1.8396	-1.9729	188.040	233.769	312.123	436.616	119.981	115.651	407.396	315.668	260.511	354.740	123.749	461.952	427.988	340.657	376.630	411.738	0.00049853	0.00091977	0.00015735	708.87	1.909e-05	1.9568e-05	875.39	239.9	9.7884e-06	1.789e-05	349.47	123.08	77.677	30.246	2.3183e-05	51.577	0.01416	0.016263	0.0045294	958.01	0.00017498	0.00017886	1133	335.28	0.00017368	0.00017741	514.45	171.1	126.58	47.252	0.00017269	74.537	222.947	291.071	346.937	124.114	303.305	456.229	123.641	128.892	396.641	219.418	127.662	132.681	133.187	138.170	190.544	136.427	-8191	255	
1880.482	1	1	0	0	0.30308	0.073546	0.099043	0.16928	0.1242	0.16064	0.18193	0.34509	0.24668	0.055066	0.33394	0.19084	0.30386	0.30545	0.011188	0.25926	-0.82708	-1.8813	-1.7542	-1.475	-2.3563	-1.3208	-1.7708	-2.1437	-1.3458	-1.7563	-1.9792	-1.3625	-1.9271	-1.6812	-1.6437	-1.9813	454.554	349.665	128.583	321.495	379.351	373.225	296.905	398.915	243.552	248.558	437.663	388.250	185.172	414.745	113.246	187.650	0.00055847	0.0015333	0.00067189	706.81	6.7661e-06	1.9694e-05	870.36	240.06	2.6913e-05	2.6002e-05	345.91	120.05	76.784	30.147	1.3924e-05	50.616	0.013917	0.015976	0.0044831	949.98	0.00017231	0.00017772	1125.4	332.64	0.0001728	0.00017693	512.55	169.73	126.8	47.267	0.00017762	74.349	225.698	264.817	154.541	124.297	251.279	199.870	123.587	129.188	433.125	147.676	127.889	133.053	133.269	138.400	341.443	136.715	-8191	255	
1880.576	1	1	0	0	0.073218	0.21524	0.13291	0.06819	0.24685	0.13987	0.2175	0.083796	0.21892	0.052157	0.10177	0.057972	0.055984	0.075021	0.19195	0.13926	-0.73333	-1.8396	-1.9312	-1.1938	-2.0458	-1.5292	-1.5896	-2.1021	-1.2313	-1.8854	-1.8813	-1.125	-2.1625	-1.7313	-1.4583	-2.3458	337.909	189.323	465.535	406.471	347.969	381.525	301.357	284.231	328.205	294.617	422.491	432.855	175.692	433.693	139.359	416.715	0.00043523	0.0019154	0.00052486	705.33	3.0248e-05	8.6093e-06	869.38	240.11	2.3736e-05	1.2008e-05	347.62	120.6	76.89	30.045	2.2143e-05	50.764	0.014255	0.016499	0.0046398	959.77	0.0001781	0.00018314	1132.5	336	0.000179	0.0001832	519.1	171.73	128.46	47.929	0.00018278	75.398	204.374	208.101	117.901	124.346	322.420	233.234	124.010	128.909	317.622	347.987	127.781	132.614	133.545	138.380	316.141	136.539	-8191	255	
1880.672	1	1	0	0	0.21552	0.15469	0.22449	0.24629	0.21405	0.28499	0.10155	0.11682	0.20756	0.11005	0.32375	0.11009	0.10179	0.078566	0.21858	0.23594	-1.0063	-1.5958	-1.8292	-1.275	-1.9896	-1.7188	-1.2667	-2.0479	-1.225	-1.7521	-1.7917	-1.2979	-2.1229	-1.8396	-1.3146	-2.2562	290.640	186.744	352.644	435.794	262.416	373.492	341.900	307.890	382.498	143.726	139.188	117.792	124.961	121.866	319.191	468.473	0.00061152	0.00089329	0.00051709	704.63	1.0534e-05	9.9777e-06	870.96	239.13	1.8421e-05	2.8825e-05	350.27	121.93	78.223	30.272	1.1703e-05	51.961	0.01468	0.017081	0.0048064	967.63	0.00018299	0.00018924	1145.1	339.75	0.0001843	0.00018816	525.73	173.65	130.25	48.561	0.00018559	76.337	230.269	284.019	204.627	124.481	313.647	232.153	123.583	129.090	305.142	222.173	128.123	132.853	133.786	138.160	277.529	136.519	-8191	255	
1880.793	1	1	0	0	0.24237	0.040461	0.22811	0.16306	0.072156	0.15553	0.18144	0.28146	0.13925	0.25961	0.085681	0.11114	0.080868	0.41699	0.11954	0.15275	-0.96667	-1.5208	-2.1646	-1.3625	-1.8729	-1.8438	-1.3729	-2.3312	-1.4583	-1.7042	-2.0563	-1.1667	-2.0438	-1.7313	-1.3833	-2.0146	419.849	306.194	314.065	435.068	247.997	299.143	432.296	124.918	446.756	235.189	468.315	437.670	288.323	455.591	170.817	334.864	0.00036588	0.0014784	0.00020135	709.25	3.9462e-05	2.2002e-05	881.42	241.71	2.3018e-05	5.5752e-06	352.54	122.83	78.079	30.495	3.122e-06	51.757	0.014982	0.01738	0.0048739	977.94	0.00018676	0.00019387	1161.4	344.46	0.00018838	0.00019401	533.68	176.36	132.26	49.308	0.00018906	76.951	226.661	230.095	467.397	124.130	387.803	113.712	124.328	129.322	284.155	467.812	128.043	133.133	133.169	138.230	221.404	136.872	-8191	255	
1880.889	1	1	0	0	0.17519	0.25713	0.087431	0.41117	0.16969	0.099155	0.15585	0.15818	0.1594	0.22539	0.077884	0.3338	0.26698	0.29702	0.085708	0.10335	-0.96458	-1.3792	-2.0896	-1.2646	-1.8333	-1.9229	-1.0229	-2.2562	-1.4813	-1.3875	-2.25	-1.4604	-1.9375	-2	-1.2354	-2.1708	428.070	187.237	157.025	455.166	396.463	459.284	266.429	174.125	186.253	471.440	383.171	397.824	135.722	194.432	457.285	418.570	0.00074116	0.00075202	0.00039304	711.15	8.745e-06	2.8363e-05	877.32	240.78	3.6203e-05	1.4472e-05	350.8	122.54	78.531	30.097	1.5365e-06	51.237	0.015074	0.017422	0.0048562	974.12	0.00018441	0.00018943	1145.1	338.75	0.00018141	0.00018625	522.17	173.07	129.75	48.415	0.00018347	75.854	230.890	198.843	217.598	124.141	280.572	351.139	123.872	129.450	231.492	327.134	128.275	133.192	133.502	138.370	349.315	136.137	-8191	255	
1880.985	1	1	0	0	0.20561	0.20054	0.31201	0.17792	0.21445	0.19937	0.27554	0.29453	0.42574	0.05588	0.14197	0.13905	0.097472	0.20735	0.039688	0.15041	-1.3875	-1.3521	-1.9271	-1.2417	-1.8875	-2.0417	-1.3833	-2.1292	-1.6688	-1.3333	-2.15	-1.4229	-1.7812	-2.0521	-1.2083	-1.9583	399.083	166.000	187.391	426.244	199.177	345.626	386.672	414.380	113.603	419.200	351.445	136.315	176.853	427.529	257.331	198.998	0.0004253	0.00051727	0.00050718	707.3	2.1104e-05	2.5896e-05	869.94	239.19	4.5341e-06	6.2952e-06	345.38	121.52	78.066	30.442	1.9435e-05	51.814	0.014847	0.017335	0.0048143	968.47	0.00018621	0.00019155	1146.8	340.53	0.00018706	0.00019224	527.9	175.14	132.11	49.223	0.0001889	76.642	235.509	138.435	303.559	124.430	304.017	190.347	124.362	129.815	347.348	199.170	127.926	133.213	133.592	138.206	196.416	136.633	-8191	255	
1881.057	1	1	0	0	0.22215	0.40053	0.18396	0.23688	0.060394	0.1102	0.26288	0.17589	0.039476	0.29746	0.19608	0.15884	0.038157	0.083406	0.19765	0.26048	-1.35	-1.2417	-2.1	-1.6	-1.5146	-2.1104	-1.625	-2.1	-2.0375	-1.3667	-2.1417	-1.5688	-1.8125	-2.3917	-1.2292	-1.9771	168.713	357.857	267.081	461.982	278.856	135.465	420.823	390.468	145.450	389.722	136.918	235.614	324.360	179.836	333.744	412.959	0.00050856	0.0010481	0.00025666	710.08	9.3454e-06	5.0493e-06	867.33	241.55	1.0963e-05	3.0986e-05	354.33	122.08	77.454	30.461	1.4831e-05	51.573	0.015246	0.017621	0.0048503	975.03	0.00018589	0.00019072	1145.4	340.72	0.00018451	0.00018965	524.39	173.97	130.27	48.363	0.00017976	75.388	226.910	417.217	314.479	124.499	290.037	137.993	124.407	129.608	415.627	304.466	128.355	132.843	134.218	139.158	315.773	137.204	-8191	255	
1881.178	1	1	0	0	0.33159	0.10686	0.26419	0.17953	0.21748	0.36907	0.37458	0.15259	0.10682	0.16539	0.27748	0.45639	0.14387	0.055633	0.22411	0.10352	-1.4396	-1.2146	-2.2479	-1.5479	-1.4667	-2.2667	-1.5021	-1.8125	-1.8937	-1.3833	-2.1854	-1.6875	-1.3792	-2.2396	-1.3792	-1.8687	421.948	252.012	114.545	457.991	118.110	120.396	386.892	421.365	252.850	325.413	164.342	460.689	440.349	249.333	349.038	195.084	0.0007273	0.0019369	0.001257	713.1	1.1437e-05	2.9237e-05	879.89	241.36	1.9226e-05	1.2762e-05	350.26	122.14	78.667	30.792	5.7077e-06	52.254	0.014402	0.01665	0.0046164	961.44	0.0001766	0.0001802	1133.1	334.37	0.00017507	0.00017826	514.76	171.19	127.76	47.625	0.00017329	74.887	229.077	408.473	460.184	124.024	184.162	411.595	124.228	129.962	471.596	178.584	128.259	133.215	133.975	138.534	355.325	136.975	-8191	255	
1881.274	1	1	0	0	0.31758	0.1595	0.065103	0.25441	0.47845	0.10607	0.12882	0.23056	0.14997	0.26872	0.32398	0.12821	0.2206	0.21905	0.14123	0.0081849	-1.7417	-1.2875	-1.8792	-1.7792	-1.3479	-2.3125	-1.5063	-1.9854	-2.2729	-1.2396	-2.1125	-1.9083	-1.3833	-2.3063	-1.3937	-1.7479	317.973	362.684	309.814	468.613	131.746	317.716	352.327	435.386	202.239	282.568	114.122	457.303	126.402	443.329	128.227	387.595	0.00032283	0.00065615	0.0010056	715.31	2.9213e-05	1.6972e-05	877.92	242.75	1.745e-05	3.7052e-05	352.88	123.37	78.956	30.576	1.4117e-05	52.135	0.013959	0.016135	0.0044604	959.35	0.00017271	0.00017616	1133.8	335.12	0.0001723	0.00017643	513.69	171.22	127.79	47.572	0.00017504	75.165	259.180	234.841	418.548	124.559	386.760	313.173	124.003	129.108	207.683	466.051	128.071	133.003	134.063	138.810	256.006	136.785	-8191	255	
1881.370	1	1	0	0	0.016204	0.41365	0.11445	0.29534	0.25837	0.21857	0.39466	0.27551	0.10536	0.11001	0.10883	0.10538	0.27482	0.33052	0.16673	0.17034	-1.8542	-1.2646	-1.9708	-1.9042	-1.2188	-2.0062	-1.65	-1.7458	-2.1604	-1.3354	-2.0125	-2.0625	-1.3542	-1.9813	-1.5229	-1.6646	357.041	419.879	440.074	469.964	179.455	449.404	400.338	381.518	348.303	222.606	175.335	411.652	138.099	196.502	348.288	352.928	0.00028743	0.0009278	0.00079768	712.17	1.1987e-05	1.8674e-05	877.14	240.33	1.3051e-05	3.2805e-05	348.32	122.75	77.497	30.327	3.3617e-05	51.765	0.014223	0.016487	0.0045769	965.84	0.00017984	0.00018459	1141.9	339.15	0.00018385	0.00018833	524.26	174.17	131.17	48.782	0.00018935	76.972	197.874	351.553	342.099	124.169	167.181	439.065	124.318	129.721	124.584	302.748	127.843	132.270	133.153	138.340	295.994	136.453	-8191	255	
1881.491	1	1	0	0	0.11479	0.206	0.080742	0.23573	0.12951	0.20358	0.046104	0.30198	0.091703	0.014479	0.086928	0.5239	0.10858	0.13985	0.18863	0.21158	-1.8375	-1.3792	-1.9188	-1.9667	-1.325	-2.125	-1.775	-1.6958	-2.2042	-1.2437	-1.8625	-1.9667	-1.3125	-1.9917	-1.5833	-1.4625	444.065	204.979	141.487	173.842	128.949	213.336	270.802	456.635	207.746	158.156	428.254	442.859	385.946	261.462	281.843	445.027	0.0006885	0.0017175	0.00051258	711.61	7.0557e-06	6.0183e-06	872.28	239.23	4.4646e-06	1.0771e-05	347.63	121.32	78.081	30.374	1.8395e-05	50.995	0.015386	0.017885	0.004992	988.02	0.00019452	0.00019932	1166.9	347.65	0.00019536	0.00019937	535.28	177.22	134.4	49.764	0.00019787	77.874	255.271	275.220	348.165	124.193	327.938	201.786	123.426	129.110	350.664	287.620	127.769	132.144	133.805	137.657	365.782	135.936	-8191	255	
1881.585	1	1	0	0	0.17436	0.29728	0.15175	0.33222	0.037974	0.30928	0.17027	0.17756	0.3054	0.078231	0.098037	0.083541	0.076542	0.060028	0.25242	0.081963	-1.7771	-1.1667	-1.7313	-1.9271	-1.0979	-2.1167	-1.9729	-1.3188	-2.0792	-1.2604	-1.6083	-2.2104	-1.4833	-2.0208	-1.7979	-1.2396	317.829	323.134	233.833	230.563	344.663	451.015	326.585	427.153	220.653	400.857	456.530	213.586	125.375	184.343	442.006	398.595	0.00046238	0.0011006	0.0010384	712.7	3.7831e-06	2.1675e-05	875.31	243.63	6.4355e-06	1.0053e-05	350.5	123.42	78.955	30.544	1.1834e-05	52.272	0.015845	0.01846	0.0050954	993.82	0.0001959	0.00019969	1166.3	348.81	0.00019308	0.00019765	536.67	178.39	135.27	50.356	0.0002049	80.211	254.347	161.855	198.654	123.623	185.621	314.433	123.519	129.026	278.076	201.759	127.580	132.144	133.626	137.901	380.392	136.210	-8191	255	
1881.681	1	1	0	0	0.1574	0.060943	0.092438	0.21216	0.17092	0.056523	0.19498	0.12365	0.053819	0.062508	0.14873	0.21098	0.19152	0.091174	0.14678	0.12638	-1.8521	-1.4083	-1.5125	-2.2104	-1.3188	-2.1292	-2.1396	-1.2938	-2.1521	-1.5979	-1.6146	-2.1562	-1.2062	-1.9354	-1.8062	-1.1521	233.435	119.555	423.107	425.637	360.782	306.020	395.978	119.843	340.544	111.824	230.447	366.396	124.442	453.628	451.428	294.624	0.00019875	0.0030803	0.00033725	716.9	1.348e-05	1.9651e-05	877.24	245.47	1.1242e-05	3.037e-05	357.58	125.7	81.074	31.715	2.9228e-05	53.099	0.016931	0.019977	0.0056469	1037.6	0.00022313	0.00023009	1229.5	372.7	0.0002274	0.00023393	579.13	191.82	146.83	54.278	0.00023154	84.73	219.633	418.229	234.351	124.009	298.508	202.725	123.572	129.173	259.672	291.700	127.608	132.579	133.329	138.317	337.711	136.146	-8191	255	
1881.777	1	1	0	0	0.19034	0.091363	0.020983	0.16469	0.17172	0.25	0.05055	0.14862	0.1932	0.072241	0.063497	0.1162	0.13613	0.077662	0.14749	0.3174	-1.8125	-1.5625	-1.5479	-2.3	-1.1458	-1.9979	-2.0833	-1.5417	-2.0625	-1.6667	-1.5938	-2.2687	-1.4167	-1.9312	-2.1792	-1.3375	187.932	319.019	264.139	443.716	444.073	344.885	441.249	440.286	348.636	451.688	187.217	448.034	346.132	172.775	367.296	404.297	0.00072638	0.0020015	0.00019429	715.08	1.7981e-05	9.1432e-06	873.67	242.55	1.062e-05	1.6034e-05	354.31	123.44	78.422	30.355	1.5406e-05	51.198	0.018602	0.021712	0.0060372	1051.7	0.00023233	0.00023662	1226.8	370.9	0.00022724	0.00023274	568.87	187.46	142.9	52.538	0.0002226	81.235	239.513	256.930	166.983	123.889	282.277	213.465	123.316	129.004	427.448	363.107	127.815	132.309	133.406	138.279	228.792	136.454	-8191	255	
1881.873	1	1	0	0	0.1233	0.089331	0.073632	0.040681	0.18905	0.22577	0.19187	0.15959	0.17241	0.24208	0.26377	0.2424	0.2465	0.056352	0.37952	0.24306	-1.7583	-1.6833	-1.2271	-2.1708	-1.3792	-1.7896	-2.2833	-1.1792	-2.075	-1.9375	-1.4521	-2.1979	-1.5083	-1.4896	-2.0646	-1.1021	375.832	381.920	413.525	247.174	320.755	402.854	375.534	420.221	327.913	142.715	460.762	289.876	385.266	279.189	460.078	251.978	0.00081629	0.0013501	0.0009259	695.74	1.633e-05	3.3385e-05	851.41	237.94	1.7304e-05	1.7921e-05	343.14	119.8	76.324	29.851	3.9075e-06	50.471	0.017589	0.020546	0.0056627	1013.7	0.00021876	0.00022234	1185.3	356.43	0.00021353	0.00022006	549.72	180.83	138.08	50.933	0.00021309	78.733	225.912	156.276	217.449	124.034	124.186	247.060	123.429	129.441	274.630	131.807	127.920	132.595	133.498	138.284	213.071	136.318	-8191	255	
1881.970	1	1	0	0	0.20853	0.1137	0.29165	0.28271	0.045796	0.11637	0.10662	0.35641	0.37304	0.16708	0.24016	0.24267	0.15973	0.2404	0.23977	0.18373	-1.6521	-1.8396	-1.2729	-2.2438	-1.4208	-1.775	-2.25	-1.4854	-1.8917	-2.0938	-1.3438	-2.2479	-1.7	-1.4562	-2.1604	-1.4021	228.493	282.050	289.143	455.611	285.133	237.519	321.717	420.119	316.814	421.176	387.859	359.602	111.773	195.197	239.679	339.279	0.00061321	0.0017369	0.00056635	692.45	7.1545e-06	7.781e-06	843.19	232.87	9.6332e-06	2.4084e-05	339.45	118.5	75.147	29.538	2.0001e-05	50.45	0.016815	0.019599	0.0054347	993.37	0.00020811	0.00021198	1157.3	345.71	0.00020185	0.00020753	531.07	175.01	132.31	49.026	0.00019503	76.467	208.958	267.586	114.023	124.321	208.823	333.810	123.853	128.994	351.443	274.396	128.251	132.885	133.283	138.767	446.813	136.097	-8191	255	
1882.090	1	1	0	0	0.04863	0.20561	0.048268	0.1469	0.18759	0.1792	0.12734	0.3726	0.17299	0.045793	0.25424	0.020723	0.24201	0.15825	0.23087	0.1258	-1.4458	-1.8167	-1.1292	-2.1667	-1.4292	-1.4813	-2.1833	-1.5146	-1.7667	-2.0125	-1.2458	-2.1083	-1.5938	-1.2417	-2.0792	-1.3771	457.559	412.900	223.925	291.034	373.243	437.638	243.420	408.991	199.935	113.368	261.613	361.532	467.317	404.370	197.170	435.273	0.00059658	0.00080268	0.00038878	690.45	1.3052e-05	7.2204e-06	844.39	232.64	1.4827e-05	1.8186e-05	340.38	119.44	76.535	29.607	1.718e-05	50.47	0.015491	0.017927	0.0049329	957.77	0.00018873	0.0001926	1122.3	334.13	0.00018269	0.00018757	511.23	169.65	127.56	47.483	0.00017901	74.285	223.347	233.842	348.665	124.058	327.874	208.714	123.671	129.095	329.891	292.671	128.102	132.819	133.365	138.089	360.860	136.289	-8191	255	
1882.186	1	1	0	0	0.15697	0.14542	0.094629	0.087545	0.10097	0.073286	0.071625	0.17994	0.18709	0.21979	0.24053	0.19825	0.14831	0.13109	0.26101	0.21343	-1.2479	-1.9708	-1.0896	-1.9979	-1.5812	-1.2167	-2.2687	-1.2375	-1.6375	-2.1208	-1.3979	-2.0271	-1.7083	-1.3604	-1.9792	-1.5375	467.449	247.044	360.045	144.837	217.220	373.123	308.595	329.574	453.467	296.302	410.565	113.859	452.067	430.853	148.164	404.891	0.00044924	0.0004973	3.2119e-05	686.31	1.0141e-05	1.8003e-05	849.28	232.46	1.1609e-05	9.0653e-06	341.1	119.69	75.176	29.99	2.3151e-05	50.476	0.014173	0.016367	0.0045223	933.95	0.00017419	0.0001776	1102	327.04	0.00017164	0.00017611	502.35	167.15	124.27	46.472	0.00016844	72.879	209.351	265.180	266.122	123.766	470.059	215.876	124.006	129.514	154.835	272.665	128.134	132.996	133.729	138.425	197.942	136.563	-8191	255	
1882.282	1	1	0	0	0.21015	0.06562	0.30757	0.21842	0.035747	0.34736	0.20977	0.12056	0.059683	0.06851	0.22712	0.18826	0.063595	0.17719	0.10816	0.17084	-1.0896	-2.1833	-1.1792	-1.8896	-1.8188	-1.0042	-2.1437	-1.5958	-1.5208	-2.0687	-1.2458	-1.9146	-2.0646	-1.3375	-2.1042	-1.6021	289.351	278.403	315.080	119.280	424.847	170.129	292.108	405.252	403.486	186.618	320.991	132.615	460.697	257.249	173.915	403.480	0.00056063	0.00055562	0.00039539	687.53	8.8916e-06	9.0741e-06	844.51	231.05	2.2763e-05	3.2703e-05	337.38	116.87	73.961	29.223	6.5073e-06	49.315	0.013547	0.015673	0.0043298	920.5	0.00016756	0.00017037	1085.1	319.62	0.00016395	0.00016739	489.69	162.63	120.74	45.02	0.00016233	70.903	194.165	377.439	448.953	124.260	351.839	159.288	123.719	129.324	346.933	297.495	127.479	133.185	133.636	139.195	281.139	136.262	-8191	255	
1882.354	1	1	0	0	0.076308	0.13258	0.15214	0.41016	0.15003	0.23148	0.17957	0.19249	0.19331	0.04362	0.1222	0.076487	0.16056	0.285	0.11075	0.29239	-1.2313	-2.1042	-1.2708	-1.9104	-1.8646	-1.2979	-2.3063	-1.5562	-1.3958	-2.075	-1.3687	-1.8479	-2.1479	-1.2125	-2.0187	-1.7667	267.116	327.494	339.438	428.074	130.405	241.326	144.891	162.822	298.571	214.258	383.863	413.944	381.407	429.841	270.905	385.536	0.00059651	0.0012224	0.00025092	683.3	2.493e-05	3.1234e-05	842.78	230.56	1.3176e-05	1.2899e-05	339.03	117.76	73.969	29.188	5.2686e-06	50.062	0.013004	0.015048	0.0041389	906.95	0.00016055	0.00016293	1070.7	315.65	0.00015879	0.00016209	485.59	161.42	119.4	44.675	0.00015712	70.544	220.823	207.046	164.394	124.258	412.071	365.553	124.271	129.536	370.252	147.932	128.589	133.250	133.627	138.682	338.876	136.747	-8191	255	
1882.473	1	1	0	0	0.043786	0.12681	0.24393	0.11111	0.14346	0.11608	0.26221	0.15793	0.028367	0.094396	0.14139	0.31986	0.26846	0.17624	0.20215	0.34464	-1.025	-2.1708	-1.2854	-1.6375	-1.9542	-1.2604	-2.0854	-1.8354	-1.1958	-1.9292	-1.7375	-1.5562	-1.9479	-1.3521	-1.7896	-1.9604	150.289	304.383	313.451	152.951	420.862	288.526	422.022	237.119	268.665	459.365	380.174	325.248	450.595	259.912	184.103	396.230	0.00053452	0.001346	0.0004969	690.33	4.4452e-06	2.9466e-05	844.33	232.54	7.5551e-07	7.8153e-06	339.8	118.47	75.421	29.739	6.5587e-06	50.731	0.012614	0.01454	0.0040576	905.82	0.00015624	0.00016028	1073.2	317.1	0.00015784	0.00016128	488.45	163.41	121.51	45.341	0.00016282	72.122	246.428	239.379	340.016	124.630	196.561	186.355	124.083	129.446	334.233	215.544	128.656	133.493	133.943	139.053	317.099	137.009	-8191	255	
1882.571	1	1	0	0	0.33502	0.21636	0.19157	0.26332	0.21949	0.097064	0.10038	0.045851	0.17063	0.22608	0.072004	0.23508	0.3099	0.3887	0.085197	0.33506	-0.78542	-2.0771	-1.4271	-1.4542	-1.9542	-1.1729	-1.9146	-1.8167	-1.2625	-2.1583	-1.6104	-1.5438	-2.1854	-1.2167	-1.7375	-2.0354	360.392	459.490	292.627	362.397	381.254	384.969	324.712	271.563	377.976	393.974	149.735	178.129	374.493	335.946	163.150	126.556	0.00021798	0.001457	0.00019179	693.76	2.0915e-05	1.8296e-05	855.55	236.17	3.5052e-05	1.7116e-05	345.79	121.1	76.795	30.123	9.4204e-06	51.522	0.013199	0.015235	0.0042519	923.28	0.00016165	0.00016394	1087.6	321.53	0.00015841	0.00016098	491.22	163.92	120.85	45.35	0.0001567	72.025	244.780	228.433	154.892	124.170	335.516	420.787	124.132	129.561	305.389	243.032	128.495	133.010	134.036	138.777	392.582	136.580	-8191	255	
1882.665	1	1	0	0	0.16861	0.066709	0.25513	0.30202	0.12874	0.18997	0.19395	0.15614	0.07402	0.19111	0.14544	0.35473	0.4299	0.042219	0.17584	0.093354	-0.88333	-2.1792	-1.7083	-1.5021	-2.1937	-1.3521	-1.9708	-2.1375	-1.1979	-2.0375	-1.7229	-1.6479	-2.3167	-1.4333	-1.7333	-2.1146	191.967	434.526	286.605	426.240	234.785	466.742	167.594	257.021	327.015	447.949	459.200	462.157	375.669	422.373	183.700	405.498	0.00049831	0.00098619	0.00035311	697.67	1.6625e-05	2.7136e-05	862.73	235.69	1.304e-05	1.4385e-05	343.5	120.64	76.26	29.915	1.2043e-05	51.065	0.012662	0.014579	0.0040788	917.74	0.00015795	0.00016183	1088.6	320.87	0.00015747	0.00015999	490.82	163.87	121.2	45.212	0.000158	71.481	220.810	394.184	358.534	124.278	299.876	395.095	124.270	129.690	285.922	285.518	128.325	133.094	133.789	139.066	205.537	136.394	-8191	255	
1882.761	1	1	0	0	0.10362	0.25788	0.18138	0.16601	0.045608	0.27898	0.092414	0.42748	0.075319	0.16971	0.095792	0.054116	0.18018	0.24604	0.13539	0.21541	-1.025	-2.1521	-1.7229	-1.3417	-2.0396	-1.4458	-1.6208	-2.1167	-1.0729	-2.0104	-1.7375	-1.5146	-2.1375	-1.6271	-1.65	-2.2396	452.586	237.764	409.409	438.832	307.697	274.079	446.066	345.801	190.260	147.801	405.054	142.282	355.814	434.718	225.593	331.969	0.00061986	0.0011736	0.0002346	696.86	3.1577e-06	1.5462e-05	848.06	235.78	7.1404e-06	1.7342e-05	343.34	119.29	75.514	29.412	2.2636e-05	50.049	0.012721	0.014657	0.0041162	917.19	0.00015898	0.00016286	1082.8	320.32	0.00015783	0.0001615	489.49	162.78	120.47	44.883	0.00015751	70.915	220.823	449.859	412.385	124.782	443.636	176.472	124.665	130.087	258.971	305.807	128.587	132.868	134.232	138.783	265.992	137.097	-8191	255	
1882.882	1	1	0	0	0.14318	0.26193	0.15385	0.32263	0.10043	0.15641	0.41615	0.30045	0.20528	0.18466	0.06857	0.31134	0.1374	0.11737	0.20006	0.23096	-0.83333	-1.8958	-1.925	-1.2687	-2.1271	-1.4646	-1.6208	-2.2625	-1.2479	-1.7604	-1.9854	-1.1187	-2.0771	-1.7167	-1.275	-2.1542	415.838	226.230	176.984	421.754	372.644	320.310	401.571	398.946	412.217	264.598	214.828	419.878	445.111	409.923	141.454	396.219	0.00036065	0.0019513	0.00041139	699.22	1.2543e-05	1.5391e-05	856.3	234.01	2.6503e-05	8.6253e-06	342.69	118.74	76.405	29.698	1.3161e-05	50.505	0.01267	0.014641	0.0040819	916.3	0.00015697	0.00016211	1084.6	320.51	0.0001591	0.00016215	492.71	163.7	121.14	45.294	0.00015931	71.44	250.473	200.096	433.296	124.245	447.638	330.964	123.825	129.386	168.697	153.390	127.300	132.453	133.243	137.735	297.935	135.827	-8191	255	
1882.954	1	1	0	0	0.11747	0.14013	0.079794	0.04567	0.19673	0.21713	0.39223	0.092953	0.17114	0.086369	0.13376	0.054482	0.097577	0.18441	0.027789	0.19015	-0.8125	-1.8729	-1.9667	-1.2188	-1.9937	-1.5771	-1.5458	-2.0771	-1.475	-1.6063	-2.0479	-1.2333	-2.1188	-1.6771	-1.2521	-2.3063	152.449	231.902	410.616	328.444	287.554	320.751	354.031	152.766	303.157	350.532	399.105	264.043	179.074	440.276	348.268	444.442	0.00046413	0.00074524	0.00010191	701.95	1.3232e-05	2.2136e-05	863.52	237.16	1.3618e-05	2.0519e-05	350.05	120.48	77.565	29.834	1.2938e-05	51.577	0.012759	0.014707	0.0041067	921.82	0.00015706	0.00016163	1087.8	321.6	0.00015831	0.00016146	496.47	164.85	122.32	45.616	0.00016136	72.637	200.311	378.967	138.500	123.469	312.882	167.992	123.327	129.147	225.607	196.244	127.328	132.210	133.544	138.329	179.720	135.909	-8191	255	
1883.050	1	1	0	0	0.16483	0.27782	0.21602	0.1803	0.13564	0.35389	0.0090176	0.19572	0.20833	0.16263	0.28017	0.15596	0.16361	0.31271	0.22035	0.19564	-1.0104	-1.6771	-2.0208	-1.3167	-1.8792	-1.6625	-1.3937	-2.2208	-1.4292	-1.5104	-2.2667	-1.4146	-2.0062	-1.8854	-1.2375	-2.2	249.571	334.047	216.087	431.179	429.496	265.420	254.507	327.570	316.900	461.815	441.525	343.835	128.363	130.431	274.811	385.773	0.00029018	0.00093466	0.00036678	707.64	9.3076e-06	1.7784e-05	870.52	241.3	1.8505e-05	1.7277e-05	348.12	121.35	78.296	30.376	1.4822e-05	51.55	0.012977	0.015044	0.0042038	930.12	0.00016132	0.00016671	1103.5	326.09	0.00016063	0.0001641	499.69	166.39	122.8	45.898	0.00015986	72.24	186.373	469.508	228.026	123.922	378.551	446.341	123.433	128.596	305.557	292.210	127.367	132.197	133.240	137.691	213.574	136.221	-8191	255	
1883.171	1	1	0	0	0.16381	0.099896	0.03222	0.17124	0.2007	0.15679	0.1624	0.37683	0.12926	0.24417	0.08841	0.15447	0.17607	0.13297	0.15747	0.18003	-1.0875	-1.4937	-1.8854	-1.2917	-1.9958	-1.7667	-1.4667	-2.0458	-1.4375	-1.5229	-2.1333	-1.425	-1.8917	-2.0604	-1.2917	-2.1104	244.842	465.504	373.538	427.271	314.050	175.403	445.025	466.343	211.256	136.569	188.660	395.586	126.333	323.754	360.839	409.382	0.00041505	0.0015435	0.00065705	698.68	7.2946e-06	2.3767e-05	860.94	240.21	1.2352e-05	3.3826e-05	343.54	120.17	77.463	29.86	2.0981e-05	51.011	0.012715	0.014769	0.0041012	923.19	0.00015693	0.000162	1092.1	322.61	0.00015701	0.00016103	492.3	163.87	121.08	45.32	0.00015737	71.374	240.403	450.918	263.601	123.629	342.286	232.594	123.212	128.683	192.005	153.234	127.342	131.962	132.938	138.189	250.695	135.990	-8191	255	
1883.267	1	1	0	0	0.26321	0.1215	0.075225	0.21939	0.24273	0.097966	0.16636	0.12915	0.085052	0.15805	0.11255	0.16475	0.30092	0.077253	0.12811	0.33236	-1.3542	-1.1917	-2.075	-1.225	-1.6458	-2.0604	-1.3125	-2.1042	-1.6958	-1.2146	-2.2438	-1.5104	-1.5083	-1.9729	-1.0771	-2.0812	398.138	246.800	119.718	311.845	202.032	233.007	142.201	170.127	332.767	255.386	315.593	391.691	382.219	194.472	119.914	387.134	0.00042048	0.0014707	0.00027967	703.64	7.4913e-06	2.5297e-05	860.04	238.7	2.0886e-05	1.1512e-05	346.51	120.68	76.489	29.869	1.3433e-05	50.84	0.012614	0.014643	0.004068	916.84	0.00015589	0.0001596	1084.1	320.33	0.00015516	0.00015842	489.19	163.13	120.23	44.879	0.0001539	70.839	247.160	366.996	139.805	123.622	246.415	263.111	123.317	128.647	222.444	367.481	127.082	132.207	133.295	137.966	254.019	136.091	-8191	255	
1883.363	1	1	0	0	0.094391	0.14837	0.21159	0.12593	0.1513	0.16569	0.12762	0.049172	0.052917	0.24817	0.13546	0.28068	0.11665	0.17343	0.26723	0.041257	-1.3042	-1.3438	-2.1875	-1.6021	-1.5083	-2.0771	-1.4833	-1.9583	-1.8854	-1.2292	-2.1375	-1.6812	-1.4458	-2.125	-1.2167	-1.8667	326.069	142.216	353.350	432.243	373.658	444.470	231.715	344.403	208.912	302.237	425.474	378.390	373.456	333.330	465.741	306.275	0.00043727	0.0020876	0.00099452	703.05	1.7087e-05	1.7693e-05	864.2	239.92	1.8825e-05	3.617e-05	347.5	120.84	77.361	29.994	9.8246e-06	51.113	0.012349	0.014292	0.0039741	915.28	0.0001533	0.00015693	1086.2	321.06	0.00015416	0.00015835	490.8	163.68	120.6	45.016	0.00015321	71.015	240.952	272.109	202.079	123.676	394.631	288.971	123.601	129.044	384.201	182.141	127.905	132.260	133.220	137.927	158.120	136.059	-8191	255	
1883.459	1	1	0	0	0.10226	0.032668	0.18904	0.11078	0.27303	0.19581	0.12397	0.1014	0.031741	0.16026	0.040287	0.14775	0.086687	0.29067	0.22806	0.18611	-1.5063	-1.1125	-2.0917	-1.7167	-1.4521	-2.0958	-1.2833	-1.8292	-1.8604	-1.1646	-2.1646	-1.5083	-1.4562	-2.1417	-1.3917	-1.9438	199.617	317.314	460.415	440.662	329.133	437.854	310.181	188.829	396.247	322.354	226.803	436.496	180.745	466.278	432.143	376.632	0.00042083	0.00089632	0.00027728	710.62	2.6268e-05	1.7993e-05	872.03	242.81	8.0315e-06	3.0085e-05	350.54	122.54	78.78	30.504	1.2104e-06	52.317	0.012265	0.014169	0.0039124	918	0.00015097	0.00015547	1089.5	322.28	0.00015174	0.00015606	492.09	164.94	121.98	45.646	0.00015518	72.524	234.720	127.112	129.374	123.844	165.702	226.366	123.769	128.715	328.513	139.117	127.506	132.030	133.725	137.572	235.725	136.248	-8191	255	
1883.578	1	1	0	0	0.09196	0.078429	0.16038	0.23491	0.4432	0.12855	0.15378	0.099369	0.37551	0.37154	0.37906	0.41725	0.21821	0.0216	0.049135	0.3898	-1.7188	-1.1313	-1.9167	-1.8625	-1.5375	-2.1458	-1.6042	-1.6938	-1.8854	-1.2833	-1.9229	-1.9438	-1.3708	-2.1	-1.4146	-1.7625	400.009	260.949	429.012	402.649	296.755	463.259	127.754	416.030	339.613	384.451	453.081	159.319	419.737	383.017	231.487	438.196	0.00050078	0.0022809	0.00019389	717.56	9.4878e-06	8.3308e-06	876.58	246.61	6.5584e-06	2.2505e-05	355.92	122.8	78.191	30.558	1.8152e-05	51.394	0.012482	0.014483	0.0039628	928.03	0.00015395	0.00015685	1098.3	324.62	0.00015288	0.00015449	492.12	164.91	120.93	45.066	0.00015123	71.198	213.621	322.705	439.358	123.776	316.780	244.347	123.471	128.800	267.794	195.318	128.492	132.323	133.196	137.699	421.324	136.522	-8191	255	
1883.650	1	1	0	0	0.18636	0.080432	0.12042	0.18022	0.12647	0.068582	0.4633	0.097657	0.1033	0.23233	0.34964	0.13088	0.22836	0.25038	0.25099	0.086584	-1.7979	-1.1521	-2.0812	-1.8208	-1.2062	-2.0083	-1.7083	-1.4562	-2.1833	-1.2042	-1.8687	-1.9604	-1.2479	-2.0083	-1.3521	-1.6646	309.329	165.818	352.994	455.478	387.775	265.385	414.003	403.407	438.998	375.510	436.743	419.065	145.119	433.374	401.917	439.836	0.00046763	0.0025673	0.00046537	712.93	1.9267e-05	2.7481e-05	868.97	241.56	2.5639e-05	2.0406e-05	352.87	122.3	77.544	30.051	1.3657e-05	51.24	0.012137	0.014104	0.0038794	921.75	0.00015115	0.00015426	1086.5	320.6	0.00015	0.00015315	488.11	163.22	120.24	44.603	0.00015109	70.965	212.337	236.095	247.150	123.394	136.883	257.119	123.085	129.086	294.120	405.802	127.636	132.179	133.274	137.982	183.808	136.516	-8191	255	
1883.770	1	1	0	0	0.11279	0.52968	0.25012	0.080292	0.23462	0.34446	0.36093	0.19119	0.15352	0.086845	0.22769	0.38858	0.19789	0.081783	0.12865	0.36079	-1.8042	-1.1271	-1.7417	-2.1333	-1.2646	-2.1708	-1.6333	-1.6125	-2.2062	-1.3646	-1.7771	-2.1146	-1.1938	-2.1458	-1.625	-1.5063	139.613	404.139	397.778	460.735	268.521	184.632	343.219	355.823	388.040	383.339	127.201	447.313	435.144	317.092	370.692	351.322	0.00048186	0.0014546	0.00024367	709.78	2.375e-05	2.1585e-05	877.49	242.26	1.8582e-05	1.598e-05	351.91	122.66	78.913	30.638	6.1083e-06	51.949	0.012238	0.014145	0.0039375	923.1	0.00015366	0.00015637	1097	324.38	0.00015415	0.00015758	496	166.17	122.86	45.716	0.00015641	72.393	218.256	300.758	405.854	123.562	226.460	266.790	123.537	129.151	210.086	451.386	127.423	132.306	133.510	137.299	417.106	135.918	-8191	255	
1883.866	1	1	0	0	0.1538	0.19357	0.26265	0.16461	0.10108	0.14974	0.29546	0.21412	0.17128	0.16724	0.29581	0.049571	0.25626	0.26597	0.3587	0.26026	-1.8188	-1.4396	-1.8	-2.1896	-1.0729	-1.9688	-1.85	-1.3521	-2.2604	-1.2625	-1.8167	-2.0458	-1.2	-1.9604	-1.7833	-1.3417	333.216	295.969	169.973	452.992	189.530	158.431	116.912	455.341	327.373	450.541	324.728	118.585	414.907	421.053	447.906	239.733	0.00038375	0.00051834	0.00050737	714.17	2.1939e-06	1.0483e-05	877.88	243.77	8.5811e-06	5.8267e-05	358.06	123.75	79.84	31.05	9.7562e-06	52.756	0.012606	0.014595	0.0040531	929.57	0.00015638	0.00015968	1103	327.79	0.00015637	0.00016047	501.44	168.04	123.79	46.034	0.00015763	72.929	211.441	267.733	197.347	123.889	270.540	115.673	123.698	128.845	232.001	327.412	127.358	132.254	133.500	138.118	461.231	136.180	-8191	255	
1883.962	1	1	0	0	0.1724	0.23863	0.18235	0.10258	0.33538	0.19798	0.28429	0.36263	0.053266	0.18863	0.28875	0.22448	0.22823	0.32412	0.077025	0.20563	-1.8687	-1.3125	-1.4917	-2.3438	-1.0146	-1.8958	-1.9188	-1.425	-1.8667	-1.7437	-1.5271	-2.3146	-1.2271	-1.8875	-2.0438	-1.2729	409.938	163.999	363.263	443.333	172.837	353.130	455.033	469.132	168.527	311.483	376.243	409.246	435.710	427.977	293.014	442.986	0.00074563	0.0016614	0.0003369	716.08	1.9182e-06	2.8682e-05	885.08	247.29	1.2907e-05	2.8912e-05	356.69	125.14	79.72	31.114	1.5095e-05	52.503	0.012521	0.014505	0.0039924	930.99	0.0001544	0.00015648	1106.4	328.68	0.00015442	0.00015766	501.28	168.94	123.69	46.024	0.00015656	72.998	236.328	190.458	129.074	123.752	404.902	207.553	123.918	128.878	151.913	135.862	127.806	132.410	133.100	137.696	220.851	136.309	-8191	255	
1884.059	1	1	0	0	0.31166	0.19456	0.3253	0.17063	0.21636	0.080812	0.21517	0.1029	0.18475	0.18357	0.34136	0.1125	0.10847	0.26623	0.32996	0.17063	-1.5	-1.5333	-1.4521	-2.3042	-1.25	-1.6688	-2.2542	-1.3687	-2.0917	-1.6812	-1.7458	-2.3958	-1.2062	-1.7437	-2.0792	-1.2146	226.759	299.709	227.527	120.132	430.923	272.205	387.591	421.720	424.953	258.472	416.492	241.687	120.237	152.822	403.793	460.959	0.00053558	0.001649	0.000557	718.1	1.176e-05	3.162e-05	875.59	243.49	1.5013e-05	1.8619e-05	354.02	122.5	78.523	30.556	1.314e-05	51.913	0.012553	0.014627	0.0040703	934.26	0.00015556	0.00015958	1104.1	326.75	0.00015562	0.00016008	500.04	166.69	122.73	45.496	0.00015672	71.925	230.478	300.187	430.536	123.770	131.867	362.366	123.716	129.039	272.978	139.492	127.682	132.604	133.408	137.857	219.767	136.216	-8191	255	
1884.179	1	1	0	0	0.0068358	0.12362	0.16336	0.15861	0.14086	0.29222	0.44882	0.076963	0.024201	0.15728	0.45223	0.16211	0.15803	0.16382	0.20872	0.13854	-1.8208	-1.5312	-1.4771	-2.3771	-1.4333	-1.5917	-2.1146	-1.2667	-1.9375	-1.6708	-1.3333	-2.225	-1.2917	-1.5104	-2.0917	-1.3708	137.529	412.061	208.311	419.131	305.740	168.151	438.131	171.704	220.850	275.304	394.137	466.694	413.605	437.388	190.741	163.419	0.00067297	0.0011573	0.00080569	710.11	1.4066e-05	2.4434e-05	869.7	242.8	1.1506e-05	2.6956e-05	349.98	122.55	78.635	30.456	2.0046e-06	51.559	0.012421	0.014485	0.0039979	921.88	0.0001529	0.00015591	1092.3	322.53	0.00015069	0.00015604	490.47	164.05	120.8	44.962	0.00015243	70.993	218.135	412.459	322.333	124.164	249.411	448.817	123.416	129.075	364.494	282.526	127.616	132.576	133.383	138.052	172.135	136.357	-8191	255	
1884.251	1	1	0	0	0.13875	0.15306	0.094448	0.28779	0.031139	0.17748	0.32176	0.066584	0.13804	0.27146	0.064394	0.099474	0.1696	0.2059	0.0067685	0.074827	-1.8125	-1.6604	-1.2354	-2.1375	-1.4229	-1.7375	-2.1542	-1.3125	-1.8917	-1.9062	-1.1688	-2.15	-1.6083	-1.425	-2.2125	-1.4312	363.671	170.179	196.722	137.780	426.308	115.189	429.073	368.313	418.997	331.386	112.717	424.666	240.338	444.346	448.624	347.797	0.00059115	0.0024354	0.0002661	715.29	5.2772e-06	8.2053e-06	877.3	242.74	2.1218e-06	2.9116e-05	351.68	121.8	78.188	30.404	4.6832e-06	51.31	0.012129	0.014168	0.003929	918.14	0.00015035	0.00015444	1087.7	320.44	0.00014811	0.00015257	487.92	163.27	120.06	44.769	0.00014903	70.847	218.064	228.132	217.149	123.581	313.646	468.432	123.496	129.182	144.926	280.392	127.809	132.826	133.601	138.104	339.380	136.550	-8191	255	
1884.347	1	1	0	0	0.061982	0.13663	0.13046	0.46556	0.086964	0.2421	0.25075	0.2447	0.085403	0.23038	0.1454	0.10288	0.092757	0.1385	0.032241	0.18713	-1.4667	-1.7938	-1.1667	-2.1104	-1.5063	-1.4333	-2.3854	-1.2125	-1.7896	-1.9021	-1.4146	-2.1042	-1.7458	-1.3563	-2.1146	-1.25	186.851	421.449	190.106	425.929	269.609	153.065	434.947	362.159	154.164	437.797	428.739	435.157	421.155	399.677	125.376	397.165	0.00065504	0.0010176	0.00054816	712.25	3.0904e-05	1.7344e-05	881	241.88	8.9328e-06	2.2128e-05	354.74	123.3	78.317	30.611	1.8981e-05	52.395	0.011952	0.01394	0.0038801	916.22	0.00014807	0.00015128	1089.6	319.01	0.00014555	0.00015065	486.95	162.66	119.28	44.822	0.00014638	71.009	227.375	231.812	450.031	123.839	190.419	437.417	123.923	128.985	340.933	221.010	127.712	132.545	133.652	138.245	219.350	136.224	-8191	255	
1884.443	1	1	0	0	0.20463	0.055428	0.094681	0.31449	0.28738	0.12191	0.20315	0.1843	0.076363	0.08232	0.089265	0.22573	0.1452	0.2142	0.22762	0.1458	-1.3958	-2.0917	-1.2958	-2.1083	-1.7208	-1.3292	-2.3563	-1.3875	-1.5458	-2.0958	-1.325	-1.8396	-2.0125	-1.1354	-2.0583	-1.6938	408.732	339.050	193.978	460.630	155.673	394.898	438.753	149.378	435.875	385.215	188.286	436.287	209.752	382.525	141.044	461.339	0.00044994	0.0011839	0.00029125	718.27	1.9711e-05	7.123e-06	882.87	242.34	2.3043e-05	2.6242e-05	351.07	121.62	77.738	30.866	1.1618e-05	51.666	0.011804	0.013775	0.0038026	916.66	0.00014712	0.00015054	1090.2	318.81	0.00014665	0.00015065	487.16	162.79	119.73	44.899	0.0001468	70.489	224.330	288.541	123.122	123.821	322.025	378.371	123.671	128.829	274.922	438.019	127.700	132.797	133.315	137.697	218.691	136.113	-8191	255	
1884.539	1	1	0	0	0.19072	0.20685	0.36792	0.19961	0.13741	0.18841	0.14857	0.10362	0.077836	0.097667	0.1447	0.20677	0.14737	0.17949	0.30363	0.15595	-1.1729	-2.3146	-1.1938	-2.0771	-2.05	-1.1854	-2.0604	-1.5542	-1.4146	-2.1021	-1.3042	-1.9854	-1.9021	-1.1375	-2.0812	-1.7417	417.598	147.318	136.093	445.135	164.674	266.129	332.143	415.783	331.795	197.192	461.099	449.586	388.825	360.917	269.894	123.316	0.00050487	0.0011492	0.00066702	714.9	9.8715e-06	2.9489e-05	874.29	238.94	1.008e-05	8.9484e-06	344.18	120.87	76.002	30.005	3.9463e-06	51.08	0.011829	0.013675	0.0037658	907.63	0.00014467	0.00014727	1073.8	312.97	0.00014241	0.00014559	474.63	158.81	116.23	43.465	0.00013926	68.918	232.625	342.359	268.952	123.902	378.527	224.479	123.662	128.978	269.427	115.165	127.921	132.650	133.098	138.182	320.041	136.258	-8191	255	
1884.658	1	1	0	0	0.13111	0.28198	0.18272	0.51899	0.088162	0.066439	0.20724	0.060833	0.13717	0.27012	0.20676	0.095056	0.1921	0.13901	0.23373	0.42228	-1.1917	-2.0875	-1.3604	-1.9146	-1.9208	-1.1938	-2.1479	-1.5354	-1.3292	-2.2542	-1.4792	-1.675	-2.0354	-1.0708	-1.8625	-1.6521	129.380	135.008	470.364	384.135	403.021	352.159	421.759	125.901	395.609	318.217	469.106	430.685	320.026	255.540	149.682	361.489	0.00039199	0.00090032	0.00015172	712.41	5.7048e-06	1.3913e-05	867.17	238.21	1.5961e-05	1.7313e-05	348.29	120.06	76.676	30.116	1.4366e-05	51.028	0.011195	0.012877	0.0035669	893.74	0.00013724	0.00014094	1061.7	309.51	0.00013782	0.00014039	472.33	157.64	115.43	43.441	0.00013878	69.001	247.114	302.611	362.434	124.033	277.204	444.444	123.550	129.181	266.480	176.199	127.845	132.857	133.750	137.861	218.396	136.587	-8191	255	
1884.754	1	1	0	0	0.07356	0.13867	0.17545	0.12293	0.26269	0.15846	0.16754	0.16458	0.27578	0.10987	0.14319	0.25354	0.2106	0.22662	0.093625	0.15217	-0.84583	-2.1208	-1.3979	-1.8062	-2.0542	-1.3125	-2.0708	-1.7938	-1.3708	-2.3604	-1.4521	-1.6688	-2.2	-1.3375	-1.8521	-2.1312	254.955	428.042	287.056	433.515	265.680	368.484	399.307	467.709	252.303	451.967	408.702	423.433	258.539	274.210	217.053	450.620	0.00066665	0.0018934	0.0009135	714.46	1.26e-05	2.1167e-05	872.16	239.73	1.6832e-05	3.1849e-05	348.16	120.56	77.174	30.412	8.0956e-06	51.376	0.01129	0.013024	0.0036385	904.7	0.00014147	0.00014513	1076	313.12	0.00014225	0.00014466	477.83	159.89	116.84	43.791	0.00014138	69.787	256.016	198.854	214.748	124.143	299.323	194.008	123.963	129.370	291.961	422.369	127.766	132.720	133.511	138.391	331.510	136.239	-8191	255	
1884.851	1	1	0	0	0.087927	0.16423	0.061519	0.02058	0.16109	0.05857	0.37578	0.08137	0.17347	0.10223	0.22682	0.15373	0.27981	0.10518	0.17089	0.45587	-0.7	-2.0667	-1.375	-1.4708	-2.0312	-1.2271	-2.0354	-1.9729	-1.2125	-2.1083	-1.5271	-1.475	-2.0229	-1.2104	-1.7396	-1.8958	320.773	201.187	462.265	297.789	262.664	286.632	130.542	147.064	279.561	440.498	176.063	236.086	142.847	312.611	132.867	246.859	0.00043052	0.0010371	0.0003482	719.6	1.0656e-05	4.6815e-06	885.99	239.46	8.6869e-06	1.3522e-05	348.45	122.44	77.778	30.382	9.015e-06	51.627	0.011353	0.013062	0.0036357	911.08	0.00014108	0.00014305	1079.9	313.29	0.00013885	0.00014134	476.07	159.65	116.43	43.567	0.00013823	69.494	205.689	259.452	257.461	124.044	278.700	275.078	123.841	129.081	231.968	246.977	127.734	132.794	133.807	138.564	183.940	136.264	-8191	255	
1884.947	1	1	0	0	0.43058	0.27969	0.15262	0.093388	0.26237	0.028632	0.052292	0.12462	0.16758	0.1392	0.10802	0.18262	0.17092	0.14035	0.23614	0.32914	-0.82917	-1.9875	-1.3229	-1.4646	-2.0479	-1.3125	-1.9583	-1.925	-1.1875	-1.9625	-1.9042	-1.2542	-2.3812	-1.3917	-1.5083	-2.2167	220.651	200.560	129.599	343.872	116.601	167.454	447.384	448.485	191.070	370.031	407.313	462.767	400.376	441.476	344.134	384.078	0.00065347	0.0021834	0.00079829	725.42	7.8047e-06	1.0759e-05	891.23	240.47	7.379e-06	1.5699e-05	347.66	120.71	76.722	30.014	1.3482e-05	51.246	0.011223	0.012935	0.0036115	909.35	0.0001387	0.00014204	1080.6	312.07	0.00013777	0.00014087	474.76	158.87	115.61	43.434	0.00014073	69.281	232.676	145.703	406.124	124.051	248.558	201.963	123.835	128.669	196.851	204.412	127.751	132.802	133.283	138.211	412.578	136.468	-8191	255	
1885.043	1	1	0	0	0.031905	0.11491	0.18996	0.21324	0.21816	0.31206	0.17632	0.30782	0.19561	0.22811	0.1552	0.30844	0.17352	0.1519	0.2414	0.25158	-0.87917	-1.9312	-1.7771	-1.3167	-2.1354	-1.2917	-1.7083	-2.1229	-1.325	-1.9125	-1.8	-1.3708	-2.1188	-1.6063	-1.5542	-2.2792	328.879	112.653	364.773	150.509	303.649	320.119	434.585	409.572	427.907	365.262	238.713	224.099	341.859	331.910	404.589	466.585	0.00085909	0.0020785	0.00023607	717.58	9.1682e-06	8.553e-06	878.02	240.25	2.9304e-05	2.9854e-05	346.16	120.87	76.562	29.886	1.3525e-05	50.593	0.011273	0.013127	0.003666	909.59	0.0001415	0.00014522	1078.4	313.77	0.00014228	0.00014559	478.46	159.4	116.75	43.974	0.00014599	69.633	237.871	238.629	348.452	123.915	259.921	363.898	124.070	129.123	275.495	255.627	127.966	132.731	133.511	138.624	186.619	136.421	-8191	255	
1885.139	1	1	0	0	0.12335	0.087784	0.18669	0.11671	0.29512	0.27914	0.30868	0.17816	0.094877	0.18183	0.20212	0.17619	0.13981	0.24664	0.27974	0.17039	-0.96458	-1.9417	-2.2313	-1.4688	-2.3063	-1.5583	-1.725	-2.4104	-1.3229	-1.95	-2.0167	-1.3458	-2.1458	-1.8896	-1.5771	-2.2667	416.817	125.710	275.990	214.749	409.642	375.444	418.589	349.311	215.801	281.195	141.788	434.210	113.760	395.346	368.865	308.023	0.00041959	0.0022699	7.7713e-05	719.44	2.2517e-05	2.2716e-05	878.22	238.82	8.9859e-06	1.0176e-05	346.8	119.78	76.606	29.767	1.1385e-05	50.598	0.011806	0.013643	0.0038237	919.35	0.00014739	0.00015214	1090	317.81	0.00014875	0.00015181	485.56	161.3	118.96	44.454	0.00015202	70.617	195.004	202.533	116.316	124.039	253.214	132.102	123.811	129.354	456.940	247.211	127.705	132.388	133.469	138.604	226.090	136.199	-8191	255	
1885.260	1	1	0	0	0.093972	0.12356	0.2097	0.12511	0.15146	0.067982	0.18237	0.44348	0.35864	0.21346	0.11526	0.026844	0.2373	0.17141	0.23039	0.046992	-1.0417	-1.8188	-1.7833	-1.2021	-2.1437	-1.9208	-1.5625	-2.2625	-1.4125	-1.7729	-2.275	-1.4417	-1.9354	-1.8292	-1.2104	-2.2354	253.149	249.339	165.798	358.054	206.702	349.914	297.257	391.014	209.472	180.103	277.832	443.726	149.359	375.902	137.384	372.797	0.00074007	0.0015908	0.00045079	725.1	2.5863e-05	2.0458e-05	881.24	240.88	9.8318e-07	1.1821e-05	348.03	120.92	77.159	30.299	9.7491e-06	51.358	0.012251	0.014236	0.003983	931.13	0.00015292	0.00015728	1102.2	321.41	0.0001532	0.00015719	491.56	163.92	120.45	45.331	0.00015568	71.51	218.507	301.997	231.223	124.165	225.857	189.734	123.771	129.381	165.182	331.936	127.980	133.109	133.618	138.257	393.001	136.481	-8191	255	
1885.356	1	1	0	0	0.16564	0.1728	0.27641	0.24716	0.28628	0.17227	0.078952	0.29016	0.12972	0.37761	0.11876	0.30652	0.1213	0.36866	0.28911	0.093632	-1.0042	-1.7396	-2.0542	-1.3854	-2.1396	-1.7812	-1.4146	-2.2438	-1.4542	-1.7375	-2.1437	-1.1896	-1.9	-1.8563	-1.0771	-2.2604	345.442	287.828	156.028	411.414	196.624	242.145	324.970	429.462	469.339	292.954	282.306	152.625	403.233	403.923	442.041	412.869	0.00052137	0.0022463	0.0011479	719.67	1.2009e-05	6.3296e-06	879.98	243.16	1.3e-05	3.0967e-05	349.2	120.06	77.287	30.039	2.2601e-05	50.743	0.012531	0.014578	0.0040626	934.83	0.0001559	0.00016016	1107.8	324.31	0.00015629	0.00015984	493.5	163.85	121.14	45.354	0.00015814	71.239	197.511	250.779	182.446	124.350	267.606	309.157	124.120	129.302	423.589	296.078	127.815	132.800	134.031	138.255	295.863	136.017	-8191	255	
1885.452	1	1	0	0	0.15143	0.3326	0.17294	0.26195	0.050856	0.052648	0.11361	0.14493	0.19992	0.258	0.31879	0.31284	0.07529	0.42231	0.26411	0.22177	-1.1	-1.4708	-2.0687	-1.2417	-1.8042	-1.8146	-1.2542	-2.2417	-1.5604	-1.3813	-2.225	-1.4208	-1.8438	-2.1333	-1.3188	-2.2208	410.254	212.966	268.947	283.811	466.031	350.363	419.406	139.213	386.189	418.572	405.012	207.238	433.368	427.641	131.692	461.603	0.00064366	0.0021667	0.00042517	713.46	1.194e-05	3.5645e-05	871.46	237.74	6.9589e-06	4.3959e-05	340.73	117.46	75.088	28.982	2.4312e-05	49.353	0.012677	0.014718	0.0041033	930.19	0.00015565	0.00016149	1097.2	319.56	0.00015562	0.0001596	486.27	161.23	119.34	44.564	0.00015827	70.21	214.538	119.906	278.825	123.938	133.828	198.387	123.772	129.170	343.464	285.065	127.952	132.807	133.823	138.354	162.870	136.628	-8191	255	
1885.546	1	1	0	0	0.04993	0.056175	0.2288	0.30514	0.15162	0.18518	0.42292	0.077402	0.072728	0.27359	0.16937	0.14058	0.11328	0.12776	0.13548	0.40728	-1.3271	-1.3729	-2.1021	-1.5312	-1.8375	-2.1562	-1.2042	-2.1542	-1.8542	-1.2458	-2.3354	-1.4042	-1.7854	-2.2188	-1.2542	-2.0417	256.027	341.972	301.745	467.230	165.667	214.384	436.240	199.596	464.592	421.807	341.903	323.489	126.683	436.755	462.866	422.712	0.00057148	0.00076599	0.00033305	706.29	1.5411e-05	2.1592e-05	863.86	234.93	1.7984e-05	4.6674e-06	335.92	117.62	74.575	29.014	1.7095e-05	49.065	0.012823	0.014845	0.0041521	929.17	0.0001603	0.00016582	1095.5	320.96	0.00016156	0.00016464	487.75	161.75	120.23	44.694	0.00016044	70.251	218.433	202.912	310.260	124.447	197.614	323.285	123.735	129.376	227.334	230.747	128.260	132.463	133.772	138.465	162.707	136.809	-8191	255	
#DATA ENDS
