BOXY.EXE: ISS Imagent and Oximeter Data Acquisition Program Version 0.80
Ascii Record File

#ACQ INFORMATION
2  Detector Channels 
16  External MUX Channels 
1  Auxiliary Channels 
5000  Waveform (CCF) Frequency (Hz)
1  Waveforms Skipped 
30  Waveforms Averaged 
1  Cycles Averaged 
16  Acquisitions per Waveform 
10.0806  Updata Rate (Hz) 

#FILE INFORMATION
TRUE -- External MUX Channel results are PARSED.
FALSE -- AC DC and Phase are NOT grouped.
TRUE -- Companion Program Settings File CREATED.
FALSE -- AC data not excluded
FALSE -- DC data not excluded
FALSE -- Phase data not excluded
FALSE -- Auxillary Chn. data not excluded
Tab delimiters

#CALIBRATION STATE
TRUE -- Waveform Calibration Values APPLIED.


#AUX CALIBRATION VALUES
Val Type	aux-1	

Term	1.0000e+00	
Factor	0.0000e+00	


#WF CALIBRATION VALUES
A = Detector Channel
Val Type	A-AC1	A-AC2	A-AC3	A-AC4	A-AC5	A-AC6	A-AC7	A-AC8	A-AC9	A-AC10	A-AC11	A-AC12	A-AC13	A-AC14	A-AC15	A-AC16	A-DC1	A-DC2	A-DC3	A-DC4	A-DC5	A-DC6	A-DC7	A-DC8	A-DC9	A-DC10	A-DC11	A-DC12	A-DC13	A-DC14	A-DC15	A-DC16	A-Ph1	A-Ph2	A-Ph3	A-Ph4	A-Ph5	A-Ph6	A-Ph7	A-Ph8	A-Ph9	A-Ph10	A-Ph11	A-Ph12	A-Ph13	A-Ph14	A-Ph15	A-Ph16	

Term	0.00000e+00	0.00000e+00	0.00000e+00	0.00000e+00	0.00000e+00	0.00000e+00	0.00000e+00	0.00000e+00	0.00000e+00	0.00000e+00	0.00000e+00	0.00000e+00	0.00000e+00	0.00000e+00	0.00000e+00	0.00000e+00	0.00000e+00	0.00000e+00	0.00000e+00	0.00000e+00	0.00000e+00	0.00000e+00	0.00000e+00	0.00000e+00	0.00000e+00	0.00000e+00	0.00000e+00	0.00000e+00	0.00000e+00	0.00000e+00	0.00000e+00	0.00000e+00	0.00000e+00	0.00000e+00	0.00000e+00	0.00000e+00	0.00000e+00	0.00000e+00	0.00000e+00	0.00000e+00	0.00000e+00	0.00000e+00	0.00000e+00	0.00000e+00	0.00000e+00	0.00000e+00	0.00000e+00	0.00000e+00	
Factor	1.00000e+00	1.00000e+00	1.00000e+00	1.00000e+00	1.00000e+00	1.00000e+00	1.00000e+00	1.00000e+00	1.00000e+00	1.00000e+00	1.00000e+00	1.00000e+00	1.00000e+00	1.00000e+00	1.00000e+00	1.00000e+00	1.00000e+00	1.00000e+00	1.00000e+00	1.00000e+00	1.00000e+00	1.00000e+00	1.00000e+00	1.00000e+00	1.00000e+00	1.00000e+00	1.00000e+00	1.00000e+00	1.00000e+00	1.00000e+00	1.00000e+00	1.00000e+00	X	X	X	X	X	X	X	X	X	X	X	X	X	X	X	X	

B = Detector Channel
Val Type	B-AC1	B-AC2	B-AC3	B-AC4	B-AC5	B-AC6	B-AC7	B-AC8	B-AC9	B-AC10	B-AC11	B-AC12	B-AC13	B-AC14	B-AC15	B-AC16	B-DC1	B-DC2	B-DC3	B-DC4	B-DC5	B-DC6	B-DC7	B-DC8	B-DC9	B-DC10	B-DC11	B-DC12	B-DC13	B-DC14	B-DC15	B-DC16	B-Ph1	B-Ph2	B-Ph3	B-Ph4	B-Ph5	B-Ph6	B-Ph7	B-Ph8	B-Ph9	B-Ph10	B-Ph11	B-Ph12	B-Ph13	B-Ph14	B-Ph15	B-Ph16	

Term	0.00000e+00	0.00000e+00	0.00000e+00	0.00000e+00	0.00000e+00	0.00000e+00	0.00000e+00	0.00000e+00	0.00000e+00	0.00000e+00	0.00000e+00	0.00000e+00	0.00000e+00	0.00000e+00	0.00000e+00	0.00000e+00	0.00000e+00	0.00000e+00	0.00000e+00	0.00000e+00	0.00000e+00	0.00000e+00	0.00000e+00	0.00000e+00	0.00000e+00	0.00000e+00	0.00000e+00	0.00000e+00	0.00000e+00	0.00000e+00	0.00000e+00	0.00000e+00	-1.98888e+02	-1.41666e+02	-1.28181e+02	-1.83212e+02	-8.92266e+01	-7.95993e+01	-1.60609e+02	-1.62015e+02	-7.67401e+01	-7.98675e+01	-1.72562e+02	-1.72621e+02	-1.82837e+02	-1.77955e+02	-8.59113e+01	-1.50807e+02	
Factor	3.77429e-05	1.24987e-04	3.22763e-05	1.53048e-01	1.12836e-06	1.18453e-06	1.66555e-01	5.17580e-02	1.34229e-06	1.30404e-06	7.96663e-02	2.59757e-02	2.43854e-02	7.97063e-03	1.19627e-06	1.14541e-02	1.84811e-06	1.93964e-06	5.39761e-07	8.01032e-02	2.10885e-08	2.12456e-08	8.19187e-02	2.70715e-02	2.11425e-08	2.13452e-08	4.02592e-02	1.31275e-02	1.28064e-02	4.18483e-03	2.12242e-08	5.82685e-03	X	X	X	X	X	X	X	X	X	X	X	X	X	X	X	X	



#DISTANCE SETTINGS
A = Detector Channel
A-1	A-2	A-3	A-4	A-5	A-6	A-7	A-8	A-9	A-10	A-11	A-12	A-13	A-14	A-15	A-16	

2.5000e+00	3.0000e+00	2.5000e+00	3.0000e+00	2.0000e+00	3.0000e+00	1.5000e+00	3.0000e+00	3.0000e+00	3.0000e+00	3.0000e+00	3.0000e+00	3.0000e+00	3.0000e+00	1.5000e+00	3.0000e+00	

B = Detector Channel
B-1	B-2	B-3	B-4	B-5	B-6	B-7	B-8	B-9	B-10	B-11	B-12	B-13	B-14	B-15	B-16	

1.0000e+01	1.0000e+01	1.0000e+01	1.4400e+00	1.0000e+01	1.0000e+01	1.5100e+00	1.9400e+00	1.0000e+01	1.0000e+01	1.9900e+00	2.4900e+00	2.4100e+00	2.9000e+00	1.0000e+01	2.9800e+00	




#DATA BEGINS
time	group	step	mark	flag	A-AC1	A-AC2	A-AC3	A-AC4	A-AC5	A-AC6	A-AC7	A-AC8	A-AC9	A-AC10	A-AC11	A-AC12	A-AC13	A-AC14	A-AC15	A-AC16	A-DC1	A-DC2	A-DC3	A-DC4	A-DC5	A-DC6	A-DC7	A-DC8	A-DC9	A-DC10	A-DC11	A-DC12	A-DC13	A-DC14	A-DC15	A-DC16	A-Ph1	A-Ph2	A-Ph3	A-Ph4	A-Ph5	A-Ph6	A-Ph7	A-Ph8	A-Ph9	A-Ph10	A-Ph11	A-Ph12	A-Ph13	A-Ph14	A-Ph15	A-Ph16	B-AC1	B-AC2	B-AC3	B-AC4	B-AC5	B-AC6	B-AC7	B-AC8	B-AC9	B-AC10	B-AC11	B-AC12	B-AC13	B-AC14	B-AC15	B-AC16	B-DC1	B-DC2	B-DC3	B-DC4	B-DC5	B-DC6	B-DC7	B-DC8	B-DC9	B-DC10	B-DC11	B-DC12	B-DC13	B-DC14	B-DC15	B-DC16	B-Ph1	B-Ph2	B-Ph3	B-Ph4	B-Ph5	B-Ph6	B-Ph7	B-Ph8	B-Ph9	B-Ph10	B-Ph11	B-Ph12	B-Ph13	B-Ph14	B-Ph15	B-Ph16	aux-1	digaux	

8524.982	1	1	0	768	0.063806	0.09914	0.14781	0.22014	0.2219	0.17337	0.22439	0.23219	0.32066	0.12127	0.17668	0.11111	0.19192	0.30451	0.18342	0.34289	-2.0708	-2.5125	-2.8104	-2.6188	-2.7417	-2.6396	-2.5563	-2.7458	-2.4979	-2.4896	-2.7333	-2.3708	-2.7729	-2.5729	-2.3542	-2.5938	190.072	286.344	285.980	363.285	156.628	308.309	350.278	344.565	188.233	349.131	409.465	89.339	113.746	422.339	319.039	364.849	0.00047733	0.00022066	2.4755e-05	978.14	1.6927e-06	2.0731e-06	1071.2	209.29	3.3378e-06	1.7295e-06	265.75	73.162	57.418	16.73	3.3877e-06	23.579	8.616e-05	6.9629e-05	1.9691e-05	957.22	7.8832e-07	7.5285e-07	1046.4	205.56	8.1703e-07	7.867e-07	260.46	72.372	56.366	16.748	7.5103e-07	23.513	100.218	112.961	141.352	84.547	193.732	211.043	84.261	92.073	222.414	189.155	91.578	98.539	98.885	105.729	250.590	105.354	-8191	255	
8525.078	1	1	0	0	0.18264	0.10815	0.21863	0.21772	0.11315	0.24717	0.12334	0.1656	0.12858	0.11352	0.10952	0.10486	0.19316	0.024194	0.14211	0.15027	-2.0687	-2.4292	-2.5938	-2.5	-2.4813	-2.8667	-2.375	-2.7854	-2.7375	-2.3896	-2.8438	-2.4917	-2.4958	-2.725	-2.1854	-2.6958	190.947	213.686	308.123	381.664	273.035	364.262	330.100	375.400	110.455	259.345	281.264	81.393	399.167	280.203	275.895	392.756	0.00059674	0.00019299	5.3185e-05	983.51	4.5023e-06	1.6657e-06	1072.5	211.11	3.3731e-06	1.8778e-06	268.06	73.897	57.783	16.721	2.1128e-06	23.518	8.3885e-05	7.0756e-05	1.9292e-05	959.97	7.9868e-07	7.3855e-07	1046.8	206.07	7.9033e-07	7.5473e-07	261.45	72.698	56.557	16.782	8.0838e-07	23.586	97.454	176.027	135.863	84.432	219.723	215.344	84.313	91.983	235.846	213.313	91.049	98.770	98.748	106.041	199.196	105.264	-8191	255	
8525.175	1	1	0	0	0.036876	0.21266	0.10164	0.1763	0.096408	0.12975	0.33102	0.11077	0.2018	0.060762	0.46249	0.18467	0.23594	0.045077	0.19352	0.11563	-2.0667	-2.1833	-2.7062	-2.6	-2.4229	-2.7625	-2.4792	-2.7313	-2.5333	-2.3646	-2.8375	-2.6146	-2.6042	-2.8021	-2.375	-2.5438	87.632	122.795	398.155	394.451	220.021	337.653	358.645	111.799	343.568	293.011	318.335	93.942	143.953	105.169	239.335	143.905	0.0005204	0.00013799	5.2759e-05	983.28	3.6721e-06	5.7381e-07	1073.5	210.93	3.6339e-06	2.8095e-06	266.43	73.623	57.669	16.929	2.7886e-06	23.779	8.4909e-05	6.9395e-05	1.9096e-05	961.24	7.9701e-07	7.2408e-07	1051.3	206.87	7.7214e-07	7.5553e-07	260.78	72.696	56.549	16.858	7.6854e-07	23.646	93.313	176.175	185.828	84.606	215.758	215.675	84.319	92.077	230.675	224.389	91.118	98.550	98.713	105.628	221.918	105.201	-8191	255	
8525.271	1	1	0	0	0.22778	0.2445	0.1065	0.053666	0.10808	0.022066	0.20277	0.4043	0.084787	0.070768	0.21822	0.12567	0.23463	0.13088	0.022419	0.26764	-2.2438	-2.4417	-2.5708	-2.4813	-2.3417	-2.6333	-2.5479	-2.6729	-2.5583	-2.2438	-2.8167	-2.5396	-2.2521	-2.8479	-2.3021	-2.6292	324.719	283.083	218.035	280.589	87.294	327.607	354.952	399.813	106.569	145.037	355.036	361.263	136.892	290.447	148.286	417.026	0.00049376	8.5651e-05	5.2222e-05	980.46	4.2822e-06	1.0775e-06	1079.7	210.69	1.6492e-06	3.7337e-06	266.09	73.937	57.829	16.745	3.8569e-06	23.597	8.2429e-05	6.9803e-05	1.8796e-05	960.89	8.0053e-07	7.4873e-07	1052.5	206.51	7.7298e-07	7.6073e-07	260.96	72.66	56.595	16.814	7.9051e-07	23.636	104.588	234.726	198.460	84.476	214.475	227.586	84.519	91.816	286.278	227.723	91.485	98.679	98.814	105.615	185.702	105.120	-8191	255	
8525.367	1	1	0	0	0.025708	0.1587	0.24297	0.070114	0.12973	0.10221	0.16376	0.21963	0.23695	0.17343	0.05219	0.09983	0.14471	0.17827	0.12046	0.28944	-2.2396	-2.3208	-2.6917	-2.5687	-2.4875	-2.7979	-2.5333	-2.5583	-2.6375	-2.3	-2.8979	-2.4917	-2.3646	-2.7667	-2.3208	-2.5417	325.637	262.998	268.429	407.159	193.447	331.369	89.679	273.181	157.336	112.057	149.019	101.739	161.199	112.321	421.599	119.455	0.0004983	0.00037453	3.0599e-05	985.11	2.4301e-06	2.3439e-06	1071	211.32	5.7649e-06	2.276e-06	266.13	73.777	57.99	16.783	2.6226e-06	23.704	8.4455e-05	7.0001e-05	1.8427e-05	962.53	7.9267e-07	7.5024e-07	1050.3	207.09	7.6862e-07	7.6438e-07	260.98	72.674	56.794	16.837	7.8193e-07	23.645	96.402	148.255	159.854	84.544	199.477	240.544	84.210	91.886	230.787	205.692	91.309	98.383	98.818	105.779	246.241	105.103	-8191	255	
8525.463	1	1	0	0	0.061953	0.089782	0.1452	0.29162	0.2188	0.098496	0.31358	0.24556	0.12483	0.19585	0.078359	0.080947	0.17077	0.16488	0.26762	0.18254	-2.3333	-2.2708	-2.6042	-2.7875	-2.2417	-2.7708	-2.7771	-2.375	-2.8438	-2.6188	-2.7021	-2.8563	-2.3042	-2.7896	-2.5271	-2.5208	297.602	407.292	308.266	386.049	129.254	354.645	336.813	387.964	222.259	93.280	86.402	308.350	326.203	75.416	96.862	387.341	0.00049449	0.00037754	6.6333e-05	982.6	1.6889e-06	1.7323e-06	1076.8	209.49	3.571e-06	1.7036e-06	266.77	73.731	57.66	16.854	2.7362e-06	23.631	8.4158e-05	7.0716e-05	1.9188e-05	962.91	8.0018e-07	7.5842e-07	1051.3	206.62	7.7047e-07	7.5913e-07	261.32	72.809	56.782	16.827	7.6686e-07	23.631	105.481	208.782	171.033	84.468	197.327	228.108	84.486	92.008	223.389	196.420	91.056	98.229	98.644	106.023	207.834	105.221	-8191	255	
8525.584	1	1	0	0	0.26401	0.026621	0.076202	0.28261	0.33137	0.24327	0.30557	0.041225	0.10885	0.04993	0.19139	0.16925	0.15412	0.10929	0.14566	0.34959	-2.3688	-2.4875	-2.4125	-2.8312	-2.3542	-2.7958	-2.8042	-2.3208	-2.8688	-2.4875	-2.6146	-2.75	-2.1562	-2.7125	-2.3458	-2.2958	331.648	244.743	128.136	387.497	298.476	374.166	424.716	82.882	425.106	380.782	383.902	147.581	256.120	331.451	106.025	417.703	0.00057542	0.000283	4.6119e-05	985.46	1.6111e-06	2.5659e-06	1071.5	210.04	3.9866e-06	1.6831e-06	268.31	74.098	57.712	16.859	1.9885e-06	23.564	8.2753e-05	6.9273e-05	1.9066e-05	963.22	7.8748e-07	7.3926e-07	1049.9	206.52	7.7549e-07	7.7683e-07	262.12	72.735	56.72	16.839	7.7168e-07	23.611	102.809	132.541	221.249	84.527	183.795	183.261	84.327	91.888	208.239	189.173	91.573	98.660	98.536	105.940	190.237	104.782	-8191	255	
8525.680	1	1	0	0	0.13297	0.15691	0.091936	0.26625	0.16122	0.34493	0.33856	0.10226	0.25218	0.13631	0.040183	0.25316	0.15911	0.24384	0.18566	0.027624	-2.4479	-2.3042	-2.3083	-2.975	-2.1	-2.4708	-2.65	-2.2979	-2.8292	-2.4	-2.5312	-2.8021	-2.1792	-2.6667	-2.7042	-2.3917	82.272	412.520	123.676	355.661	368.700	383.755	405.166	125.202	411.217	75.448	228.451	96.290	144.966	164.158	243.213	155.684	0.00057154	0.00028164	7.4824e-05	986.61	3.2918e-06	1.049e-06	1070.1	210.19	1.7516e-06	1.5526e-06	266.29	73.801	57.3	16.957	2.5185e-06	23.824	8.5591e-05	6.855e-05	1.9761e-05	964.2	7.8893e-07	7.5648e-07	1051.9	206.49	7.4801e-07	7.5126e-07	261.03	72.841	56.652	16.833	7.596e-07	23.701	94.739	85.851	167.489	84.353	199.609	238.579	84.275	91.936	236.569	245.172	91.680	98.560	99.101	106.024	180.956	105.015	-8191	255	
8525.776	1	1	0	0	0.29815	0.13776	0.19484	0.38297	0.27304	0.37961	0.3309	0.13409	0.12882	0.39334	0.028673	0.26697	0.089026	0.10577	0.29857	0.093965	-2.1	-2.3958	-2.3521	-2.8292	-2.2812	-2.7521	-2.8479	-2.2542	-2.725	-2.5167	-2.4458	-2.8812	-2.4625	-2.4521	-2.5312	-2.4229	297.944	142.454	255.496	120.880	367.245	428.374	379.075	319.330	216.564	370.511	302.351	127.973	81.276	107.295	291.409	232.579	0.00056648	0.00023067	4.2206e-05	987.18	1.7636e-06	3.0123e-06	1082.1	210.7	3.1954e-06	2.6873e-06	266	74.177	57.57	16.841	1.7365e-06	23.534	8.5479e-05	7.0631e-05	1.9271e-05	964.04	7.8195e-07	7.8197e-07	1053.4	206.89	7.8523e-07	7.711e-07	261.43	73.022	56.642	16.858	7.8291e-07	23.619	95.975	185.205	141.790	84.359	195.788	198.195	84.492	92.013	247.930	266.326	91.475	98.679	98.640	105.969	192.125	105.261	-8191	255	
8525.872	1	1	0	0	0.17758	0.15086	0.20114	0.12051	0.16746	0.16007	0.25414	0.061938	0.061953	0.10736	0.0932	0.080923	0.41301	0.098509	0.066243	0.1072	-2.2188	-2.6562	-2.3104	-2.8521	-2.3708	-2.4458	-2.9458	-2.4313	-2.6667	-2.5604	-2.4208	-2.9104	-2.4062	-2.5687	-2.7167	-2.3292	222.197	386.585	383.144	84.553	306.088	403.541	364.387	195.063	213.386	251.785	419.236	100.691	411.367	230.464	203.240	396.373	0.00052434	0.00032155	6.1802e-05	990.05	1.404e-06	2.5381e-06	1079.8	211.31	3.129e-06	3.3847e-06	268.01	73.779	57.97	16.809	2.8175e-06	23.642	8.3184e-05	6.8792e-05	1.9817e-05	965.81	7.9495e-07	7.5125e-07	1053.8	207.11	7.8412e-07	7.6523e-07	261.95	72.905	56.832	16.848	7.4833e-07	23.646	90.048	154.086	217.714	84.432	195.756	223.683	84.405	91.963	220.153	229.800	91.557	98.673	98.625	106.081	222.787	105.386	-8191	255	
8525.966	1	1	0	0	0.19823	0.13495	0.043955	0.41931	0.24872	0.12984	0.40408	0.11327	0.042501	0.11883	0.18453	0.23433	0.10282	0.2605	0.26077	0.08953	-2.2604	-2.4938	-2.35	-2.9021	-2.5667	-2.5479	-2.9083	-2.3646	-2.5854	-2.7208	-2.3979	-2.6813	-2.4417	-2.6271	-2.7979	-2.5167	146.379	152.338	221.404	408.290	116.991	304.754	413.963	135.841	283.014	117.989	327.030	323.938	120.722	137.379	202.875	151.436	0.00055922	0.00024991	5.267e-05	989.02	3.5682e-06	2.9533e-06	1081.8	212.45	3.0186e-06	2.5901e-06	267.6	74.208	58.172	17.033	1.1138e-06	23.779	8.4871e-05	6.6146e-05	1.9286e-05	967.24	8.1349e-07	7.9286e-07	1057.2	207.36	7.976e-07	7.4526e-07	261.96	73.112	56.76	16.97	7.9653e-07	23.691	100.727	168.245	131.535	84.356	204.316	220.559	84.476	92.075	221.149	202.653	91.605	98.354	98.674	105.659	161.862	105.352	-8191	255	
8526.063	1	1	0	0	0.14377	0.21254	0.14191	0.026649	0.38273	0.13782	0.34351	0.15816	0.1155	0.10054	0.1806	0.30718	0.2646	0.11995	0.21179	0.11838	-2.1125	-2.5396	-2.2313	-2.8458	-2.4146	-2.4083	-2.9313	-2.3688	-2.5458	-2.6167	-2.4354	-2.9271	-2.6417	-2.4479	-2.7667	-2.6375	380.412	88.368	224.005	108.437	379.517	428.282	363.183	423.363	78.405	97.350	357.630	384.074	178.439	85.822	364.052	224.003	0.00057563	0.0002108	4.797e-05	988.59	4.0175e-06	2.2858e-06	1082.9	211.92	3.1316e-06	5.1609e-07	267.25	74.528	57.888	16.934	1.0169e-06	23.994	8.5706e-05	6.8506e-05	1.9573e-05	969.26	8.1213e-07	7.5001e-07	1058.7	207.54	7.9795e-07	7.5678e-07	262.09	73.127	56.782	16.932	7.8591e-07	23.748	94.800	163.134	131.232	84.728	175.416	226.559	84.504	92.239	177.815	125.911	91.255	98.624	98.721	106.241	198.093	105.455	-8191	255	
8526.183	1	1	0	0	0.41169	0.21851	0.054495	0.33603	0.089926	0.14618	0.16067	0.096691	0.24946	0.23605	0.40476	0.31383	0.12853	0.14058	0.34996	0.090185	-2.2354	-2.7229	-2.2292	-2.8937	-2.5875	-2.3667	-2.6792	-2.5208	-2.5979	-2.5812	-2.2729	-2.6688	-2.5187	-2.4583	-2.8292	-2.6333	351.857	402.788	169.725	401.237	404.182	255.088	410.421	322.940	159.373	341.786	416.721	381.888	345.926	316.338	294.089	231.173	0.00053247	0.00028868	9.4187e-05	989.28	3.885e-06	1.0497e-06	1084.4	211.42	2.5144e-06	3.6815e-06	268.56	74.343	57.877	16.921	3.2578e-06	23.649	8.6565e-05	6.8198e-05	1.9792e-05	968.44	7.8915e-07	7.5125e-07	1057.1	207.37	8.0099e-07	7.5909e-07	262.02	73.248	56.796	16.929	7.749e-07	23.723	102.382	174.610	181.788	84.264	219.198	214.239	84.268	91.833	221.699	237.209	91.082	98.658	98.858	105.976	206.859	105.058	-8191	255	
8526.279	1	1	0	0	0.061131	0.23597	0.19024	0.33658	0.20196	0.064715	0.14643	0.18879	0.1719	0.028017	0.18415	0.066117	0.14743	0.058847	0.15184	0.19248	-2.0271	-2.8208	-2.3708	-2.7417	-2.7167	-2.3417	-2.9167	-2.5208	-2.5729	-2.8	-2.5125	-2.8208	-2.7646	-2.4313	-2.7604	-2.4958	393.582	248.788	365.044	397.396	151.056	372.453	213.467	275.544	157.879	160.702	354.445	120.702	344.332	318.821	222.295	128.952	0.00049614	0.00023298	6.716e-05	987.5	4.4073e-06	8.1004e-07	1085	210.71	5.5893e-06	3.2137e-06	266.68	74.406	57.914	16.912	2.1751e-06	23.853	8.4293e-05	7.093e-05	1.9544e-05	967.9	7.9513e-07	7.5913e-07	1058.6	207.35	7.6021e-07	7.8653e-07	262.1	73.155	56.647	16.942	7.5673e-07	23.76	93.422	150.033	152.646	84.345	189.165	207.106	84.382	91.928	219.935	198.857	91.076	98.622	98.777	105.877	176.779	104.899	-8191	255	
8526.376	1	1	0	0	0.072644	0.12104	0.11073	0.14188	0.10789	0.25908	0.22764	0.31386	0.10976	0.02382	0.32363	0.10135	0.19402	0.053937	0.101	0.10651	-1.7958	-2.6833	-2.4104	-2.7396	-2.7854	-2.3375	-2.9854	-2.7979	-2.3604	-2.6417	-2.4813	-2.4583	-2.4146	-2.4229	-2.7	-2.4083	289.392	374.406	95.413	393.277	407.213	104.668	374.011	376.394	172.433	262.615	379.767	204.575	384.671	326.450	108.143	135.435	0.00045499	0.00036244	8.1164e-05	988.9	3.4485e-06	3.394e-06	1080.7	210.75	2.6271e-06	2.754e-07	266.12	73.956	57.872	16.927	1.4796e-06	23.75	8.4358e-05	6.8554e-05	1.9106e-05	970.05	7.8691e-07	7.4895e-07	1056.8	207.22	7.9632e-07	7.5157e-07	261.73	73.014	56.837	16.92	7.8242e-07	23.713	106.091	171.288	203.029	84.194	196.341	193.516	84.393	92.120	278.749	180.067	91.287	98.306	99.085	106.258	224.632	105.275	-8191	255	
8526.472	1	1	0	0	0.014662	0.037864	0.097048	0.14582	0.20528	0.17256	0.2467	0.15808	0.1864	0.10669	0.044923	0.081615	0.17734	0.15852	0.043582	0.24487	-1.7396	-2.6688	-2.3688	-2.5062	-2.7938	-2.3333	-2.825	-2.6854	-2.4042	-2.8812	-2.5187	-2.575	-2.8312	-2.2917	-2.6437	-2.6479	251.126	317.529	123.919	390.005	186.683	131.580	329.467	157.759	140.350	199.160	151.380	135.909	403.830	123.664	118.128	332.351	0.00054264	0.00023564	3.5912e-05	992.38	3.3742e-06	2.907e-06	1083.2	210.64	3.2727e-06	1.1341e-06	266.73	74.184	57.919	17.014	1.8254e-06	23.87	8.6742e-05	6.8889e-05	1.9409e-05	969.59	8.0519e-07	7.613e-07	1059.6	207.43	7.8267e-07	7.642e-07	261.7	73.102	56.781	16.971	7.7879e-07	23.795	98.062	156.494	203.765	84.300	210.875	251.628	84.254	91.646	227.772	137.119	91.406	98.544	98.508	105.649	192.332	105.194	-8191	255	
8526.543	1	1	0	0	0.19529	0.095906	0.31956	0.20767	0.096621	0.072146	0.12687	0.24674	0.19086	0.04088	0.066208	0.17176	0.23497	0.34738	0.1327	0.1053	-1.9146	-2.7229	-2.3875	-2.6188	-2.8771	-2.3937	-2.875	-2.7875	-2.2271	-2.7896	-2.6583	-2.3229	-2.725	-2.3125	-2.3875	-2.7146	268.395	261.673	321.922	403.440	111.662	211.493	353.310	394.692	157.751	106.729	247.805	313.411	333.052	90.333	126.912	82.720	0.00050241	0.00031191	4.4393e-05	990.7	4.0881e-06	2.7857e-06	1082.1	211.3	5.3015e-06	2.9279e-06	266.84	74.242	57.925	16.9	3.9802e-06	23.73	8.3742e-05	6.9791e-05	1.9573e-05	969.28	7.8731e-07	7.7542e-07	1060.2	207.41	7.7738e-07	7.6812e-07	262.37	72.933	56.74	16.901	7.925e-07	23.781	96.143	134.269	225.442	84.463	218.843	262.593	84.259	91.897	201.617	225.271	91.417	98.712	98.788	106.090	193.021	105.743	-8191	255	
8526.664	1	1	0	0	0.12875	0.18933	0.16086	0.098712	0.27005	0.21611	0.28512	0.069045	0.22837	0.15005	0.22017	0.032911	0.27255	0.027949	0.10766	0.32918	-1.7479	-2.5271	-2.4125	-2.3396	-2.7229	-2.1708	-2.7146	-2.7896	-2.3958	-2.6646	-2.5396	-2.4896	-2.9188	-2.55	-2.4854	-2.6792	232.051	159.842	240.697	324.261	189.965	240.654	383.707	149.704	284.500	83.232	334.532	239.656	341.042	406.267	174.249	296.063	0.00062288	0.00042012	4.3275e-05	993.41	2.1405e-06	2.2728e-06	1082.9	212.49	1.6947e-06	2.9281e-06	266.52	74.313	57.877	16.931	2.8723e-06	23.829	8.9452e-05	6.9605e-05	1.8851e-05	972.11	7.7263e-07	7.428e-07	1059.2	207.74	8.228e-07	7.4722e-07	262.21	73.007	56.787	16.94	7.9688e-07	23.736	100.125	144.908	127.669	84.429	184.195	223.274	84.226	92.233	212.444	182.459	91.422	98.325	98.875	105.810	192.153	105.029	-8191	255	
8526.760	1	1	0	0	0.26645	0.082508	0.20096	0.30768	0.028729	0.21181	0.54087	0.28028	0.083499	0.30906	0.1594	0.25717	0.070742	0.083056	0.11595	0.081526	-1.7417	-2.7458	-2.5292	-2.5208	-2.7229	-2.525	-2.6042	-2.825	-2.3375	-2.8625	-2.8542	-2.6625	-2.8104	-2.5146	-2.4146	-2.9	211.439	138.116	301.012	79.042	432.328	212.368	347.980	155.450	406.961	408.347	373.845	263.575	148.541	303.908	357.518	239.131	0.0005211	0.00023535	7.3512e-05	995.05	3.4008e-06	2.7194e-06	1080	211.44	5.0693e-06	2.1918e-06	269.52	74.562	57.786	16.802	3.9128e-06	23.82	8.5148e-05	6.8764e-05	1.8984e-05	970.78	7.5791e-07	7.4408e-07	1059.1	207.98	7.7659e-07	7.5442e-07	262.71	73.252	56.74	16.873	7.8401e-07	23.83	102.670	171.355	184.079	84.490	192.530	184.306	84.679	91.995	221.209	216.743	91.231	98.759	98.688	106.174	229.528	105.325	-8191	255	
8526.856	1	1	0	0	0.28567	0.17984	0.078013	0.2761	0.2721	0.059675	0.12218	0.16267	0.090929	0.15946	0.41803	0.21299	0.16503	0.14771	0.13745	0.054042	-1.7792	-2.575	-2.4875	-2.3979	-2.8229	-2.4854	-2.4875	-2.7708	-2.2812	-2.7417	-2.7708	-2.425	-2.6125	-2.5979	-2.4104	-2.9229	171.653	211.848	243.377	330.580	303.546	376.595	397.901	287.225	95.165	240.974	318.919	154.560	416.321	384.792	135.478	426.759	0.00047809	0.00041662	8.299e-05	993.78	4.0194e-06	2.7913e-06	1087	211.91	1.8585e-06	3.4961e-06	266.62	74.314	57.861	16.977	3.9287e-06	23.936	8.7227e-05	6.9904e-05	1.8966e-05	969.4	7.9614e-07	7.3674e-07	1059.5	208.06	7.7981e-07	7.7963e-07	261.98	73.158	56.841	16.926	7.8299e-07	23.731	99.577	188.360	187.663	84.555	203.457	202.927	84.112	92.143	237.465	240.120	91.531	98.415	98.772	105.816	183.983	105.070	-8191	255	
8526.952	1	1	0	0	0.19695	0.13692	0.2104	0.21227	0.045283	0.21342	0.25378	0.15494	0.068593	0.29962	0.097535	0.13783	0.17926	0.19601	0.29811	0.11766	-2.0125	-2.6083	-2.5292	-2.6021	-2.5646	-2.4979	-2.5771	-2.8604	-2.4938	-2.4271	-2.7542	-2.4	-2.7792	-2.4417	-2.4292	-2.8417	138.494	110.301	362.146	329.011	422.564	253.450	378.756	281.702	154.990	406.162	314.435	325.322	407.938	383.670	394.063	83.288	0.00059802	0.00029565	7.7788e-05	991.14	2.3616e-06	1.6078e-06	1082	211.43	3.8041e-06	4.5184e-06	265.79	74.77	57.949	16.959	2.3119e-06	23.664	8.4366e-05	6.7572e-05	1.989e-05	970.28	7.9337e-07	7.6334e-07	1059.8	207.61	7.9628e-07	7.6069e-07	261.88	73.23	56.904	16.949	7.9246e-07	23.7	99.272	175.917	192.836	84.330	213.733	240.510	84.286	91.802	265.129	198.070	91.812	98.668	98.788	105.809	189.965	105.395	-8191	255	
8527.071	1	1	0	0	0.085315	0.25616	0.13876	0.52534	0.16699	0.20406	0.062829	0.24323	0.11725	0.33988	0.15015	0.10765	0.10155	0.072679	0.21543	0.12264	-1.9292	-2.6813	-2.8604	-2.3104	-2.6521	-2.7896	-2.4583	-2.9354	-2.4979	-2.5458	-2.8292	-2.3042	-2.8854	-2.7792	-2.3708	-2.7896	143.560	225.023	329.788	371.406	188.652	159.620	218.661	367.895	79.589	299.672	425.284	163.274	236.512	297.630	147.864	286.900	0.00058222	0.00036723	7.0723e-05	995.16	3.4148e-06	1.5446e-06	1084.6	211.54	3.5032e-06	2.0502e-06	266.84	74.707	57.823	17.033	2.4582e-06	23.673	8.5544e-05	7.1261e-05	1.8524e-05	972.25	7.9271e-07	7.6847e-07	1058.3	207.97	7.8461e-07	7.9369e-07	261.99	73.175	56.932	17.029	7.9604e-07	23.685	99.404	156.521	132.982	84.409	191.652	202.868	84.143	91.769	209.833	232.917	91.146	98.330	98.931	106.041	236.923	104.878	-8191	255	
8527.145	1	1	0	0	0.32167	0.17782	0.17749	0.31931	0.15009	0.025674	0.19136	0.20187	0.20274	0.19149	0.16653	0.27963	0.023262	0.19331	0.18878	0.3638	-2.0312	-2.2646	-2.7667	-2.5146	-2.5479	-2.7438	-2.4208	-2.9854	-2.6063	-2.2125	-2.8688	-2.3292	-2.3958	-2.7771	-2.425	-2.7208	179.114	396.087	238.362	383.515	255.368	249.701	335.713	267.604	392.286	171.986	102.904	431.694	316.366	400.098	302.544	200.807	0.00050225	0.00024374	8.0671e-05	993.53	3.705e-06	3.9872e-06	1089.8	212.18	3.276e-06	4.4057e-06	268.12	73.996	57.979	16.819	4.8621e-06	23.71	8.4971e-05	7.1552e-05	1.8991e-05	971.68	7.9605e-07	7.5882e-07	1062.3	208.14	8.0835e-07	7.6958e-07	262.4	73.123	56.906	16.877	7.6526e-07	23.768	97.357	88.682	169.437	84.361	202.030	247.462	84.200	92.186	208.236	249.271	91.252	98.291	98.799	106.001	200.468	105.446	-8191	255	
8527.264	1	1	0	0	0.15462	0.16981	0.068168	0.14172	0.022146	0.052541	0.17196	0.050016	0.058784	0.16201	0.041629	0.29917	0.27663	0.18888	0.37822	0.25113	-2.1896	-2.3104	-2.6854	-2.4604	-2.4813	-2.9708	-2.3375	-2.7917	-2.5396	-2.3438	-2.9083	-2.6458	-2.5563	-2.6292	-2.3042	-2.5396	320.485	394.527	393.865	346.744	389.244	153.222	248.750	278.391	238.327	94.928	164.550	378.818	345.304	92.079	243.121	116.694	0.0005533	0.00013108	1.3563e-05	996.54	4.4538e-06	2.1212e-06	1091.1	212.41	2.1687e-06	3.8678e-06	268.26	73.703	57.726	16.933	2.8164e-06	23.855	8.8536e-05	6.9706e-05	1.864e-05	970.85	8.0536e-07	7.4129e-07	1061.7	208.11	7.858e-07	7.791e-07	262.35	72.998	56.781	16.95	7.6619e-07	23.781	99.409	169.521	163.216	84.218	214.820	182.243	84.595	91.689	184.112	211.655	91.267	98.555	98.823	105.927	214.881	104.905	-8191	255	
8527.360	1	1	0	0	0.19252	0.36692	0.19156	0.28289	0.27271	0.19595	0.23233	0.15271	0.16875	0.21708	0.21604	0.19739	0.18135	0.046177	0.06946	0.17035	-2.1729	-2.2687	-2.7062	-2.5667	-2.4021	-2.7667	-2.3979	-2.6063	-2.5958	-2.6083	-2.7833	-2.4729	-2.375	-2.7354	-2.4229	-2.6833	239.588	202.409	356.245	89.655	197.189	274.382	396.368	178.909	289.916	168.912	372.112	315.435	80.769	80.726	393.879	189.523	0.0004846	9.4484e-05	4.6356e-05	994.63	3.8076e-06	1.7476e-06	1087	212.21	2.9709e-06	1.6638e-06	268.21	74.681	57.935	16.954	1.5887e-06	23.724	8.3839e-05	6.9253e-05	1.9428e-05	972.17	8.2083e-07	7.2846e-07	1062.2	207.61	8.069e-07	7.8292e-07	262.89	73.16	56.901	16.989	7.9007e-07	23.746	99.880	185.807	175.568	84.067	201.492	218.401	84.303	91.949	218.145	204.269	91.268	98.540	98.996	105.984	196.577	105.102	-8191	255	
8527.456	1	1	0	0	0.062165	0.10061	0.13796	0.33723	0.12915	0.15533	0.4076	0.053828	0.14556	0.24185	0.25486	0.049667	0.10629	0.12037	0.048957	0.19902	-2.2146	-2.2958	-2.6771	-2.6333	-2.3292	-2.6583	-2.4708	-2.7938	-2.6583	-2.3688	-2.6521	-2.9104	-2.4562	-2.7083	-2.5	-2.5146	245.931	187.765	278.925	399.724	221.707	297.003	427.924	367.963	281.083	183.160	74.832	186.868	343.455	163.367	373.020	262.619	0.00052568	0.0002346	9.8387e-05	995.31	3.4179e-06	1.8728e-06	1082.4	211.14	2.2163e-06	2.505e-06	269.06	74.155	57.829	16.922	2.7043e-06	23.753	8.3203e-05	6.9726e-05	1.9359e-05	971.05	8.0712e-07	7.5758e-07	1058.6	207.67	7.9531e-07	7.7674e-07	262.58	73.105	56.855	16.975	7.879e-07	23.715	99.002	129.594	158.522	84.243	208.731	166.198	84.829	92.093	208.923	227.964	91.323	98.175	98.739	106.286	192.286	105.097	-8191	255	
8527.552	1	1	0	0	0.1532	0.16342	0.14678	0.10257	0.10967	0.18567	0.10666	0.10639	0.2064	0.019835	0.134	0.1041	0.035774	0.051052	0.086175	0.1431	-2.2625	-2.4167	-2.5271	-2.8146	-2.3229	-2.9083	-2.7188	-2.4688	-2.8708	-2.2438	-2.8438	-2.7313	-2.6437	-2.8271	-2.5583	-2.2771	189.453	261.967	329.004	401.529	172.297	102.392	296.513	380.645	244.744	96.150	293.675	225.764	424.437	232.518	186.247	370.702	0.00049601	0.00043512	0.00013826	999.3	2.3332e-06	3.0286e-06	1085.3	211.61	4.177e-06	1.1357e-06	267.24	74.69	58.078	17.011	3.6769e-06	23.783	8.5575e-05	7.2405e-05	1.8742e-05	973.61	8.1314e-07	7.679e-07	1061	208.17	8.2156e-07	7.767e-07	262.42	73.179	56.952	16.949	7.9144e-07	23.72	100.859	127.095	164.396	84.684	148.219	229.243	84.295	91.737	225.732	216.215	91.538	98.624	98.600	106.143	230.838	104.751	-8191	255	
8527.673	1	1	0	0	0.22963	0.050109	0.034791	0.20997	0.074789	0.070342	0.3483	0.10868	0.14472	0.22366	0.1301	0.22268	0.13321	0.089202	0.17478	0.12745	-2.3604	-2.3312	-2.7583	-2.7917	-2.3125	-2.7771	-2.5708	-2.5333	-2.9104	-2.3125	-2.6937	-2.8438	-2.2687	-2.5708	-2.4917	-2.4708	294.103	190.228	426.076	397.262	349.651	390.852	393.407	333.048	99.161	344.995	98.680	373.033	275.664	310.915	118.089	400.113	0.00049248	0.00026788	9.0932e-05	993.88	2.4781e-06	1.2646e-06	1080.7	211.5	3.5412e-06	3.0026e-06	267.23	74.367	57.975	16.937	2.5097e-06	23.706	8.4928e-05	7.1415e-05	1.9175e-05	971.64	7.9126e-07	7.5298e-07	1059.5	207.63	7.78e-07	7.7412e-07	262.59	73.181	56.925	16.951	7.8158e-07	23.78	104.067	185.712	179.154	84.342	213.266	196.016	84.498	91.874	243.613	240.015	91.623	98.227	98.756	105.815	221.205	105.265	-8191	255	
8527.767	1	1	0	0	0.19403	0.12498	0.21015	0.11385	0.19328	0.069597	0.10114	0.15781	0.056447	0.084924	0.19411	0.23095	0.11693	0.096936	0.22983	0.12453	-2.2375	-2.4729	-2.45	-2.7396	-2.2833	-2.5042	-2.7438	-2.5687	-2.8958	-2.3542	-2.6667	-2.7979	-2.3917	-2.7354	-2.7208	-2.3854	172.846	82.480	224.300	389.090	394.513	218.264	379.013	410.541	249.935	303.376	142.126	372.633	280.173	134.008	390.408	105.201	0.00052232	0.00026946	6.9213e-05	991.87	2.3493e-06	1.8051e-06	1087.6	212.93	1.8858e-06	2.5594e-06	267.51	75.024	58.052	17.073	6.8013e-07	23.846	8.5286e-05	7.329e-05	1.9356e-05	969.54	7.8599e-07	7.6484e-07	1061	208.16	7.6994e-07	7.7794e-07	262.73	73.321	56.894	16.976	7.8759e-07	23.722	97.898	164.002	107.089	84.426	180.463	193.666	84.231	91.821	217.060	202.935	91.769	98.499	98.513	106.015	146.779	105.084	-8191	255	
8527.865	1	1	0	0	0.14544	0.32445	0.12364	0.43556	0.14774	0.13278	0.39637	0.38847	0.22288	0.10527	0.41896	0.089069	0.20759	0.17631	0.078045	0.14969	-2.25	-2.5021	-2.4562	-2.9479	-2.3042	-2.5771	-2.7417	-2.3896	-2.7167	-2.5854	-2.5792	-2.7146	-2.3792	-2.6229	-2.6333	-2.2917	252.704	369.551	130.194	383.629	258.078	432.013	333.208	381.181	253.399	125.938	374.554	302.610	82.232	206.092	155.064	402.492	0.00052812	0.00015073	7.6021e-05	988.84	3.1378e-06	2.4004e-06	1083.4	211.97	5.7604e-06	1.7783e-06	266.98	74.239	57.998	16.949	3.0809e-06	23.683	8.4539e-05	7.1977e-05	1.9388e-05	969.61	7.8309e-07	7.5718e-07	1059.8	207.53	7.8474e-07	7.7412e-07	261.78	73.15	56.768	16.954	7.6097e-07	23.78	96.821	102.259	148.918	84.383	224.274	261.356	84.361	91.942	220.047	236.824	91.525	98.474	99.132	105.918	224.679	105.472	-8191	255	
8527.959	1	1	0	0	0.14789	0.23902	0.095718	0.11528	0.17066	0.30764	0.28472	0.0020546	0.18264	0.26018	0.23092	0.14127	0.17192	0.16159	0.12168	0.076552	-2.4146	-2.3729	-2.4083	-2.9562	-2.3771	-2.5354	-2.9667	-2.4313	-2.9604	-2.7	-2.4604	-2.9292	-2.2604	-2.5896	-2.7313	-2.375	398.433	191.624	224.601	414.728	172.724	401.321	396.451	180.000	383.591	351.680	302.540	336.938	348.591	221.525	274.507	201.974	0.00051575	0.00014073	7.3429e-05	992.35	1.8958e-06	2.78e-06	1088.1	211.47	4.173e-06	3.525e-06	266.86	74.422	58.36	16.956	2.4533e-06	23.851	8.3735e-05	6.8744e-05	1.9513e-05	970.8	7.8313e-07	7.6121e-07	1061.1	207.61	7.625e-07	7.6202e-07	261.86	73.213	56.962	16.967	7.9971e-07	23.835	98.473	181.496	189.356	84.354	194.328	228.860	84.331	91.751	209.604	235.997	91.431	98.152	98.835	105.869	170.857	104.845	-8191	255	
8528.056	1	1	0	0	0.24142	0.20961	0.080307	0.18117	0.11766	0.24452	0.30564	0.28991	0.13391	0.11329	0.30355	0.45441	0.28209	0.029928	0.15914	0.10496	-2.2812	-2.5833	-2.3438	-2.8646	-2.2167	-2.4625	-2.7875	-2.4042	-2.4854	-2.4542	-2.3792	-2.6937	-2.4479	-2.5583	-2.8812	-2.4896	90.774	284.691	278.311	372.696	370.043	329.546	416.082	372.652	153.348	87.630	122.721	344.943	284.109	368.108	291.198	79.212	0.00053238	0.00027686	9.5383e-05	994.67	2.7084e-06	2.6311e-06	1084.3	210.93	2.362e-06	7.9721e-07	267.24	74.294	58.009	17.057	3.2657e-06	23.715	8.5463e-05	6.9989e-05	1.9179e-05	972.91	8.0756e-07	7.6785e-07	1060.1	207.44	7.8593e-07	7.5838e-07	262.35	73.039	57.012	16.981	7.7614e-07	23.717	101.102	157.628	194.018	84.388	201.309	194.512	84.556	91.978	235.555	164.261	91.443	98.341	99.143	106.278	201.652	104.927	-8191	255	
8528.152	1	1	0	0	0.20103	0.066261	0.1934	0.3516	0.10338	0.094985	0.11721	0.035468	0.12768	0.033678	0.06642	0.15938	0.12201	0.092088	0.11017	0.11571	-2.2062	-2.6146	-2.3021	-2.8708	-2.5208	-2.3333	-3.0042	-2.425	-2.6583	-2.7521	-2.2125	-2.7958	-2.4437	-2.5229	-2.7042	-2.5625	119.465	430.672	419.402	380.406	294.616	205.919	413.947	174.050	306.124	213.565	89.371	154.406	196.620	343.807	240.682	162.930	0.00058298	0.00028867	7.5416e-05	996	4.0156e-06	4.5893e-06	1092	211.26	4.7716e-06	3.0355e-06	267.56	74.574	57.797	16.935	2.015e-06	23.902	8.7697e-05	7.0073e-05	1.9543e-05	973.98	7.7913e-07	7.6869e-07	1064.2	208.02	7.9042e-07	7.6563e-07	262.58	73.477	57.076	17.018	7.7318e-07	23.791	97.653	148.869	206.123	84.400	198.101	222.106	84.307	91.798	220.917	187.475	91.472	98.168	99.022	105.902	244.835	104.973	-8191	255	
8528.248	1	1	0	0	0.16916	0.13974	0.12923	0.25968	0.07756	0.12856	0.27949	0.17526	0.23193	0.28186	0.39351	0.321	0.19385	0.17209	0.23533	0.16626	-2.0542	-2.6417	-2.25	-2.9167	-2.6354	-2.475	-2.9542	-2.3333	-2.6146	-2.8208	-2.3292	-2.9375	-2.6417	-2.3688	-2.7729	-2.3229	409.362	280.378	333.753	106.216	374.418	417.190	374.005	288.773	339.060	115.298	416.849	87.154	164.385	126.448	302.499	433.839	0.00051386	0.0003882	9.0835e-05	996.9	3.0778e-06	2.6769e-06	1087.5	212.13	3.9524e-06	1.5073e-06	268.44	74.324	58.575	17.06	2.5485e-06	23.782	8.5968e-05	7.0421e-05	1.9392e-05	975.51	8.1213e-07	7.5382e-07	1067.1	208.34	8.0073e-07	7.6941e-07	262.8	73.314	57.19	17.004	7.7287e-07	23.737	100.485	147.147	138.555	84.524	205.220	216.711	84.502	91.896	233.835	243.047	90.920	98.471	98.753	105.923	190.716	105.163	-8191	255	
8528.368	1	1	0	0	0.3481	0.07156	0.1542	0.20859	0.22115	0.17281	0.16048	0.046241	0.12912	0.11773	0.30752	0.041941	0.11466	0.013828	0.37196	0.10045	-2.1146	-2.6813	-2.2833	-2.6813	-2.6125	-2.3646	-3.0771	-2.4938	-2.4042	-2.7542	-2.45	-2.5854	-2.6562	-2.2292	-2.775	-2.5292	288.402	389.105	167.543	384.515	244.761	142.144	384.656	296.893	163.753	75.211	423.548	211.733	209.879	91.352	90.566	420.592	0.00055055	0.00036079	2.9852e-05	998.01	2.8659e-06	2.5938e-06	1092.9	210.87	2.4399e-06	3.2914e-06	267.5	74.486	57.944	16.992	1.7474e-06	23.722	8.8024e-05	7.0999e-05	1.9283e-05	975.92	7.9363e-07	7.8348e-07	1065.2	208.16	7.9712e-07	7.4904e-07	262.26	73.334	56.894	17	7.742e-07	23.815	98.255	126.539	146.441	84.483	224.337	264.825	84.460	92.010	202.524	225.875	91.574	98.561	98.450	105.959	216.394	105.103	-8191	255	
8528.440	1	1	0	0	0.23453	0.17507	0.083397	0.088965	0.14297	0.074991	0.18179	0.20455	0.2198	0.19003	0.14494	0.08675	0.13275	0.10561	0.28416	0.355	-1.9229	-2.7188	-2.2854	-2.8521	-2.6021	-2.3271	-2.8417	-2.5104	-2.3208	-2.7958	-2.1417	-2.6604	-2.7208	-2.1396	-2.5187	-2.4292	272.748	91.069	157.542	424.729	164.006	331.883	403.745	104.609	244.096	213.435	97.120	355.974	356.964	122.715	399.286	310.769	0.00050621	8.9695e-05	0.00011101	992.78	4.3312e-06	2.1284e-06	1088	211.72	3.6696e-06	2.1976e-06	268.97	74.774	58.198	17.115	1.974e-06	23.747	8.2764e-05	6.9003e-05	1.9322e-05	974.33	8.1217e-07	7.5196e-07	1063.5	207.91	7.8258e-07	7.4713e-07	263.27	73.189	56.993	17.014	7.7742e-07	23.785	101.972	148.161	208.051	84.413	224.262	232.036	84.484	91.892	213.014	254.386	91.454	98.400	98.483	105.595	221.454	105.097	-8191	255	
8528.536	1	1	0	0	0.054196	0.22931	0.17035	0.25203	0.078592	0.12424	0.0095346	0.24435	0.2271	0.06774	0.16351	0.31478	0.14279	0.28271	0.034181	0.10019	-1.9896	-2.7875	-2.3375	-2.5292	-2.7354	-2.5771	-2.9875	-2.8063	-2.3875	-2.7292	-2.4104	-2.5979	-2.6271	-2.2583	-2.4479	-2.5604	205.855	250.779	353.367	432.573	186.147	228.252	212.878	371.764	104.411	213.425	83.249	419.018	386.204	233.510	160.836	347.519	0.00056927	0.00032459	4.2609e-05	993.88	3.6393e-06	2.0018e-06	1092	212.81	3.7419e-06	2.2692e-06	269.45	74.477	58.356	16.984	3.8507e-06	23.739	8.5579e-05	6.794e-05	1.9567e-05	973.9	8.0576e-07	7.8777e-07	1065.1	208.21	8.1866e-07	7.6767e-07	263.17	73.4	57.152	17.001	7.7539e-07	23.818	101.881	137.147	161.742	84.256	211.525	199.864	84.315	91.962	259.306	248.021	91.699	98.502	98.781	105.413	174.586	105.426	-8191	255	
8528.632	1	1	0	0	0.19911	0.14596	0.30321	0.20995	0.096587	0.15835	0.33074	0.15595	0.19003	0.02381	0.10293	0.14707	0.065513	0.072798	0.33116	0.20531	-1.8854	-2.9667	-2.5062	-2.3917	-2.8229	-2.4313	-2.9104	-2.7625	-2.3208	-2.6813	-2.6396	-2.5292	-2.9437	-2.2479	-2.6167	-2.6021	182.958	106.119	205.975	398.950	351.009	90.128	357.114	125.273	109.104	427.108	307.980	399.045	398.809	313.195	280.072	343.807	0.00053877	0.00017994	4.752e-05	997.68	4.6734e-06	1.5815e-06	1090.5	211.66	3.7552e-06	1.4013e-06	267.85	74.227	57.915	17.02	2.2728e-06	23.766	8.4135e-05	6.8893e-05	1.8814e-05	974.93	7.9174e-07	7.6754e-07	1065.7	208.47	7.9218e-07	7.6016e-07	261.95	73.205	56.992	16.969	7.8547e-07	23.823	95.133	169.222	163.972	84.061	186.114	159.652	84.530	92.073	229.777	205.216	91.140	98.581	98.879	106.130	159.456	105.015	-8191	255	
8528.753	1	1	0	0	0.066545	0.11304	0.1616	0.18127	0.074552	0.12594	0.11506	0.29994	0.19599	0.063225	0.18004	0.2166	0.070291	0.13532	0.20837	0.032351	-1.7875	-2.6604	-2.5375	-2.3104	-2.8146	-2.2854	-2.7979	-2.8146	-2.3312	-2.7021	-2.5875	-2.5583	-2.7458	-2.4917	-2.5312	-2.6188	109.418	186.461	120.082	89.208	155.047	109.749	411.258	351.916	265.208	311.933	264.620	391.864	377.174	216.521	261.052	91.967	0.00052866	0.00032809	4.4211e-05	992.76	3.2001e-06	3.2727e-06	1084.5	211.2	2.6705e-06	5.8278e-06	268.74	74.629	58.094	17.08	2.4455e-06	23.953	8.9006e-05	6.9831e-05	1.9102e-05	974.49	7.8405e-07	7.5502e-07	1063.5	207.96	8.0897e-07	7.6616e-07	262.55	73.51	57.066	16.987	7.6756e-07	23.816	99.595	152.731	143.871	84.523	212.708	211.320	84.405	92.092	226.172	221.568	91.469	98.674	98.775	105.784	208.737	105.121	-8191	255	
8528.849	1	1	0	0	0.13513	0.29657	0.12404	0.22187	0.072552	0.12081	0.29046	0.21971	0.31232	0.18721	0.21198	0.21459	0.34313	0.19559	0.0085485	0.077335	-1.75	-2.5187	-2.6437	-2.3958	-2.7917	-2.6667	-2.6833	-2.7313	-2.1958	-2.7438	-2.725	-2.5271	-2.8854	-2.4729	-2.3688	-2.9083	286.383	123.078	112.753	368.513	112.130	75.529	406.059	421.944	183.595	281.231	384.687	406.456	400.257	121.031	316.111	198.869	0.00053343	0.00023783	2.6374e-05	997.87	1.7615e-06	3.3936e-06	1082.6	212.03	3.4509e-06	4.2322e-06	267.52	74.356	58.282	17.017	3.5466e-06	23.722	8.5128e-05	6.9851e-05	1.9409e-05	974.93	7.8603e-07	7.7887e-07	1063.7	208.14	7.7897e-07	7.7657e-07	262.89	73.318	57.127	17.009	7.841e-07	23.795	101.548	135.212	225.567	84.295	185.458	208.739	84.442	91.633	198.788	213.178	91.531	98.629	98.718	105.532	207.354	105.261	-8191	255	
8528.945	1	1	0	0	0.23723	0.17362	0.1402	0.22064	0.2345	0.10811	0.14477	0.27778	0.064378	0.31154	0.10304	0.069342	0.31463	0.28347	0.23636	0.1812	-1.8813	-2.6375	-2.4437	-2.3833	-2.5667	-2.4729	-2.5771	-2.8833	-2.325	-2.7458	-2.7521	-2.275	-2.7562	-2.4479	-2.4375	-2.7979	189.302	356.272	370.527	98.990	270.875	353.231	77.627	393.011	129.625	312.761	330.166	125.944	75.281	297.575	335.622	387.458	0.00056917	0.00029339	5.6302e-05	992.58	2.3001e-06	3.5744e-06	1085.7	211.49	4.0299e-06	2.4555e-06	266.7	74.09	57.889	16.918	3.1579e-06	23.484	8.6353e-05	6.9807e-05	1.9286e-05	973.05	8.0013e-07	7.443e-07	1060.3	207.58	7.7818e-07	7.5758e-07	261.68	73.133	56.69	16.919	7.5611e-07	23.632	95.870	142.936	115.905	84.463	213.643	218.441	84.305	91.941	218.396	201.571	91.045	98.596	98.844	106.094	179.608	104.873	-8191	255	
8529.040	1	1	0	0	0.20502	0.046348	0.10994	0.25652	0.16593	0.21863	0.25731	0.22298	0.024992	0.27959	0.24461	0.17846	0.23797	0.25273	0.087427	0.17684	-1.9354	-2.4646	-2.6833	-2.4688	-2.6292	-2.4354	-2.5042	-2.9813	-2.3438	-2.6375	-2.7708	-2.5458	-2.6333	-2.6229	-2.5083	-2.9708	199.723	315.262	346.295	116.165	276.778	386.169	386.593	402.374	404.139	338.533	375.017	394.839	402.479	131.088	266.679	111.114	0.00054745	0.00031425	5.7513e-05	991.58	3.15e-06	2.0762e-06	1090.2	209.85	3.9171e-06	7.1995e-07	269.33	73.77	57.905	16.917	1.256e-06	23.728	8.6611e-05	6.7802e-05	1.8726e-05	969.13	7.87e-07	7.2908e-07	1060.1	206.95	7.924e-07	7.4953e-07	261.92	73.027	56.809	16.919	7.768e-07	23.732	99.529	143.976	186.017	84.396	186.321	209.418	84.403	91.916	200.644	128.411	91.533	98.624	99.104	105.516	182.473	104.762	-8191	255	
8529.136	1	1	0	0	0.12708	0.24005	0.0020299	0.31905	0.090812	0.24902	0.2313	0.10742	0.21541	0.22255	0.19228	0.19785	0.097822	0.17478	0.071386	0.1655	-1.9583	-2.3646	-2.6917	-2.4958	-2.6667	-2.6479	-2.4604	-2.9188	-2.5167	-2.4521	-3.0229	-2.3646	-2.6437	-2.7562	-2.2271	-2.8479	405.180	130.399	180.000	336.039	253.275	158.358	406.427	309.335	308.266	258.837	300.163	375.542	317.434	232.301	414.769	359.113	0.00053522	0.00011455	5.1842e-05	992.78	2.9296e-06	3.9604e-06	1081.3	210.21	1.9436e-06	3.1574e-06	267.43	74.365	58.091	16.861	1.9594e-06	23.622	8.3334e-05	6.8295e-05	1.8778e-05	970.96	8.0571e-07	7.3722e-07	1058.7	206.93	7.6452e-07	7.6238e-07	262.06	73.236	56.891	16.865	7.5598e-07	23.667	97.917	132.199	86.410	84.483	203.006	233.157	84.559	91.960	208.255	237.055	91.355	98.319	98.907	106.018	234.177	105.023	-8191	255	
8529.232	1	1	0	0	0.17291	0.20029	0.26113	0.15241	0.26351	0.13611	0.24128	0.35946	0.25586	0.21299	0.22532	0.19303	0.14732	0.066348	0.24024	0.30253	-2.025	-2.3833	-2.8458	-2.2333	-2.6917	-2.6396	-2.3688	-2.8063	-2.6937	-2.3771	-2.9271	-2.3771	-2.5208	-2.6729	-2.1708	-2.65	85.825	161.489	425.088	77.807	160.637	384.663	306.639	364.947	293.061	359.383	353.420	419.066	304.249	414.785	90.990	371.122	0.00059594	0.00021171	8.7838e-05	987.72	4.0433e-06	3.5927e-06	1084.3	211.56	5.1253e-06	2.1948e-06	267.87	74.042	57.873	16.893	2.1973e-06	23.747	8.5329e-05	6.9609e-05	1.9224e-05	968.96	7.9245e-07	7.5931e-07	1059.5	207.6	7.8047e-07	7.6278e-07	261.77	72.927	56.98	16.896	7.7172e-07	23.748	96.767	100.670	148.753	84.360	213.566	229.294	84.595	91.979	217.051	169.417	91.634	98.471	99.116	106.234	230.148	105.190	-8191	255	
8529.353	1	1	0	0	0.20989	0.18726	0.10898	0.23101	0.036635	0.13947	0.32108	0.071259	0.28866	0.21791	0.17353	0.16975	0.22037	0.18895	0.10633	0.14546	-2.15	-2.2687	-2.8042	-2.3312	-2.5563	-2.75	-2.5958	-2.8187	-2.7313	-2.4917	-2.9646	-2.4417	-2.5021	-2.6083	-2.4458	-2.6208	142.143	345.579	341.913	401.224	352.172	123.572	335.794	403.595	74.920	295.706	247.245	316.985	235.686	337.923	304.928	135.076	0.00056029	0.00036408	3.435e-05	992.8	4.7234e-06	1.786e-06	1083	210.97	2.5528e-06	2.2675e-06	266.31	73.941	57.584	16.906	3.4131e-06	23.852	8.5202e-05	6.9011e-05	1.8523e-05	970.51	7.9556e-07	7.351e-07	1059.2	207.05	7.7655e-07	7.5669e-07	261.32	73.109	56.707	16.924	7.8476e-07	23.744	103.909	172.873	201.356	84.345	205.683	218.948	84.354	91.957	218.460	210.509	91.594	98.516	98.285	106.031	174.803	105.651	-8191	255	
8529.449	1	1	0	0	0.16904	0.16013	0.11176	0.25102	0.2847	0.11424	0.38945	0.24909	0.022133	0.1607	0.1679	0.14498	0.17244	0.15288	0.13281	0.22795	-2.0687	-2.2833	-2.7104	-2.5187	-2.4938	-2.7271	-2.6063	-2.6854	-2.5812	-2.4042	-2.9583	-2.6542	-2.4271	-2.675	-2.2458	-2.6188	304.866	419.021	262.826	88.315	232.202	245.777	407.111	377.903	226.864	137.063	138.702	425.804	229.993	192.384	289.388	91.896	0.00047906	0.00030305	6.0065e-05	988.08	2.7468e-06	2.2527e-06	1083.2	211.44	2.4663e-06	3.0609e-06	266.21	74.353	58.005	16.861	1.4454e-06	23.802	8.3877e-05	7.0259e-05	1.8988e-05	969.57	8.12e-07	7.582e-07	1059.4	207.39	7.8276e-07	7.3837e-07	262	73.243	56.928	16.878	7.5943e-07	23.756	96.702	169.887	164.350	84.260	220.630	232.327	84.265	92.275	211.457	192.813	91.046	98.502	99.119	106.369	222.754	104.956	-8191	255	
8529.545	1	1	0	0	0.13246	0.26261	0.025825	0.098887	0.23967	0.215	0.037057	0.12355	0.041677	0.13801	0.27047	0.037936	0.18817	0.17471	0.26593	0.095636	-2.275	-2.4313	-2.6562	-2.7562	-2.2167	-2.8583	-2.6042	-2.6833	-2.8625	-2.425	-2.8896	-2.6312	-2.3583	-2.8667	-2.4375	-2.4375	232.466	109.401	223.262	414.600	414.881	278.696	78.534	312.318	230.253	431.337	352.338	208.742	395.629	231.462	291.832	88.931	0.00056358	0.00044031	5.9508e-05	994.27	3.18e-06	2.1576e-06	1083.8	210.87	2.3371e-06	2.0055e-06	266.89	74.143	57.672	16.932	1.2409e-06	23.662	8.4416e-05	6.9201e-05	1.8465e-05	972.39	7.7786e-07	7.3368e-07	1060.7	206.89	7.7672e-07	7.6478e-07	261.9	73.101	56.854	16.947	7.3922e-07	23.684	98.104	139.914	151.300	84.490	213.831	249.591	84.207	92.013	263.970	219.570	91.184	98.272	98.990	105.991	228.669	105.015	-8191	255	
8529.666	1	1	0	0	0.21531	0.11506	0.069694	0.28654	0.12965	0.17335	0.25503	0.028945	0.16688	0.32411	0.19657	0.18362	0.16205	0.18968	0.14837	0.18262	-2.1937	-2.3208	-2.6458	-2.7854	-2.4042	-2.6875	-2.4313	-2.5375	-2.6875	-2.3854	-2.6333	-2.6479	-2.45	-2.7292	-2.5542	-2.4104	378.813	384.450	230.824	388.902	280.318	80.786	399.384	204.835	166.146	148.743	317.985	87.601	242.773	99.995	260.334	372.251	0.00051144	0.00031728	5.6641e-05	990.83	2.6523e-06	3.1277e-06	1085.1	212.52	1.6336e-06	3.3967e-06	266.27	74.924	57.808	16.934	3.4226e-06	23.772	8.3935e-05	7.1767e-05	1.882e-05	970.73	8.0321e-07	7.3412e-07	1059.2	207.58	7.9033e-07	7.4028e-07	261.62	73.204	56.834	16.902	7.7384e-07	23.734	103.314	151.259	134.338	84.236	234.590	221.742	84.495	91.656	205.221	239.408	91.391	98.322	98.667	106.012	196.470	105.297	-8191	255	
8529.737	1	1	0	0	0.24939	0.11671	0.12327	0.23746	0.26505	0.069434	0.25921	0.25112	0.10509	0.19788	0.10077	0.0091715	0.22981	0.081263	0.24028	0.048495	-2.2292	-2.1708	-2.4542	-2.575	-2.2271	-2.6562	-2.4875	-2.3604	-2.5792	-2.3354	-2.6813	-2.6	-2.4146	-2.6833	-2.4188	-2.3375	156.200	399.518	200.422	407.902	137.463	229.119	387.228	187.387	111.978	357.836	405.065	88.790	391.659	289.491	281.350	412.070	0.00054174	0.00043703	4.8703e-05	994.27	8.7405e-07	1.6106e-06	1086.4	212.19	4.5178e-06	2.0715e-06	267.01	73.687	58.197	16.992	2.7637e-06	23.76	8.5009e-05	6.6796e-05	1.8908e-05	972.47	7.9205e-07	7.3842e-07	1062	207.6	7.8355e-07	7.7096e-07	261.88	73.089	56.913	16.961	7.6243e-07	23.748	95.644	161.960	121.730	84.137	165.091	165.141	84.426	92.108	250.510	208.761	91.332	98.365	98.440	106.166	218.258	105.110	-8191	255	
8529.833	1	1	0	0	0.046242	0.16617	0.16484	0.21408	0.050721	0.08211	0.30963	0.16924	0.12321	0.2722	0.26204	0.15095	0.17679	0.077713	0.068004	0.25785	-2.4062	-2.5167	-2.5729	-2.8271	-2.2458	-2.6021	-2.7729	-2.2979	-2.8854	-2.4437	-2.6021	-2.8	-2.3771	-2.6979	-2.425	-2.3937	328.607	344.316	278.795	97.567	211.920	241.241	84.585	262.749	330.780	279.186	377.629	185.917	132.817	74.453	158.683	419.101	0.00043996	0.00040188	4.7739e-05	993.21	1.8849e-06	1.9716e-06	1088.9	210.5	5.7529e-06	4.5851e-06	267.3	74.16	58.199	16.999	3.393e-06	23.776	8.3573e-05	6.7685e-05	1.9352e-05	971.75	7.6806e-07	7.5453e-07	1061.4	207.15	8.0672e-07	7.7207e-07	261.94	73.167	57.062	16.977	7.8459e-07	23.774	99.469	145.726	164.138	84.532	235.855	225.754	84.302	91.914	257.619	226.658	91.448	98.633	98.985	106.026	198.604	105.469	-8191	255	
8529.930	1	1	0	0	0.053231	0.15434	0.024594	0.033715	0.22794	0.21949	0.10091	0.37809	0.099655	0.18338	0.051224	0.38687	0.2233	0.029163	0.22446	0.14438	-2.2313	-2.4458	-2.2542	-2.8125	-2.3646	-2.7062	-2.7229	-2.4021	-2.7521	-2.4979	-2.4125	-2.8187	-2.3646	-2.6125	-2.6646	-2.3208	101.117	92.251	190.013	431.907	221.288	155.035	305.795	354.192	409.009	379.316	142.721	287.376	378.458	104.782	350.991	308.764	0.00046976	0.00031068	7.2488e-05	992.7	2.3651e-06	2.7648e-06	1084.5	211.86	1.7078e-06	2.2616e-06	268.41	74.045	57.938	16.892	1.812e-06	23.717	8.6264e-05	7.0627e-05	1.9436e-05	971.8	7.924e-07	7.436e-07	1060.3	207.84	7.7025e-07	7.5704e-07	262.06	72.994	56.764	16.918	7.9126e-07	23.737	96.910	161.396	145.125	84.334	197.128	224.891	84.506	91.954	195.706	199.485	91.420	98.621	98.931	105.682	247.452	105.416	-8191	255	
8530.048	1	1	0	0	0.11374	0.16029	0.20264	0.29589	0.28191	0.053445	0.32011	0.13731	0.37468	0.23163	0.17071	0.20375	0.10493	0.16474	0.075868	0.12798	-2.2875	-2.5667	-2.275	-2.8958	-2.3479	-2.6	-2.6979	-2.3479	-2.6125	-2.5708	-2.4396	-2.7708	-2.4813	-2.6375	-2.7375	-2.2604	420.939	230.967	202.894	429.073	299.482	153.668	360.800	357.665	171.893	377.046	220.302	392.908	382.689	244.143	85.851	358.362	0.00046178	0.00026547	7.5278e-05	993.85	3.6424e-06	1.9197e-06	1082.9	211.17	3.7127e-06	2.7805e-06	266.94	74.75	57.742	16.916	2.3489e-06	23.863	8.4389e-05	7.1237e-05	1.859e-05	970.92	7.783e-07	7.5484e-07	1059.6	207.23	7.5651e-07	7.5909e-07	261.7	73.19	56.821	16.906	7.6805e-07	23.712	100.129	167.321	169.938	84.565	252.313	173.179	84.159	92.094	231.250	227.887	91.237	98.349	98.622	106.156	212.525	105.322	-8191	255	
8530.145	1	1	0	0	0.20162	0.1492	0.21475	0.26171	0.19485	0.35216	0.15617	0.12414	0.022658	0.022664	0.31813	0.11385	0.23223	0.20146	0.25819	0.27137	-2.3438	-2.7104	-2.2708	-2.7729	-2.4833	-2.4917	-2.7083	-2.3063	-2.7979	-2.55	-2.4375	-2.7792	-2.3958	-2.5958	-2.7583	-2.3604	425.454	285.963	407.837	338.230	227.360	265.444	415.802	118.183	433.720	116.895	410.611	389.967	403.455	342.639	340.026	310.678	0.00054286	0.00033428	3.8806e-05	995.26	2.4368e-06	3.367e-06	1083.1	211.12	4.0953e-06	3.0063e-06	266.62	74.056	57.803	16.814	3.8297e-06	23.801	8.3511e-05	6.935e-05	1.9488e-05	973.14	7.6217e-07	7.6604e-07	1059.9	207.22	7.8483e-07	7.5873e-07	261.7	72.882	56.874	16.898	7.4921e-07	23.713	94.912	176.217	154.560	84.487	218.961	241.671	84.472	91.970	225.580	212.449	91.192	98.922	98.656	105.582	207.797	104.980	-8191	255	
8530.241	1	1	0	0	0.285	0.15598	0.1966	0.31538	0.18082	0.086671	0.32844	0.37888	0.15244	0.22435	0.20882	0.11687	0.13575	0.016262	0.25932	0.23237	-2.1958	-2.7167	-2.4875	-2.8521	-2.525	-2.4604	-2.9771	-2.4604	-2.6937	-2.7625	-2.4313	-2.8167	-2.5292	-2.5604	-2.7729	-2.3792	135.516	117.636	194.463	409.702	85.260	209.451	368.355	123.512	359.116	237.198	330.005	384.475	404.479	154.044	216.802	421.408	0.00045912	0.00021444	6.821e-05	996	3.4672e-06	1.1959e-06	1078.3	211.88	2.8967e-06	2.2561e-06	268.65	74.282	57.999	16.949	2.001e-06	23.636	8.2187e-05	7.0166e-05	1.92e-05	972.17	7.9653e-07	7.7139e-07	1058.3	207.73	7.5726e-07	7.6634e-07	262.39	73.218	56.953	16.965	7.5929e-07	23.7	96.215	210.864	136.584	84.446	194.925	251.995	84.296	92.081	200.540	203.543	91.705	98.887	98.647	106.078	264.074	105.603	-8191	255	
8530.312	1	1	0	0	0.18637	0.23407	0.12772	0.22125	0.23134	0.15922	0.3838	0.2816	0.20389	0.14154	0.10795	0.5151	0.12385	0.056893	0.32714	0.121	-2.1583	-2.6875	-2.2708	-2.8667	-2.5208	-2.3958	-2.9833	-2.3042	-2.5333	-2.9708	-2.325	-2.5333	-2.6312	-2.3375	-2.6729	-2.3688	131.289	334.766	329.017	393.264	231.912	283.014	355.430	330.471	219.197	375.091	423.043	405.119	114.453	86.564	354.602	326.700	0.00051544	0.00011189	6.3763e-05	991.69	2.3437e-06	3.9497e-06	1083.5	210.8	2.5287e-06	2.7752e-06	266.44	74.271	58.144	16.907	3.9243e-06	23.717	8.5571e-05	6.9487e-05	1.8663e-05	970.67	7.902e-07	7.5094e-07	1060.1	207.35	7.8245e-07	7.3952e-07	261.55	73.121	57	16.912	7.7623e-07	23.722	92.902	141.793	182.621	84.329	223.541	226.432	84.374	92.212	244.514	216.668	91.437	98.390	98.829	105.887	203.104	105.233	-8191	255	
8530.433	1	1	0	0	0.24335	0.13185	0.10413	0.23533	0.21289	0.19283	0.15189	0.11176	0.075332	0.035028	0.10137	0.12447	0.37179	0.13919	0.17779	0.13905	-1.8208	-2.6188	-2.2938	-2.7062	-2.6	-2.3729	-2.8354	-2.5062	-2.5271	-2.4104	-2.2958	-2.6937	-2.7167	-2.3375	-2.75	-2.4417	334.732	428.724	124.692	74.872	300.598	239.906	337.153	395.538	231.154	227.832	100.996	214.721	94.503	99.463	189.576	77.524	0.00051957	0.00030465	2.3459e-05	990.65	2.0872e-06	4.6205e-06	1082.3	211.71	3.0179e-06	1.3188e-06	266.88	73.888	58.11	16.973	4.921e-06	23.925	8.3042e-05	6.6913e-05	1.8687e-05	970.64	7.8225e-07	7.7657e-07	1061.8	207.26	7.7435e-07	7.2854e-07	261.88	73.067	56.934	16.895	7.6831e-07	23.756	101.470	158.560	257.219	84.471	215.744	208.536	84.281	91.911	268.239	247.189	91.671	98.250	98.885	105.743	201.213	105.288	-8191	255	
8530.529	1	1	0	0	0.1255	0.053604	0.30375	0.3621	0.22385	0.16546	0.2096	0.18415	0.15872	0.14896	0.065933	0.23764	0.14586	0.12096	0.12044	0.20926	-2.0062	-2.6167	-2.4104	-2.825	-2.6667	-2.2792	-2.9062	-2.5479	-2.1896	-2.7479	-2.3229	-2.6708	-2.7667	-2.2208	-2.6979	-2.5354	224.530	248.066	422.018	354.702	155.996	178.570	326.655	392.970	81.201	169.810	181.472	338.913	417.595	159.369	198.944	411.383	0.00050874	0.00014087	4.9248e-05	989.98	3.83e-06	3.1495e-06	1087.7	211.17	2.7573e-06	1.7936e-06	268.27	73.768	58.034	16.939	3.5049e-06	23.65	8.2114e-05	6.9544e-05	1.9336e-05	970.91	8.0101e-07	7.3381e-07	1060.7	207.39	8.0505e-07	7.6692e-07	262.29	73.036	56.847	16.878	7.6442e-07	23.685	98.228	109.331	221.130	84.257	206.279	185.583	84.559	92.242	256.240	235.696	91.275	98.794	98.644	105.861	213.520	105.274	-8191	255	
8530.625	1	1	0	0	0.40774	0.091253	0.13304	0.121	0.017693	0.12707	0.01914	0.025165	0.18102	0.079699	0.13389	0.20506	0.24666	0.12552	0.18356	0.073435	-1.8625	-2.675	-2.2146	-2.4854	-2.6021	-2.2833	-2.7208	-2.5896	-2.3083	-3.0187	-2.5542	-2.4375	-2.5646	-2.3937	-2.6833	-2.6	260.190	205.267	425.024	379.849	424.620	403.193	411.129	342.698	324.177	118.292	430.143	389.585	315.314	106.602	171.420	263.732	0.00051508	0.00019171	5.1796e-05	992.5	1.3443e-06	2.154e-06	1085.1	212.22	4.1753e-06	3.3211e-06	266.7	74.321	58.197	16.865	1.1379e-06	23.728	8.7904e-05	6.914e-05	1.9418e-05	971.93	7.7307e-07	7.4948e-07	1059.5	207.8	7.7642e-07	7.7123e-07	261.5	73.146	56.826	16.938	7.378e-07	23.724	103.827	136.611	187.629	84.421	246.499	224.671	84.303	91.842	173.277	239.245	91.289	98.180	98.692	106.044	252.041	105.304	-8191	255	
8530.746	1	1	0	0	0.11428	0.057539	0.11366	0.21672	0.044055	0.17593	0.14016	0.038936	0.11781	0.11138	0.26147	0.1179	0.12552	0.28452	0.28217	0.051225	-1.6917	-2.7167	-2.2854	-2.5563	-2.7625	-2.325	-2.5958	-2.4646	-2.3229	-2.8292	-2.3583	-2.3979	-2.7313	-2.2167	-2.5062	-2.5583	425.621	411.192	88.286	433.801	168.991	313.907	280.052	191.556	302.051	172.014	87.124	386.782	344.325	322.594	144.979	418.374	0.00047786	0.00015152	1.5339e-05	991.38	3.5638e-06	3.0193e-06	1086.9	210.06	3.6121e-06	2.1324e-06	266.43	74.159	57.48	16.894	2.1813e-06	23.706	8.4717e-05	6.5556e-05	1.8496e-05	971.46	7.7285e-07	7.6613e-07	1061.2	206.91	7.6818e-07	7.5371e-07	261.44	73.171	56.791	16.927	7.8056e-07	23.761	97.102	155.936	115.280	84.305	221.131	224.544	84.396	91.996	225.829	258.389	91.274	98.274	98.675	105.973	247.264	105.215	-8191	255	
8530.840	1	1	0	0	0.10836	0.012126	0.018487	0.29912	0.12704	0.17481	0.17457	0.29384	0.12714	0.0088941	0.13474	0.33931	0.37311	0.24017	0.25427	0.25961	-1.7833	-2.4083	-2.4375	-2.6188	-2.7417	-2.4813	-2.6667	-2.4938	-2.2625	-2.6688	-2.525	-2.3146	-2.8917	-2.3125	-2.3729	-2.6479	261.408	394.670	87.261	408.383	262.129	418.094	175.768	375.016	412.006	175.562	76.090	387.156	167.901	384.502	363.840	351.634	0.00053268	0.00022435	7.5515e-05	991.24	3.837e-06	1.9411e-06	1080.9	211.51	4.3519e-06	2.8366e-06	268.03	74.413	58.153	16.934	1.202e-06	23.796	8.4978e-05	6.5333e-05	1.8808e-05	970.52	7.6696e-07	7.4661e-07	1059.3	207.56	7.9443e-07	7.5971e-07	262.03	73.205	56.997	16.937	7.8339e-07	23.814	105.479	200.633	177.649	84.473	227.618	236.381	84.268	91.805	224.931	258.972	91.553	98.518	98.830	105.729	161.999	104.853	-8191	255	
8530.937	1	1	0	0	0.071951	0.12441	0.14554	0.28253	0.16597	0.054333	0.17931	0.24338	0.064954	0.26885	0.095856	0.09395	0.47174	0.10334	0.24793	0.14296	-1.8229	-2.625	-2.5812	-2.5396	-2.7667	-2.2604	-2.6042	-2.8958	-2.2354	-2.6229	-2.3875	-2.2625	-2.6396	-2.4708	-2.6729	-2.8229	185.532	311.937	395.779	411.502	325.529	202.209	79.693	349.522	257.271	187.937	432.246	208.459	355.480	231.782	185.730	382.792	0.00054031	0.00028741	3.8771e-05	992.51	3.4642e-06	1.4784e-06	1085.2	209.65	5.2283e-06	1.8609e-06	266.43	74.052	57.881	16.952	2.3032e-06	23.805	8.5979e-05	6.834e-05	1.9984e-05	970.39	7.8985e-07	7.4466e-07	1060.8	206.75	8.0597e-07	7.8915e-07	262.25	73.042	56.846	16.905	7.6889e-07	23.726	105.188	157.455	157.227	84.284	174.521	220.475	84.424	92.267	233.400	169.502	91.183	98.413	98.788	105.882	229.648	105.007	-8191	255	
8531.034	1	1	0	0	0.32095	0.0094896	0.28631	0.22554	0.42718	0.13577	0.18461	0.28982	0.18024	0.23025	0.15314	0.072161	0.11354	0.23607	0.046524	0.25277	-1.8708	-2.55	-2.6708	-2.45	-2.4958	-2.4292	-2.4729	-2.9104	-2.4417	-2.6833	-2.675	-2.3146	-2.7771	-2.4292	-2.4354	-2.9146	329.292	194.669	298.588	377.675	216.555	326.994	315.985	80.216	158.623	247.344	305.815	250.889	140.422	362.183	179.172	94.590	0.0005755	0.00032464	0.00012811	993.07	2.9632e-06	3.7752e-06	1079.3	211.25	2.5354e-06	2.7158e-06	266.37	74.14	57.597	16.841	2.7022e-06	23.708	8.4374e-05	6.7447e-05	1.8697e-05	971.46	7.7281e-07	7.3917e-07	1057.9	206.81	7.843e-07	7.2169e-07	261.75	73.088	56.67	16.88	7.7773e-07	23.718	104.818	196.887	147.273	84.601	177.225	197.937	84.483	92.041	279.082	210.207	91.283	98.837	98.679	105.747	192.572	105.268	-8191	255	
8531.129	1	1	0	0	0.18954	0.079043	0.14233	0.10279	0.27942	0.15943	0.14695	0.12754	0.22257	0.13356	0.11816	0.22954	0.023098	0.24277	0.14583	0.10407	-1.5604	-2.3563	-2.5187	-2.3187	-2.6437	-2.6021	-2.3375	-2.9979	-2.4292	-2.4333	-2.8187	-2.2375	-2.6583	-2.5875	-2.2229	-2.9	352.639	259.770	311.665	423.733	308.015	115.975	370.636	319.272	275.326	371.336	368.774	319.642	407.967	294.584	182.044	175.958	0.00059852	0.00027286	9.1305e-05	991.42	3.9884e-06	2.3404e-06	1085.3	210.29	3.9866e-06	2.7805e-06	266.65	74.334	57.722	16.905	2.9079e-06	23.796	8.37e-05	6.7467e-05	1.9426e-05	969.79	7.718e-07	7.7077e-07	1060.9	207.07	7.7919e-07	7.5033e-07	261.42	73.044	56.75	16.909	7.7649e-07	23.698	99.931	126.386	178.698	84.425	211.035	196.270	84.504	92.078	223.281	199.784	91.323	98.590	98.872	106.127	212.793	105.234	-8191	255	
8531.225	1	1	0	0	0.086975	0.25096	0.09426	0.044818	0.041342	0.067524	0.2388	0.28131	0.29739	0.096416	0.14156	0.060413	0.087503	0.064564	0.12737	0.076673	-2.0542	-2.3937	-2.6271	-2.5146	-2.6417	-2.6854	-2.3646	-2.8792	-2.2687	-2.5938	-2.7604	-2.1271	-2.6979	-2.5542	-2.25	-2.9021	315.664	115.727	118.435	318.583	192.991	245.295	417.866	407.740	187.362	156.083	135.788	408.475	102.456	205.815	426.609	340.658	0.00053348	0.00032458	5.889e-05	991.97	4.132e-06	4.0743e-06	1089.6	211.8	3.4886e-06	2.7245e-06	265.51	74.303	57.7	16.986	3.2532e-06	23.926	8.6599e-05	6.9859e-05	1.8785e-05	973.12	7.7421e-07	7.4709e-07	1060.7	207.16	7.7316e-07	7.7225e-07	262.08	73.167	56.777	16.946	7.7313e-07	23.73	93.473	134.097	141.799	84.455	196.801	181.417	84.322	91.904	212.359	225.774	91.405	98.775	98.787	106.245	201.738	105.156	-8191	255	
8531.346	1	1	0	0	0.063035	0.36947	0.20769	0.1535	0.15637	0.04541	0.08748	0.03493	0.19081	0.091186	0.23901	0.082069	0.12049	0.15523	0.1201	0.17152	-2.2	-2.1125	-2.9	-2.3937	-2.5521	-2.7625	-2.5812	-2.6979	-2.3458	-2.3792	-2.8688	-2.3563	-2.4542	-2.7333	-2.2333	-2.7208	138.370	335.503	415.634	378.926	147.613	99.469	333.208	423.778	258.023	317.114	84.813	158.652	378.235	114.561	173.458	208.821	0.0004956	0.0002536	9.3653e-05	990.11	3.6278e-06	1.8114e-06	1087	209.86	3.5894e-06	1.4377e-06	267.13	74.266	57.342	17.02	2.5462e-06	23.843	8.3223e-05	6.9225e-05	1.8877e-05	970.16	7.9974e-07	7.5891e-07	1061.7	206.98	7.8042e-07	7.7007e-07	262.14	72.967	56.711	16.965	7.9785e-07	23.789	103.951	139.586	154.199	84.170	192.627	179.051	84.347	92.172	214.898	175.793	91.414	98.078	98.839	106.070	208.948	105.372	-8191	255	
8531.442	1	1	0	0	0.18097	0.10445	0.10933	0.064274	0.25174	0.03248	0.25916	0.13696	0.024485	0.22848	0.16637	0.26606	0.035059	0.1296	0.21396	0.27532	-2.0021	-2.2854	-2.7313	-2.4729	-2.5542	-2.6	-2.4375	-2.6312	-2.5375	-2.2771	-2.7333	-2.3625	-2.5104	-2.7542	-2.3292	-2.625	132.676	341.671	129.554	216.778	383.440	148.026	352.215	381.351	98.230	415.250	332.890	402.289	251.786	324.585	224.982	345.221	0.00056036	0.00029198	7.0732e-05	991.08	2.4093e-06	3.7862e-07	1082.2	210.66	2.7085e-06	1.8158e-06	267.68	74.395	57.863	17.012	2.4755e-06	23.555	8.5702e-05	6.969e-05	1.8896e-05	970.3	7.899e-07	7.3337e-07	1059.5	207.03	7.5783e-07	7.3521e-07	262.13	73.056	56.702	16.923	7.7384e-07	23.629	101.319	139.871	212.512	84.247	236.562	165.388	84.510	91.951	213.712	181.825	91.012	98.585	98.719	105.982	242.465	105.437	-8191	255	
8531.538	1	1	0	0	0.1059	0.35744	0.070851	0.17936	0.10012	0.21426	0.24998	0.32168	0.075046	0.15968	0.040289	0.096164	0.20312	0.1065	0.06267	0.079834	-2.175	-2.1875	-2.6792	-2.5625	-2.5687	-2.8625	-2.4354	-2.625	-2.6167	-2.2917	-2.9167	-2.4813	-2.6021	-2.6813	-2.275	-2.525	260.978	314.527	110.354	89.354	127.063	321.605	410.527	354.960	187.821	284.735	167.464	103.272	317.848	220.610	432.118	383.954	0.00051147	0.00022087	7.7795e-05	995.05	3.0564e-06	2.6544e-06	1089	211.19	3.4209e-06	2.8492e-06	267.32	74.493	57.812	16.948	2.9132e-06	23.765	8.5641e-05	6.8792e-05	1.904e-05	972.14	8.0391e-07	7.4599e-07	1060.1	207.25	7.8069e-07	7.4521e-07	261.57	73.1	56.832	16.895	7.378e-07	23.755	90.696	144.605	158.999	83.981	237.746	234.279	84.202	92.057	263.783	207.429	91.311	98.615	98.811	105.914	259.037	105.507	-8191	255	
8531.610	1	1	0	0	0.15701	0.26359	0.25189	0.19013	0.2696	0.25267	0.1536	0.068925	0.20687	0.027668	0.097237	0.22296	0.23092	0.037185	0.23453	0.19096	-2.1708	-2.2125	-2.5083	-2.6292	-2.2854	-2.8604	-2.4479	-2.6708	-2.6375	-2.3604	-2.7167	-2.5312	-2.3417	-2.7021	-2.6542	-2.5812	179.150	300.534	153.317	358.376	164.169	412.925	146.301	83.326	188.012	79.776	421.900	431.767	179.102	377.642	157.657	393.247	0.00055651	0.00021841	0.00010514	992.55	3.4114e-06	1.0573e-06	1086.5	210.78	3.7795e-06	3.2395e-06	267.19	74.452	58.443	16.94	3.5427e-06	23.704	8.5051e-05	6.8461e-05	1.9656e-05	970.26	8.0114e-07	7.4351e-07	1060.8	207.17	7.9553e-07	7.4401e-07	261.96	73.11	56.932	16.955	7.4055e-07	23.708	95.698	129.438	154.360	84.355	192.509	225.293	84.352	92.144	245.205	188.395	91.348	98.544	99.029	105.772	183.458	105.221	-8191	255	
8531.730	1	1	0	0	0.1579	0.28584	0.12693	0.233	0.37699	0.29061	0.35685	0.10068	0.072411	0.04459	0.22658	0.055963	0.14513	0.37654	0.11223	0.11962	-2.3	-2.1479	-2.7396	-2.6146	-2.4646	-2.8771	-2.5917	-2.5979	-2.7646	-2.2979	-2.6146	-2.8979	-2.3771	-2.7562	-2.4583	-2.4313	396.022	422.744	312.629	82.664	131.620	335.578	365.676	387.423	147.760	184.363	263.870	302.602	178.872	369.888	365.467	335.174	0.00057078	0.00027604	7.0805e-05	992.57	3.441e-06	3.2583e-06	1087.4	211.53	5.0813e-06	3.0959e-06	267.75	74.291	57.672	16.958	2.0278e-06	23.746	8.6445e-05	6.84e-05	1.935e-05	970.77	7.6547e-07	7.5351e-07	1062.2	207.37	7.5351e-07	7.4513e-07	261.96	72.969	56.737	16.934	7.7061e-07	23.702	102.000	86.663	174.269	84.268	210.140	226.416	84.559	91.938	225.566	198.149	91.255	98.243	98.799	105.681	194.779	105.251	-8191	255	
8531.826	1	1	0	0	0.10793	0.28242	0.19213	0.23556	0.10917	0.1325	0.12045	0.20792	0.034433	0.23948	0.10155	0.30072	0.090904	0.081879	0.32033	0.15237	-2.4021	-2.3833	-2.5854	-2.7104	-2.4188	-2.8	-2.7104	-2.4667	-2.7083	-2.4479	-2.6437	-2.8042	-2.2146	-2.6917	-2.4771	-2.4896	286.638	262.580	347.874	416.496	219.197	317.855	341.399	424.794	376.438	264.086	269.481	424.770	265.749	403.509	302.024	155.011	0.000554	0.00032817	8.8987e-05	994.5	2.9773e-06	1.5197e-06	1080.7	211.4	4.3209e-06	2.5397e-06	266.95	73.771	57.744	17.032	1.8846e-06	23.576	8.4054e-05	6.8946e-05	1.9135e-05	969.25	7.9517e-07	7.432e-07	1059.1	207.32	7.8368e-07	7.4704e-07	261.54	72.814	56.763	16.941	7.6288e-07	23.703	98.733	175.219	178.787	84.109	202.055	188.997	84.378	91.809	244.989	252.769	91.545	98.358	98.848	105.553	201.986	105.145	-8191	255	
8531.923	1	1	0	0	0.12765	0.20277	0.074255	0.18902	0.13878	0.17288	0.087361	0.11681	0.34211	0.12616	0.47246	0.14776	0.39013	0.33113	0.024981	0.011148	-2.3979	-2.2188	-2.4792	-2.6917	-2.3812	-2.75	-2.6063	-2.3833	-2.8229	-2.4333	-2.5979	-2.7208	-2.2667	-2.4896	-2.6167	-2.3833	77.384	204.657	421.982	421.218	238.223	375.199	222.399	116.660	253.851	168.275	352.253	127.385	376.878	347.336	388.015	420.900	0.00051383	0.00020166	5.7552e-05	994.22	3.457e-06	2.2196e-06	1083.3	211.63	3.589e-06	3.679e-06	268.08	74.541	58.135	16.894	3.2954e-06	23.702	8.3997e-05	6.9726e-05	1.9048e-05	971.56	7.9798e-07	7.3134e-07	1061.4	207.37	7.7025e-07	7.8573e-07	261.89	73.12	56.992	16.927	7.7747e-07	23.728	99.805	189.296	180.836	84.318	194.493	210.195	84.393	91.992	228.693	251.847	91.649	98.659	98.405	106.112	207.731	104.982	-8191	255	
8532.017	1	1	0	0	0.22145	0.031353	0.14242	0.17526	0.094135	0.062017	0.12905	0.22101	0.17716	0.16158	0.049804	0.057925	0.1425	0.25987	0.11852	0.15971	-2.1937	-2.3521	-2.5708	-2.9229	-2.175	-2.6625	-2.7417	-2.3354	-2.8396	-2.45	-2.5479	-2.9146	-2.3354	-2.8104	-2.5312	-2.3333	371.698	372.388	366.292	403.315	363.149	178.736	101.360	336.094	283.392	125.314	263.771	230.689	284.415	82.300	118.281	299.350	0.00054168	0.00014692	8.21e-05	996.12	7.4383e-07	2.6306e-06	1088.7	212.22	3.7012e-06	1.8002e-06	268.85	74.627	58.027	16.832	2.135e-06	23.742	8.4678e-05	7.0457e-05	1.9748e-05	975.21	7.924e-07	7.7206e-07	1062.8	208	8.0077e-07	7.7296e-07	262.85	73.327	57.056	16.949	7.512e-07	23.79	99.265	90.817	171.644	84.223	137.702	182.743	84.030	91.822	204.232	174.138	91.273	98.599	98.589	105.991	245.492	105.016	-8191	255	
8532.138	1	1	0	0	0.30001	0.37877	0.27009	0.043812	0.11782	0.068011	0.15723	0.12792	0.25049	0.061218	0.039231	0.11582	0.13209	0.094017	0.096849	0.2249	-2.3521	-2.5812	-2.4521	-2.8688	-2.3688	-2.6063	-2.9083	-2.3958	-2.8083	-2.5792	-2.6875	-2.7729	-2.5104	-2.5042	-2.7354	-2.3604	303.297	287.849	331.937	354.136	402.772	178.284	385.082	136.504	198.988	431.130	342.923	304.676	367.979	240.201	159.003	251.081	0.00046786	7.2746e-05	8.9551e-05	995.57	2.7367e-06	2.6402e-06	1092	211.59	1.1812e-06	2.0695e-06	266.34	74.668	58.479	16.897	2.8399e-06	23.832	8.2653e-05	6.872e-05	1.9294e-05	974.27	8.1099e-07	7.6458e-07	1065.7	207.9	7.7602e-07	7.7376e-07	262.35	73.42	57.225	16.945	7.5713e-07	23.825	97.566	168.985	207.248	84.389	183.665	231.039	84.308	91.730	199.570	234.345	91.338	98.436	98.415	105.995	233.594	105.374	-8191	255	
8532.209	1	1	0	0	0.057365	0.17997	0.087571	0.14327	0.26733	0.18453	0.23549	0.23245	0.15655	0.17444	0.2438	0.1587	0.17671	0.099907	0.14964	0.14823	-2.2062	-2.6	-2.2083	-2.7958	-2.4583	-2.6125	-2.9271	-2.3417	-2.7583	-2.5396	-2.2292	-2.7313	-2.5833	-2.5229	-2.9062	-2.4979	147.949	112.337	254.479	92.321	219.953	318.254	106.680	318.540	432.595	407.805	388.577	79.229	173.065	429.004	428.852	226.787	0.00056902	0.00027553	1.6561e-05	994.47	1.9888e-06	3.7505e-06	1090.1	210.95	2.3896e-06	2.7127e-06	267.79	74.778	57.983	17.064	1.3537e-06	23.774	8.6318e-05	6.9871e-05	1.8989e-05	973.82	7.8014e-07	7.6303e-07	1064.5	207.94	7.8963e-07	7.7852e-07	262.43	73.432	56.891	17.043	7.7313e-07	23.787	97.598	126.700	191.136	84.473	211.947	262.228	84.409	92.001	230.782	236.643	91.222	98.278	98.597	105.738	192.814	104.935	-8191	255	
8532.305	1	1	0	0	0.19624	0.14614	0.16846	0.31713	0.14397	0.04922	0.22641	0.16945	0.25091	0.17248	0.11889	0.080188	0.079622	0.25615	0.11781	0.014652	-2.1167	-2.725	-2.1896	-2.7792	-2.5417	-2.4188	-2.875	-2.3229	-2.5625	-2.6625	-2.3708	-2.9958	-2.4729	-2.3646	-2.7188	-2.4771	78.584	163.412	280.988	419.922	321.641	92.489	307.716	392.764	171.845	409.172	309.820	354.453	252.125	341.597	174.111	138.468	0.00048351	0.00022782	6.6276e-05	995.42	2.9583e-06	3.0694e-06	1088.9	210.7	4.489e-06	2.9091e-06	266.68	74.208	58.056	16.993	2.9918e-06	24.01	8.4605e-05	7.0372e-05	1.9808e-05	976.3	8.192e-07	7.7153e-07	1065.7	207.89	7.9126e-07	7.4895e-07	262.36	73.305	57.16	17.017	7.8839e-07	23.886	96.517	125.587	191.388	84.078	200.463	172.718	84.488	92.081	233.499	237.016	91.578	97.913	98.872	106.171	225.321	105.084	-8191	255	
8532.426	1	1	0	0	0.26656	0.28626	0.13946	0.16573	0.076553	0.21354	0.070395	0.1682	0.14201	0.23998	0.076028	0.16153	0.25452	0.23257	0.23347	0.28753	-2.1958	-2.6771	-2.2542	-2.8063	-2.5125	-2.6271	-2.8479	-2.3021	-2.4729	-2.7	-2.4604	-2.7417	-2.5833	-2.4042	-2.8792	-2.4938	279.662	281.093	156.295	113.700	153.025	191.276	427.489	388.988	426.438	148.861	370.786	240.205	128.832	338.785	328.446	84.305	0.00054147	0.00015527	3.3056e-05	997.37	4.0593e-06	9.071e-07	1090.2	211.65	3.4395e-06	2.7071e-06	267.5	74.657	58.199	16.949	2.3568e-06	23.781	8.5417e-05	6.937e-05	1.9199e-05	975.2	8.178e-07	7.6263e-07	1064.8	208.01	7.9566e-07	7.7105e-07	263.04	73.466	57.189	16.982	7.6535e-07	23.828	95.729	183.286	169.378	84.177	210.087	333.458	84.412	91.719	221.341	247.658	91.334	98.373	98.522	105.668	208.343	104.839	-8191	255	
8532.522	1	1	0	0	0.26505	0.13733	0.10852	0.15148	0.12588	0.045815	0.18561	0.12385	0.11051	0.18176	0.13476	0.11239	0.24973	0.26016	0.097575	0.26671	-2.0667	-2.7271	-2.3208	-2.7562	-2.5146	-2.5438	-2.8458	-2.4396	-2.2292	-2.75	-2.375	-2.5104	-2.5333	-2.3125	-2.6292	-2.3312	133.579	250.067	182.813	399.846	299.906	219.818	121.386	424.946	418.213	131.734	80.167	273.008	318.309	394.211	232.350	410.402	0.00057187	0.00033301	2.54e-05	994.58	2.8639e-06	3.7289e-06	1086.2	212.51	3.3512e-06	4.0933e-07	265.97	74.854	57.745	17.005	2.1659e-06	23.88	8.7427e-05	6.9803e-05	1.8938e-05	976.54	7.9144e-07	7.4683e-07	1065.8	208.37	7.8536e-07	7.7167e-07	262.28	73.482	56.995	16.987	7.4855e-07	23.897	97.656	175.513	244.645	84.200	209.819	227.433	84.343	92.000	276.678	387.456	91.383	98.663	99.125	105.711	208.913	105.113	-8191	255	
8532.618	1	1	0	0	0.19551	0.16463	0.1949	0.28281	0.15275	0.15829	0.034592	0.046504	0.12509	0.15838	0.28706	0.25183	0.15696	0.29171	0.22777	0.077686	-2	-2.5917	-2.1125	-2.6063	-2.7958	-2.3396	-2.9042	-2.5396	-2.1792	-2.9042	-2.4208	-2.6146	-2.5979	-2.3083	-2.5396	-2.5375	245.177	271.734	329.238	366.695	144.361	399.858	308.800	113.765	362.063	398.001	361.852	143.522	356.758	367.308	342.907	265.588	0.00051352	0.0004759	7.6226e-05	997.05	1.9018e-06	2.4771e-06	1087.3	211.81	3.8485e-06	2.6706e-06	268.97	74.378	58.223	16.959	3.5524e-06	23.825	8.3727e-05	6.876e-05	2.0063e-05	976.59	8.0049e-07	7.5749e-07	1064.8	208.21	7.9408e-07	7.7897e-07	262.83	73.295	56.978	17.017	7.8941e-07	23.834	100.498	173.859	123.609	84.389	231.246	197.684	84.529	91.746	221.919	194.997	91.190	98.772	98.754	105.981	163.398	105.377	-8191	255	
8532.714	1	1	0	0	0.18381	0.15891	0.16051	0.37394	0.085329	0.072092	0.1677	0.24927	0.11676	0.054752	0.13212	0.29699	0.31183	0.15929	0.1876	0.28255	-1.7146	-2.8063	-2.4521	-2.5417	-2.6917	-2.1333	-2.8292	-2.6875	-2.3271	-2.6646	-2.5563	-2.4396	-2.7521	-2.4667	-2.5958	-2.5354	127.464	195.350	113.728	395.530	312.578	97.876	301.070	333.752	217.199	411.261	385.142	421.293	276.515	95.453	225.605	255.618	0.00050452	0.00030187	9.8862e-05	994.44	1.929e-06	2.5866e-06	1090.4	211.46	2.7566e-06	1.4022e-06	267.98	74.269	58.054	16.985	3.3719e-06	23.887	8.6749e-05	7.0126e-05	1.9498e-05	974.96	7.7663e-07	7.6307e-07	1065.8	208.31	7.8602e-07	7.5184e-07	263	73.229	57.224	16.974	7.4731e-07	23.797	96.780	145.841	161.644	84.367	227.326	247.612	84.548	92.133	189.277	284.909	91.521	98.586	98.679	106.352	233.536	105.498	-8191	255	
8532.835	1	1	0	0	0.21348	0.40713	0.089967	0.084417	0.049821	0.21278	0.24255	0.21476	0.27097	0.057196	0.12438	0.085074	0.18868	0.24305	0.076303	0.067854	-1.7625	-2.6688	-2.3271	-2.5271	-2.6729	-2.2771	-2.8229	-2.5542	-2.3104	-2.7771	-2.4875	-2.3688	-2.775	-2.2708	-2.5042	-2.6792	202.831	175.611	202.693	288.738	339.332	130.647	293.604	412.014	141.909	143.440	368.888	283.828	362.050	368.401	330.947	420.399	0.000503	0.00030622	9.4837e-05	997.65	2.3963e-06	3.0867e-06	1086.2	210.14	6.1256e-06	3.3897e-06	265.63	74.426	58.432	17.022	1.712e-06	23.802	8.6018e-05	6.9366e-05	1.9084e-05	976.51	8.0699e-07	7.7068e-07	1065.2	207.46	8.1808e-07	7.7376e-07	262.1	73.441	57.205	16.999	7.8383e-07	23.83	100.641	173.527	179.339	84.300	216.136	225.367	84.234	91.883	220.571	219.453	91.071	98.410	98.856	105.797	209.514	105.093	-8191	255	
8532.907	1	1	0	0	0.18465	0.35301	0.17526	0.3374	0.23343	0.12149	0.16787	0.086689	0.1667	0.075603	0.086718	0.3542	0.21932	0.14889	0.20501	0.16001	-1.5625	-2.6312	-2.4917	-2.5458	-2.6625	-2.5396	-2.6604	-2.8125	-2.3667	-2.7458	-2.6646	-2.5292	-2.6146	-2.225	-2.4458	-2.9146	225.111	393.323	270.323	353.447	96.934	160.624	403.141	379.861	299.297	298.442	389.850	363.073	386.436	373.035	219.296	119.073	0.00044485	0.00021481	6.7282e-05	1000.9	1.8556e-06	1.5041e-06	1095.1	213.88	3.0731e-06	2.3769e-06	267.32	74.131	58.044	17.161	1.8507e-06	23.793	8.6153e-05	6.7503e-05	1.9341e-05	976	7.8963e-07	7.6515e-07	1067.9	208.43	7.7311e-07	7.5264e-07	262.49	73.342	57.126	17.03	7.6907e-07	23.752	97.603	159.642	157.070	84.507	177.949	251.636	84.494	92.045	241.212	231.592	91.358	98.152	98.881	106.271	251.267	105.336	-8191	255	
8533.003	1	1	0	0	0.3611	0.094376	0.052867	0.3986	0.094321	0.18833	0.26302	0.25095	0.17608	0.13522	0.072183	0.12018	0.24138	0.16294	0.047295	0.17547	-1.8354	-2.6833	-2.5729	-2.4125	-2.7854	-2.3771	-2.7771	-2.7979	-2.1104	-2.6271	-2.5771	-2.3063	-2.7833	-2.3104	-2.5438	-2.6708	322.493	374.283	405.561	119.131	209.215	271.168	96.638	95.987	205.542	343.196	364.394	116.834	391.209	136.624	110.861	337.495	0.00048636	0.00026555	4.7602e-05	994.71	3.3282e-06	3.2741e-06	1091.1	211.74	3.0851e-06	3.2623e-06	266.6	74.737	58.555	17.098	2.6256e-06	23.769	8.5359e-05	6.8728e-05	1.8828e-05	974.09	7.9631e-07	7.7006e-07	1064.8	207.86	7.9791e-07	7.5197e-07	262.36	73.413	57.239	17.006	7.8472e-07	23.806	96.049	147.680	121.938	84.345	214.207	264.805	84.288	91.801	200.043	200.519	91.410	98.441	98.959	106.097	220.058	105.011	-8191	255	
8533.122	1	1	0	0	0.078033	0.32839	0.21806	0.45764	0.22317	0.10915	0.26898	0.21601	0.060589	0.20081	0.20082	0.26888	0.18819	0.1199	0.31833	0.12586	-1.7979	-2.5771	-2.525	-2.375	-2.6917	-2.4625	-2.6208	-2.8812	-2.3708	-2.4896	-2.7646	-2.3625	-2.7979	-2.5667	-2.4396	-2.9125	136.612	361.782	295.657	397.378	230.973	323.223	371.883	136.557	228.727	179.150	316.741	341.797	165.529	111.956	289.630	303.607	0.00053648	0.00021243	2.0404e-05	997.31	2.4485e-06	2.6316e-06	1087.9	211.44	3.3716e-06	1.8273e-06	267.98	74.617	57.882	16.937	2.7761e-06	23.825	8.76e-05	6.9192e-05	1.9402e-05	975	7.7509e-07	7.4417e-07	1065.6	207.67	7.9994e-07	7.518e-07	262.81	73.549	57.042	16.948	7.6663e-07	23.777	100.343	169.979	171.836	84.131	225.473	191.632	84.125	91.713	239.999	179.095	91.112	98.371	98.703	105.986	196.408	105.046	-8191	255	
8533.218	1	1	0	0	0.242	0.17524	0.22554	0.23034	0.097956	0.14872	0.38603	0.081694	0.062138	0.06343	0.19608	0.24728	0.30361	0.16633	0.13796	0.29461	-1.9229	-2.5271	-2.7812	-2.3396	-2.6979	-2.5896	-2.4917	-2.8438	-2.3854	-2.5042	-2.7021	-2.3438	-2.5271	-2.8167	-2.3312	-2.7396	405.265	210.477	331.835	110.013	315.730	375.063	363.748	74.569	142.869	329.635	348.210	418.783	313.471	155.251	191.422	280.896	0.00059321	0.00023177	8.0818e-05	1000.1	3.3778e-06	2.9612e-06	1090.5	212.12	5.0824e-06	2.9985e-06	268.15	74.311	57.916	17.095	4.3936e-06	23.725	8.5159e-05	7.0938e-05	1.9846e-05	974.31	8.0035e-07	7.6117e-07	1064.8	208.11	8.0685e-07	7.4668e-07	261.98	73.243	56.871	16.986	7.7809e-07	23.733	102.985	151.694	170.719	84.364	203.532	188.586	84.429	91.711	186.457	201.295	91.329	98.638	99.162	106.303	281.892	105.258	-8191	255	
8533.314	1	1	0	0	0.060365	0.21854	0.2423	0.13806	0.25762	0.23129	0.27448	0.096541	0.10578	0.23035	0.23398	0.11704	0.10859	0.15535	0.16304	0.17531	-1.8813	-2.3042	-2.7375	-2.5271	-2.5521	-2.4729	-2.3917	-2.6354	-2.4146	-2.3396	-2.8125	-2.2188	-2.6521	-2.7646	-2.3146	-2.7458	74.779	321.578	81.256	370.624	319.179	185.162	304.101	409.529	99.540	127.898	293.720	236.620	353.159	302.814	273.989	266.918	0.00043414	0.00026213	4.8842e-05	996.06	2.659e-06	3.2531e-06	1093.1	211.84	1.8911e-06	3.2199e-06	267.59	74.412	57.724	16.936	1.9474e-06	23.662	8.2699e-05	7.0267e-05	1.8989e-05	974.56	8.2579e-07	7.667e-07	1065.9	208.06	7.9756e-07	7.6269e-07	262.62	73.276	57.006	16.965	7.768e-07	23.721	96.520	205.491	151.580	84.129	184.792	173.058	84.543	92.011	252.008	224.405	91.525	98.182	98.731	105.822	231.017	105.568	-8191	255	
8533.435	1	1	0	0	0.14471	0.09326	0.10385	0.12299	0.1636	0.26849	0.05808	0.10994	0.25203	0.11112	0.2752	0.28176	0.16801	0.10689	0.10842	0.12872	-1.8771	-2.4625	-2.7854	-2.5146	-2.6729	-2.6896	-2.35	-2.8937	-2.4875	-2.5687	-2.975	-2.3937	-2.5917	-2.6896	-2.2271	-2.8438	82.186	191.804	227.311	363.161	350.658	83.975	168.524	329.058	99.238	297.052	373.449	111.780	370.308	361.891	193.374	205.115	0.00051558	0.00029245	7.3486e-05	1000.4	3.1102e-06	2.2659e-06	1096.7	211.45	2.6443e-06	6.7759e-07	268.29	74.258	58.094	16.987	3.1488e-06	23.734	8.7119e-05	7.1625e-05	1.9389e-05	976.56	7.8542e-07	7.594e-07	1066.9	207.77	7.7725e-07	7.7029e-07	262.56	73.248	57.005	16.972	7.7632e-07	23.759	96.054	163.937	155.716	84.402	204.505	219.010	84.395	91.653	254.403	177.014	91.105	98.631	98.683	106.057	179.382	105.493	-8191	255	
8533.506	1	1	0	0	0.24099	0.040423	0.38418	0.09811	0.035295	0.067248	0.31952	0.23224	0.089477	0.21639	0.1464	0.22212	0.37225	0.14505	0.24176	0.024187	-1.9646	-2.3542	-2.4479	-2.3354	-2.6479	-2.6229	-2.4354	-2.7479	-2.5312	-2.2313	-2.8125	-2.4271	-2.5292	-2.6208	-2.4062	-2.6354	134.359	367.693	298.181	372.252	103.784	289.562	396.531	360.773	179.357	120.445	382.917	419.975	111.712	375.568	214.022	275.699	0.00055545	0.00012096	2.9921e-05	1001.1	3.5921e-06	1.7428e-06	1086.7	211.48	5.1751e-06	1.8026e-06	265.41	74.201	58.292	16.875	1.6799e-06	23.742	8.2329e-05	7.0081e-05	1.9861e-05	976.13	8.1103e-07	7.7418e-07	1064	207.48	8.1667e-07	7.7074e-07	261.99	73.152	56.973	16.914	7.8958e-07	23.73	98.299	110.597	146.634	84.339	207.007	244.591	84.153	92.181	210.309	275.731	91.196	98.614	98.864	105.924	234.609	105.168	-8191	255	
8533.603	1	1	0	0	0.12158	0.10501	0.1315	0.13745	0.039674	0.14376	0.13865	0.27283	0.10581	0.17587	0.04697	0.32255	0.36163	0.18276	0.12845	0.019968	-2.2542	-2.3312	-2.8125	-2.6063	-2.2896	-2.8104	-2.5	-2.625	-2.6271	-2.2062	-2.7375	-2.4146	-2.3812	-3.0021	-2.3979	-2.6125	98.388	330.127	168.520	421.372	90.893	381.045	101.114	251.959	160.729	146.639	244.744	401.701	196.665	184.671	364.674	163.703	0.00048495	0.00036441	8.1251e-05	993.11	4.578e-06	2.1722e-06	1084.4	210.72	1.8103e-06	1.216e-06	268.36	74.407	57.595	16.888	1.308e-06	23.832	8.5259e-05	7.211e-05	1.9263e-05	973.1	8.1112e-07	7.5099e-07	1061.5	207.37	7.9188e-07	7.3654e-07	262.35	73.15	56.78	16.89	7.9644e-07	23.792	102.245	160.707	157.322	84.586	215.675	173.374	84.280	92.113	220.072	270.799	91.420	98.555	98.646	106.056	156.415	105.305	-8191	255	
8533.699	1	1	0	0	0.052181	0.037146	0.11811	0.3367	0.10994	0.084309	0.39231	0.064814	0.20323	0.32097	0.19376	0.076293	0.19459	0.123	0.32989	0.093331	-2.2979	-2.2896	-2.6021	-2.5812	-2.3937	-2.8625	-2.3833	-2.8146	-2.5354	-2.3729	-2.6354	-2.7375	-2.4646	-2.9521	-2.3438	-2.6646	160.556	368.981	380.385	400.118	177.734	433.257	343.797	218.878	136.606	410.596	346.144	338.440	90.996	340.903	350.816	230.272	0.00049695	0.00034314	5.72e-05	996.51	1.5707e-06	2.2214e-06	1091.2	209.91	3.6834e-06	2.6039e-06	267.13	74.046	57.804	16.899	3.5269e-06	23.81	8.4794e-05	7.0538e-05	1.9055e-05	974.26	8.1964e-07	7.6148e-07	1063.6	206.65	8.2315e-07	7.4508e-07	262.1	72.865	56.684	16.854	7.845e-07	23.753	98.422	115.715	161.872	84.145	183.066	200.764	84.263	91.813	196.399	200.658	91.548	98.510	99.224	105.913	200.927	105.189	-8191	255	
8533.795	1	1	0	0	0.23822	0.19809	0.24919	0.20678	0.025759	0.037227	0.20274	0.16196	0.05841	0.075198	0.11887	0.068843	0.21872	0.20164	0.1093	0.24868	-2.3563	-2.3854	-2.7	-2.625	-2.3958	-2.9125	-2.5292	-2.6083	-2.725	-2.5542	-2.825	-2.6021	-2.3896	-2.7271	-2.4208	-2.45	102.765	91.693	87.395	386.974	336.195	109.923	387.965	296.646	212.688	137.621	109.318	429.638	193.727	425.752	190.590	372.541	0.00052563	0.00024532	6.2735e-05	994.13	2.1821e-06	2.4156e-06	1085.6	210.93	2.8899e-06	1.7042e-06	265.67	74.455	57.822	16.877	2.9828e-06	23.577	8.4994e-05	7.1354e-05	1.9151e-05	971.44	7.9983e-07	7.4939e-07	1061.8	206.82	7.8038e-07	7.8266e-07	261.31	72.994	56.811	16.881	7.9551e-07	23.662	96.651	125.310	128.184	84.165	199.428	260.708	84.221	91.985	210.192	209.312	91.264	98.435	99.235	106.102	245.701	105.401	-8191	255	
8533.914	1	1	0	0	0.1878	0.084768	0.3197	0.27094	0.018433	0.24907	0.18121	0.14679	0.11498	0.17497	0.16392	0.2425	0.14314	0.23515	0.11045	0.13678	-2.1083	-2.4021	-2.6021	-2.6521	-2.1917	-2.5833	-2.5479	-2.6937	-2.7687	-2.2438	-2.5667	-2.5979	-2.1583	-2.5958	-2.4167	-2.4125	208.892	86.839	235.697	371.615	144.488	431.578	404.871	339.039	363.895	297.705	395.902	346.649	79.775	335.082	232.467	80.891	0.00050092	0.00028507	5.594e-05	990.6	3.3478e-06	1.8889e-06	1087.4	208.62	2.8255e-06	2.5254e-06	268.44	74.135	58.044	16.869	1.4241e-06	23.941	8.7119e-05	7.2809e-05	1.9913e-05	972.63	8.2179e-07	7.6427e-07	1062	206.24	7.8545e-07	7.8501e-07	262.36	72.839	56.796	16.859	7.7194e-07	23.775	101.446	155.915	153.364	84.118	233.993	247.914	84.505	91.710	220.854	216.875	91.595	98.666	98.824	105.830	194.365	104.915	-8191	255	
8534.010	1	1	0	0	0.25118	0.11237	0.20744	0.059459	0.21555	0.034517	0.14422	0.0068375	0.042508	0.12845	0.23541	0.22366	0.24702	0.21467	0.15917	0.23039	-2.2354	-2.2729	-2.3521	-2.7354	-2.2125	-2.7271	-2.5458	-2.4708	-2.8646	-2.325	-2.5792	-2.8104	-1.9917	-2.5667	-2.5687	-2.3958	251.524	266.756	281.876	397.720	237.419	86.547	272.767	276.319	390.339	123.100	386.641	101.892	360.856	390.924	86.755	409.133	0.00058224	0.0003653	2.9571e-05	997.72	3.6336e-06	2.4128e-06	1084.4	210.36	2.7302e-06	3.8066e-06	267.7	74.361	58.193	16.996	2.3558e-06	23.582	8.6746e-05	6.9593e-05	1.9948e-05	973.36	8.0747e-07	7.698e-07	1060.2	206.72	8.1377e-07	7.622e-07	262.11	73.004	56.934	16.902	7.9807e-07	23.649	106.595	158.136	198.881	84.366	229.851	182.242	84.386	92.048	198.728	186.119	91.622	98.724	99.110	105.705	220.399	105.048	-8191	255	
8534.106	1	1	0	0	0.1023	0.11169	0.23522	0.31118	0.16869	0.32668	0.19891	0.15321	0.21425	0.057699	0.29093	0.28042	0.28715	0.13193	0.041812	0.17778	-2.2438	-2.4729	-2.4396	-2.6979	-2.3958	-2.6271	-2.7854	-2.2042	-2.7292	-2.5146	-2.3833	-2.7292	-2.3083	-2.45	-2.5687	-2.1208	420.286	96.328	285.186	84.340	165.372	408.945	356.235	141.956	290.577	147.995	77.201	417.281	113.403	256.409	429.221	289.272	0.00049208	0.00041869	5.8557e-05	1000.4	3.5119e-06	7.5193e-07	1085.3	211.04	1.774e-06	3.7029e-06	266.81	74.155	57.867	16.923	2.6012e-06	23.618	8.5463e-05	7.1912e-05	1.9722e-05	974.07	8.0958e-07	7.6874e-07	1061.2	207.19	8.0377e-07	7.6496e-07	261.84	73.078	56.808	16.88	7.8419e-07	23.652	95.666	134.473	195.928	84.155	253.772	182.378	84.310	91.708	193.009	206.618	91.425	98.323	98.756	105.728	208.046	105.279	-8191	255	
8534.202	1	1	0	0	0.27203	0.14866	0.32989	0.13859	0.094957	0.21113	0.15985	0.11036	0.24532	0.14459	0.16736	0.10582	0.084541	0.063731	0.1748	0.24964	-2.2875	-2.2542	-2.3625	-2.8146	-2.3625	-2.5208	-2.8563	-2.1979	-2.6417	-2.5333	-2.5083	-2.7958	-2.4313	-2.5208	-2.5812	-2.1937	213.368	224.381	369.284	377.293	324.808	291.392	218.371	104.856	297.728	369.950	76.329	204.940	408.231	373.238	263.364	393.033	0.000533	0.00043745	9.8319e-05	993.58	1.6999e-06	1.747e-06	1084.9	209.89	3.7208e-06	1.5498e-06	265.9	74.477	57.891	16.929	2.5909e-06	23.73	8.4897e-05	7.1447e-05	1.9412e-05	972.43	7.8502e-07	7.7192e-07	1058.7	207.09	7.8633e-07	7.5504e-07	261.29	73.035	56.86	16.879	7.5434e-07	23.676	100.707	146.129	177.706	84.527	184.092	280.108	84.319	91.848	209.704	199.077	91.176	98.535	98.854	105.734	224.897	105.470	-8191	255	
8534.298	1	1	0	0	0.15862	0.2326	0.14921	0.10229	0.20628	0.20513	0.22593	0.28127	0.20423	0.036633	0.10709	0.0080517	0.21521	0.21427	0.28983	0.26019	-2.2188	-2.4708	-2.3667	-2.9146	-2.3312	-2.4375	-2.6729	-2.2854	-2.8688	-2.4604	-2.3667	-2.7583	-2.475	-2.5062	-2.8646	-2.4354	413.722	273.329	326.799	238.962	110.981	168.648	372.751	396.245	194.855	422.115	419.915	258.149	96.359	169.469	283.886	89.899	0.00050213	0.00025158	8.9239e-05	993.12	2.8602e-06	4.1042e-06	1084.1	210.53	4.5308e-06	1.0993e-06	267.62	74.634	58.35	16.894	2.743e-06	23.711	8.5652e-05	7.0934e-05	1.9463e-05	972.56	8.2588e-07	7.752e-07	1060.5	206.58	7.9355e-07	7.4513e-07	262.54	72.969	56.88	16.895	7.6694e-07	23.715	99.842	134.612	152.682	84.282	243.195	237.645	84.459	91.871	211.042	137.236	91.313	98.613	98.718	105.950	211.362	105.083	-8191	255	
8534.394	1	1	0	0	0.074265	0.11803	0.058891	0.099025	0.062296	0.21362	0.20339	0.11122	0.34389	0.14478	0.05536	0.16505	0.070664	0.2217	0.025199	0.13412	-2.2812	-2.5583	-2.3083	-2.7292	-2.3208	-2.5708	-3.0312	-2.4646	-2.6729	-2.825	-2.2729	-2.8854	-2.5354	-2.3771	-2.8812	-2.4062	316.028	143.964	417.245	159.869	392.626	149.502	364.770	94.709	217.444	107.174	429.127	305.816	381.759	411.734	237.844	171.993	0.00053335	0.00025033	9.9902e-05	993.7	3.9614e-06	2.0721e-06	1087.7	211.04	2.6317e-06	1.8275e-06	266.61	74.25	57.882	16.826	3.7015e-06	23.727	8.6441e-05	7.1358e-05	1.9665e-05	971.1	8.0602e-07	7.9352e-07	1062.8	206.97	8.2037e-07	7.7256e-07	261.84	72.843	56.772	16.91	7.5947e-07	23.65	95.144	157.013	175.865	84.167	206.302	232.448	84.278	92.006	241.965	234.583	91.319	98.281	98.741	105.624	219.009	105.187	-8191	255	
8534.515	1	1	0	0	0.35915	0.16333	0.33828	0.12811	0.15177	0.16415	0.15711	0.085265	0.33636	0.22765	0.065226	0.16223	0.14818	0.26079	0.16539	0.14516	-2.0875	-2.775	-2.2042	-3.0042	-2.4604	-2.4313	-2.9167	-2.4208	-2.3812	-2.7604	-2.2812	-2.6833	-2.7917	-2.5083	-2.8583	-2.4083	380.261	149.683	201.901	80.586	179.667	347.002	260.400	108.130	183.375	130.726	115.584	77.738	431.295	210.697	191.223	415.940	0.00053681	0.0005266	4.699e-05	991.87	2.7963e-06	3.1605e-06	1082.4	210.75	2.7847e-06	2.7321e-06	266.46	73.966	57.65	16.856	1.2207e-06	23.616	8.6715e-05	6.9011e-05	1.9466e-05	970.35	7.9306e-07	7.7414e-07	1062.3	206.72	7.8527e-07	7.8146e-07	260.96	72.966	56.613	16.817	7.6681e-07	23.632	96.380	150.483	182.781	84.395	211.056	257.350	84.220	91.917	169.420	201.725	91.413	98.131	98.936	105.941	150.157	105.147	-8191	255	
8534.611	1	1	0	0	0.063939	0.014089	0.18267	0.30657	0.17459	0.14944	0.23215	0.14017	0.10754	0.058226	0.24034	0.27952	0.23788	0.24668	0.062844	0.17631	-2.0479	-2.8063	-2.3	-2.7875	-2.5938	-2.2042	-2.8792	-2.3896	-2.4104	-2.5917	-2.2083	-2.6063	-2.6896	-2.2917	-2.8354	-2.4542	334.980	320.376	299.949	83.245	332.831	209.598	365.344	87.355	89.077	263.304	291.108	338.191	375.208	125.363	382.752	201.405	0.00047327	0.00019942	4.1341e-05	994.3	3.3472e-06	2.703e-06	1083.6	210.42	5.2715e-06	2.6542e-06	266.74	73.998	57.517	16.844	2.354e-06	23.631	8.4555e-05	6.7002e-05	1.9185e-05	970.99	8.0211e-07	7.5727e-07	1059.6	206.52	7.6981e-07	7.7803e-07	261.34	72.896	56.669	16.862	7.7176e-07	23.701	100.572	134.497	196.024	84.183	210.089	199.072	84.384	92.015	233.927	209.190	91.262	98.354	98.810	105.944	236.352	104.905	-8191	255	
8534.707	1	1	0	0	0.029871	0.10672	0.22741	0.022834	0.14247	0.041382	0.20489	0.21213	0.29965	0.14639	0.29517	0.023174	0.34023	0.20734	0.18088	0.13915	-2.0042	-2.7687	-2.3125	-2.5708	-2.7188	-2.4229	-2.7896	-2.6083	-2.4208	-2.7854	-2.4729	-2.6458	-2.5396	-2.1958	-2.5875	-2.5062	265.767	351.006	354.608	428.214	416.749	276.297	378.943	77.115	157.486	374.007	382.343	388.524	391.548	107.249	245.335	413.390	0.00050943	0.00014794	6.3763e-05	994.12	2.908e-06	2.0793e-06	1084.8	211.58	2.7754e-06	3.0645e-06	266.29	74	57.594	16.93	1.2735e-06	23.509	8.3943e-05	6.8384e-05	1.97e-05	971.33	7.9877e-07	7.6281e-07	1059.9	206.82	7.9681e-07	7.6989e-07	261.02	72.911	56.638	16.903	7.5695e-07	23.585	92.647	136.481	163.074	84.279	197.178	181.271	83.994	91.838	204.306	244.104	90.780	98.501	98.798	105.639	279.857	105.293	-8191	255	
8534.804	1	1	0	0	0.014514	0.077725	0.1596	0.062617	0.084156	0.22357	0.25828	0.051615	0.035542	0.13488	0.12823	0.10286	0.16708	0.053965	0.21629	0.10419	-1.9208	-2.7167	-2.3146	-2.6937	-2.7854	-2.2875	-2.6437	-2.6021	-2.3958	-2.8583	-2.5583	-2.7583	-2.7792	-2.2896	-2.6437	-2.4896	201.313	232.638	133.265	361.899	198.847	126.793	344.062	377.244	298.062	257.567	207.054	288.496	366.966	120.786	119.000	376.925	0.00053458	0.00017659	5.9566e-05	991.65	2.9193e-06	4.6908e-07	1083.7	210.83	2.1555e-06	2.5727e-06	265.7	74.053	57.47	16.979	1.5077e-06	23.743	8.6773e-05	6.9993e-05	1.8961e-05	970.61	7.8928e-07	7.3435e-07	1060.9	206.69	7.8989e-07	7.5264e-07	261.37	72.756	56.67	16.917	7.8016e-07	23.63	100.411	176.744	132.010	84.614	211.705	202.736	84.133	92.021	189.978	286.008	91.382	98.037	99.289	105.576	234.116	105.449	-8191	255	
#DATA ENDS
