BOXY.EXE: ISS Imagent and Oximeter Data Acquisition Program Version 0.80
Ascii Record File

#ACQ INFORMATION
2  Detector Channels 
16  External MUX Channels 
1  Auxiliary Channels 
5000  Waveform (CCF) Frequency (Hz)
1  Waveforms Skipped 
30  Waveforms Averaged 
1  Cycles Averaged 
16  Acquisitions per Waveform 
10.0806  Updata Rate (Hz) 

#FILE INFORMATION
TRUE -- External MUX Channel results are PARSED.
FALSE -- AC DC and Phase are NOT grouped.
TRUE -- Companion Program Settings File CREATED.
FALSE -- AC data not excluded
FALSE -- DC data not excluded
FALSE -- Phase data not excluded
FALSE -- Auxillary Chn. data not excluded
Tab delimiters

#CALIBRATION STATE
TRUE -- Waveform Calibration Values APPLIED.


#AUX CALIBRATION VALUES
Val Type	aux-1	

Term	1.0000e+00	
Factor	0.0000e+00	


#WF CALIBRATION VALUES
A = Detector Channel
Val Type	A-AC1	A-AC2	A-AC3	A-AC4	A-AC5	A-AC6	A-AC7	A-AC8	A-AC9	A-AC10	A-AC11	A-AC12	A-AC13	A-AC14	A-AC15	A-AC16	A-DC1	A-DC2	A-DC3	A-DC4	A-DC5	A-DC6	A-DC7	A-DC8	A-DC9	A-DC10	A-DC11	A-DC12	A-DC13	A-DC14	A-DC15	A-DC16	A-Ph1	A-Ph2	A-Ph3	A-Ph4	A-Ph5	A-Ph6	A-Ph7	A-Ph8	A-Ph9	A-Ph10	A-Ph11	A-Ph12	A-Ph13	A-Ph14	A-Ph15	A-Ph16	

Term	0.00000e+00	0.00000e+00	0.00000e+00	0.00000e+00	0.00000e+00	0.00000e+00	0.00000e+00	0.00000e+00	0.00000e+00	0.00000e+00	0.00000e+00	0.00000e+00	0.00000e+00	0.00000e+00	0.00000e+00	0.00000e+00	0.00000e+00	0.00000e+00	0.00000e+00	0.00000e+00	0.00000e+00	0.00000e+00	0.00000e+00	0.00000e+00	0.00000e+00	0.00000e+00	0.00000e+00	0.00000e+00	0.00000e+00	0.00000e+00	0.00000e+00	0.00000e+00	0.00000e+00	0.00000e+00	0.00000e+00	0.00000e+00	0.00000e+00	0.00000e+00	0.00000e+00	0.00000e+00	0.00000e+00	0.00000e+00	0.00000e+00	0.00000e+00	0.00000e+00	0.00000e+00	0.00000e+00	0.00000e+00	
Factor	1.00000e+00	1.00000e+00	1.00000e+00	1.00000e+00	1.00000e+00	1.00000e+00	1.00000e+00	1.00000e+00	1.00000e+00	1.00000e+00	1.00000e+00	1.00000e+00	1.00000e+00	1.00000e+00	1.00000e+00	1.00000e+00	1.00000e+00	1.00000e+00	1.00000e+00	1.00000e+00	1.00000e+00	1.00000e+00	1.00000e+00	1.00000e+00	1.00000e+00	1.00000e+00	1.00000e+00	1.00000e+00	1.00000e+00	1.00000e+00	1.00000e+00	1.00000e+00	X	X	X	X	X	X	X	X	X	X	X	X	X	X	X	X	

B = Detector Channel
Val Type	B-AC1	B-AC2	B-AC3	B-AC4	B-AC5	B-AC6	B-AC7	B-AC8	B-AC9	B-AC10	B-AC11	B-AC12	B-AC13	B-AC14	B-AC15	B-AC16	B-DC1	B-DC2	B-DC3	B-DC4	B-DC5	B-DC6	B-DC7	B-DC8	B-DC9	B-DC10	B-DC11	B-DC12	B-DC13	B-DC14	B-DC15	B-DC16	B-Ph1	B-Ph2	B-Ph3	B-Ph4	B-Ph5	B-Ph6	B-Ph7	B-Ph8	B-Ph9	B-Ph10	B-Ph11	B-Ph12	B-Ph13	B-Ph14	B-Ph15	B-Ph16	

Term	0.00000e+00	0.00000e+00	0.00000e+00	0.00000e+00	0.00000e+00	0.00000e+00	0.00000e+00	0.00000e+00	0.00000e+00	0.00000e+00	0.00000e+00	0.00000e+00	0.00000e+00	0.00000e+00	0.00000e+00	0.00000e+00	0.00000e+00	0.00000e+00	0.00000e+00	0.00000e+00	0.00000e+00	0.00000e+00	0.00000e+00	0.00000e+00	0.00000e+00	0.00000e+00	0.00000e+00	0.00000e+00	0.00000e+00	0.00000e+00	0.00000e+00	0.00000e+00	1.18084e+01	-1.38873e+02	-1.24998e+02	-1.83146e+02	-7.27340e+01	-6.37033e+01	-1.60638e+02	-1.62015e+02	-3.12208e+01	-6.27560e+01	-1.72582e+02	-1.72483e+02	-1.83079e+02	-1.78092e+02	-9.56933e+01	-1.50919e+02	
Factor	4.44032e-05	1.51227e-04	4.59897e-05	1.52212e-01	1.40126e-06	1.22182e-06	1.72356e-01	5.67285e-02	1.37058e-06	1.58077e-06	8.83220e-02	2.95593e-02	2.80079e-02	9.00119e-03	1.53101e-06	1.30876e-02	1.36817e-06	1.41543e-06	3.92752e-07	7.76740e-02	1.54102e-08	1.54915e-08	8.23777e-02	2.87967e-02	1.53811e-08	1.54814e-08	4.31705e-02	1.44196e-02	1.41529e-02	4.56543e-03	1.54541e-08	6.40635e-03	X	X	X	X	X	X	X	X	X	X	X	X	X	X	X	X	



#DISTANCE SETTINGS
A = Detector Channel
A-1	A-2	A-3	A-4	A-5	A-6	A-7	A-8	A-9	A-10	A-11	A-12	A-13	A-14	A-15	A-16	

2.5000e+00	3.0000e+00	2.5000e+00	3.0000e+00	2.0000e+00	3.0000e+00	1.5000e+00	3.0000e+00	3.0000e+00	3.0000e+00	3.0000e+00	3.0000e+00	3.0000e+00	3.0000e+00	1.5000e+00	3.0000e+00	

B = Detector Channel
B-1	B-2	B-3	B-4	B-5	B-6	B-7	B-8	B-9	B-10	B-11	B-12	B-13	B-14	B-15	B-16	

1.0000e+01	1.0000e+01	1.0000e+01	1.4400e+00	1.0000e+01	1.0000e+01	1.5100e+00	1.9400e+00	1.0000e+01	1.0000e+01	1.9900e+00	2.4900e+00	2.4100e+00	2.9000e+00	1.0000e+01	2.9800e+00	




#DATA BEGINS
time	group	step	mark	flag	A-AC1	A-AC2	A-AC3	A-AC4	A-AC5	A-AC6	A-AC7	A-AC8	A-AC9	A-AC10	A-AC11	A-AC12	A-AC13	A-AC14	A-AC15	A-AC16	A-DC1	A-DC2	A-DC3	A-DC4	A-DC5	A-DC6	A-DC7	A-DC8	A-DC9	A-DC10	A-DC11	A-DC12	A-DC13	A-DC14	A-DC15	A-DC16	A-Ph1	A-Ph2	A-Ph3	A-Ph4	A-Ph5	A-Ph6	A-Ph7	A-Ph8	A-Ph9	A-Ph10	A-Ph11	A-Ph12	A-Ph13	A-Ph14	A-Ph15	A-Ph16	B-AC1	B-AC2	B-AC3	B-AC4	B-AC5	B-AC6	B-AC7	B-AC8	B-AC9	B-AC10	B-AC11	B-AC12	B-AC13	B-AC14	B-AC15	B-AC16	B-DC1	B-DC2	B-DC3	B-DC4	B-DC5	B-DC6	B-DC7	B-DC8	B-DC9	B-DC10	B-DC11	B-DC12	B-DC13	B-DC14	B-DC15	B-DC16	B-Ph1	B-Ph2	B-Ph3	B-Ph4	B-Ph5	B-Ph6	B-Ph7	B-Ph8	B-Ph9	B-Ph10	B-Ph11	B-Ph12	B-Ph13	B-Ph14	B-Ph15	B-Ph16	aux-1	digaux	

20935.754	1	1	0	256	0.19746	0.034277	0.084878	0.2638	0.11333	0.2371	0.024718	0.35262	0.059445	0.1034	0.21035	0.2489	0.26605	0.25288	0.12703	0.34169	-2.4646	-2.3542	-2.2479	-2.9104	-2.3104	-2.5896	-2.7083	-2.4417	-2.75	-2.5167	-2.5729	-3.0438	-2.5917	-2.7708	-2.7188	-2.3042	427.190	109.436	304.517	410.867	343.213	428.611	283.755	412.319	389.900	269.846	362.170	368.791	75.741	423.779	289.498	385.500	0.0011806	0.00042405	0.00024826	1351.8	1.0158e-05	7.7694e-06	1352.7	362.22	4.6812e-06	9.0656e-06	411.51	138.64	119.61	39.951	8.8998e-06	49.652	0.00041852	0.00041285	0.00011422	1371	4.4739e-06	4.4899e-06	1370.4	366.31	4.3691e-06	4.3662e-06	416.87	139.4	120.5	40.836	4.3169e-06	50.719	303.936	177.431	216.296	87.301	229.946	240.102	87.187	91.973	277.789	248.894	91.375	95.733	96.818	101.042	189.837	100.111	-8191	255	
20935.873	1	1	0	0	0.18655	0.071448	0.10977	0.3601	0.20327	0.24323	0.22286	0.050254	0.23538	0.11446	0.3174	0.21033	0.17662	0.11095	0.080245	0.087182	-2.3021	-2.5	-2.3667	-3.1729	-2.5229	-2.7896	-2.9437	-2.5625	-2.55	-2.5729	-2.5146	-2.8729	-2.4896	-2.7104	-2.7354	-2.4208	200.180	406.027	207.494	357.298	74.706	234.466	389.088	378.327	408.992	345.639	336.257	328.571	98.484	363.946	317.177	403.881	0.0010811	0.00049608	6.8986e-05	1346.6	5.8273e-06	5.2962e-06	1352.8	360.1	7.3229e-06	5.2233e-06	409.87	137.36	119.52	39.635	6.9369e-06	49.481	0.00040395	0.00038815	0.000107	1363.6	4.184e-06	4.168e-06	1364	364.39	4.1385e-06	4.1615e-06	414.24	138.6	120.18	40.628	4.1367e-06	50.522	305.453	188.822	210.379	87.164	203.726	246.354	87.243	92.149	298.912	253.690	91.291	96.138	96.727	101.097	223.767	99.871	-8191	255	
20935.945	1	1	0	0	0.30642	0.13533	0.17944	0.080914	0.012639	0.20177	0.090781	0.32894	0.21847	0.038238	0.27639	0.30161	0.25069	0.1821	0.072795	0.095674	-2.2833	-2.5854	-2.4833	-3.0375	-2.4708	-2.4417	-3.0708	-2.5438	-2.5396	-2.7562	-2.5979	-2.9604	-2.5875	-2.5	-2.7708	-2.275	156.085	428.619	255.807	119.262	125.309	370.085	86.915	354.811	359.559	161.208	416.623	279.160	88.184	396.883	290.319	430.746	0.0012088	0.00048951	0.00010433	1344.6	4.8479e-06	5.3906e-06	1352.2	359.95	7.022e-06	5.9602e-06	410.03	137.73	118.8	39.857	4.8726e-06	49.632	0.00039017	0.00038432	0.00010571	1360.6	4.1859e-06	4.1642e-06	1361.4	364.37	4.1048e-06	4.0917e-06	414.45	138.62	119.59	40.62	4.0802e-06	50.434	305.792	167.918	107.794	87.323	239.779	207.779	87.136	91.967	262.637	251.801	91.209	96.035	96.820	101.049	173.553	99.990	-8191	255	
20936.043	1	1	0	0	0.041024	0.084708	0.066183	0.133	0.24079	0.13037	0.36288	0.17157	0.2215	0.1275	0.23055	0.362	0.31978	0.26702	0.067831	0.17173	-2.0521	-2.6125	-2.4021	-2.8396	-2.4521	-2.4667	-2.9333	-2.4083	-2.3688	-2.4333	-2.6125	-2.8	-2.6813	-2.3729	-2.6604	-2.4313	292.356	222.814	403.003	430.210	269.656	409.667	312.341	416.590	396.171	368.743	337.898	403.756	163.706	381.978	225.373	409.752	0.0011212	0.00047946	0.00016562	1341.9	7.7324e-06	2.5506e-06	1349.9	358.01	5.0172e-06	5.2188e-06	409.39	137.57	119.48	39.841	1.6146e-06	49.562	0.00038639	0.00037544	0.0001038	1357.9	4.0944e-06	4.1326e-06	1359.6	363.2	4.1291e-06	4.1381e-06	414.99	138.72	119.98	40.685	4.2225e-06	50.535	303.731	139.776	194.756	87.344	234.150	159.736	86.890	91.916	287.094	188.574	91.148	96.003	96.757	100.846	194.352	100.332	-8191	255	
20936.139	1	1	0	0	0.18277	0.16976	0.10843	0.24493	0.10394	0.16814	0.11928	0.25314	0.059835	0.21956	0.30149	0.21092	0.043938	0.21873	0.23955	0.13345	-2.1917	-2.8021	-2.2875	-2.7333	-2.6375	-2.3354	-3.0292	-2.5229	-2.5354	-2.8646	-2.4083	-2.7833	-2.575	-2.3604	-2.7313	-2.5354	75.471	363.934	104.234	422.382	415.634	246.928	358.447	368.203	357.640	242.283	380.475	373.988	352.988	374.115	238.856	326.862	0.0010799	0.00059647	0.00032933	1344.6	8.7506e-06	7.3981e-06	1353	360.38	6.543e-06	3.7232e-06	412.26	138.49	119.26	40.171	4.8046e-06	49.895	0.0004024	0.00039295	0.00010989	1364.9	4.3875e-06	4.3821e-06	1366.5	365.61	4.4748e-06	4.5261e-06	418.34	139.83	121.02	41.107	4.7388e-06	51.043	308.560	154.174	170.909	87.268	180.272	231.583	87.322	91.903	280.920	225.508	91.360	96.007	96.560	101.014	163.107	99.872	-8191	255	
20936.258	1	1	0	0	0.33746	0.17307	0.22624	0.13148	0.22106	0.3358	0.20987	0.32339	0.18508	0.27535	0.10797	0.13587	0.12777	0.26316	0.26417	0.15918	-2.1042	-2.7812	-2.1583	-2.5646	-2.7854	-2.4208	-2.75	-2.625	-2.5187	-2.65	-2.4208	-2.6479	-2.8146	-2.3146	-2.5396	-2.3979	199.103	162.455	283.977	159.356	183.900	175.308	433.141	396.933	249.806	255.972	394.702	388.494	424.537	426.023	211.019	429.616	0.0011979	0.00065272	0.00025841	1355	7.4978e-06	4.0671e-06	1352.1	361.59	8.8541e-06	2.7291e-06	414.39	138.03	119.29	40.268	4.4196e-06	49.612	0.00045747	0.00044498	0.00012532	1374.7	4.9889e-06	4.9579e-06	1375.6	368.79	5.0403e-06	4.9668e-06	420.58	140.22	121.41	41.164	4.9536e-06	51.069	304.487	182.009	162.251	87.220	218.191	222.690	86.885	91.967	233.213	278.178	91.183	96.216	96.597	100.969	209.639	99.955	-8191	255	
20936.354	1	1	0	0	0.22194	0.19571	0.10695	0.41453	0.17252	0.10501	0.14908	0.2437	0.19239	0.059772	0.41092	0.30493	0.14872	0.1952	0.23448	0.10378	-2.0479	-2.8063	-2.3542	-2.7771	-2.6771	-2.1729	-3.0333	-2.5938	-2.3833	-2.6	-2.4042	-2.6917	-2.8812	-2.475	-2.675	-2.8479	355.056	270.004	248.437	412.079	96.150	377.599	350.023	309.257	352.089	243.608	359.218	88.796	396.332	420.855	259.410	300.828	0.001155	0.00032181	0.00014975	1351.4	7.113e-06	1.1778e-06	1357	361.3	2.4252e-06	4.3764e-06	412.38	138.37	119.31	40.223	4.3838e-06	49.785	0.00045363	0.00044121	0.0001226	1372.8	4.8372e-06	4.7669e-06	1374.4	368.08	4.7567e-06	4.7063e-06	419.61	139.94	121.16	41.123	4.7967e-06	51.038	310.849	158.882	219.649	87.274	174.634	230.653	87.021	91.925	255.800	233.020	91.238	96.060	96.706	100.881	192.749	99.846	-8191	255	
20936.449	1	1	0	0	0.051479	0.14584	0.091755	0.21748	0.22584	0.16952	0.29848	0.31558	0.22271	0.039588	0.1396	0.34806	0.16488	0.2452	0.1043	0.41147	-1.8979	-2.6688	-2.4	-2.6958	-2.7167	-2.5646	-2.8563	-2.8	-2.3354	-2.8812	-2.4062	-2.5083	-2.8604	-2.4458	-2.7625	-2.6042	322.272	335.424	75.876	393.302	224.524	248.279	351.924	323.272	135.745	81.731	326.377	401.478	414.254	109.927	245.684	398.954	0.0011835	6.3441e-05	6.9192e-05	1352.6	4.6786e-06	2.4275e-06	1365.3	362.77	6.6935e-06	7.7235e-06	413.03	138.23	120.24	40.117	7.4205e-06	49.558	0.00045279	0.00044372	0.00012371	1376.4	5.0299e-06	5.0231e-06	1380.1	369.13	5.2362e-06	5.2117e-06	421.28	140.63	122.02	41.261	5.3788e-06	51.185	316.819	208.316	185.151	87.109	203.182	255.883	87.023	91.893	277.627	213.143	91.277	95.915	96.684	100.942	236.436	99.708	-8191	255	
20936.547	1	1	0	0	0.0878	0.26021	0.26032	0.25958	0.087154	0.081522	0.36647	0.41562	0.079069	0.2874	0.20153	0.13272	0.15475	0.28184	0.013097	0.14822	-2.0979	-2.7583	-2.4271	-2.6604	-2.7125	-2.3063	-2.7062	-2.8771	-2.2687	-2.7542	-2.6417	-2.4104	-2.8958	-2.3917	-2.6354	-2.7875	149.665	245.438	345.263	348.081	309.206	245.291	423.562	383.634	191.436	217.905	322.539	90.064	378.137	430.884	312.360	410.842	0.00096703	0.0004571	0.00027204	1356.4	6.5743e-06	5.2526e-06	1365.1	362.98	4.882e-06	1.1397e-05	414.33	138.74	120.19	40.189	6.9584e-06	49.778	0.00050158	0.00048902	0.0001362	1380.4	5.2948e-06	5.2724e-06	1382.9	369.65	5.2446e-06	5.1814e-06	421.35	140.98	121.84	41.273	5.2595e-06	51.141	308.675	396.555	223.236	87.176	251.569	274.574	87.263	91.857	268.006	224.139	91.399	96.313	96.679	100.817	142.631	99.793	-8191	255	
20936.643	1	1	0	0	0.10265	0.11482	0.17698	0.40066	0.17843	0.16806	0.14232	0.23251	0.16392	0.13155	0.071493	0.083893	0.14515	0.27845	0.11001	0.056245	-1.9792	-2.6604	-2.5292	-2.5292	-2.8229	-2.5146	-2.8333	-2.8979	-2.1833	-2.7042	-2.7604	-2.4375	-2.975	-2.7667	-2.65	-2.9125	105.486	379.820	277.144	377.360	364.549	108.246	346.430	421.612	415.530	245.173	127.900	195.181	431.500	135.924	265.949	239.282	0.0010816	0.00052062	0.00012447	1355.1	5.5894e-06	6.894e-06	1361	361.12	8.191e-06	5.2668e-06	412.79	138.66	119.69	40.037	4.0777e-06	49.874	0.00048878	0.00048566	0.00013425	1381.8	5.3409e-06	5.3226e-06	1382.5	369.55	5.3056e-06	5.377e-06	422.31	141.02	121.89	41.278	5.5201e-06	51.274	304.153	141.432	193.156	87.259	193.372	242.978	86.938	91.937	281.710	161.673	91.418	96.164	96.687	100.877	220.057	99.750	-8191	255	
20936.738	1	1	0	0	0.059569	0.20284	0.13934	0.27024	0.15783	0.095969	0.045879	0.24994	0.039653	0.19314	0.1122	0.067305	0.22394	0.078369	0.074895	0.07062	-1.8667	-2.7521	-2.5812	-2.6021	-2.7979	-2.5917	-2.7646	-2.875	-2.4	-2.675	-2.7396	-2.4854	-2.7271	-2.5312	-2.4875	-3.0292	94.072	262.829	342.979	390.541	105.948	256.339	336.073	349.713	309.051	381.265	299.142	105.363	360.043	248.696	234.806	364.093	0.0012427	0.00093016	0.0001339	1358.6	7.1205e-06	1.7025e-06	1371.3	362.22	1.0659e-05	9.3248e-06	414.48	138.42	119.7	40.052	1.0747e-05	50.104	0.00051154	0.00051008	0.00013904	1383.1	5.5322e-06	5.5255e-06	1387.2	369.91	5.5075e-06	5.561e-06	422.74	140.98	122.05	41.243	5.5976e-06	51.286	308.236	177.657	143.188	87.103	170.242	250.292	87.140	91.997	281.899	239.331	91.132	96.232	96.787	100.883	208.481	99.977	-8191	255	
20936.834	1	1	0	0	0.14549	0.13196	0.26416	0.47379	0.079066	0.20851	0.19213	0.11694	0.097144	0.19283	0.31883	0.10893	0.33144	0.26993	0.18609	0.18267	-1.9083	-2.4167	-2.7125	-2.5271	-2.7979	-2.5917	-2.5938	-2.8937	-2.4938	-2.5896	-2.7604	-2.2396	-2.7313	-2.6458	-2.3917	-2.9625	353.133	354.683	179.480	367.687	247.405	117.227	368.126	424.486	273.461	195.846	390.206	234.519	429.777	413.176	89.799	357.829	0.0012514	0.00057648	0.00033869	1357.8	6.1462e-06	2.6212e-06	1365.4	362.32	2.0504e-06	4.2716e-06	413.27	138.15	119.73	39.808	8.9314e-06	49.518	0.00051318	0.00050833	0.0001403	1383.4	5.5293e-06	5.4823e-06	1384.7	370.04	5.4769e-06	5.5018e-06	422.09	140.62	121.8	41.178	5.384e-06	51.097	310.838	176.994	148.936	87.232	211.269	247.868	87.168	91.979	322.722	239.812	91.475	95.896	96.443	100.864	202.494	99.724	-8191	255	
20936.955	1	1	0	0	0.20576	0.11837	0.26927	0.38745	0.092059	0.22755	0.12545	0.34196	0.13699	0.23431	0.2521	0.21302	0.10566	0.034458	0.22701	0.27071	-2.125	-2.5375	-2.8937	-2.45	-2.5896	-2.4938	-2.5958	-2.875	-2.5083	-2.6354	-2.8792	-2.45	-2.7854	-2.7875	-2.3271	-2.8333	431.680	289.899	296.365	372.654	353.210	337.327	346.541	338.701	333.307	145.437	381.337	305.236	87.248	334.595	192.571	410.922	0.0010524	0.00079677	0.00023769	1356.4	6.1449e-06	3.4963e-06	1362.8	363.43	9.6771e-06	8.5385e-06	412.09	137.85	120.24	40.164	5.4756e-06	49.661	0.00049817	0.0004896	0.00013492	1380.4	5.3116e-06	5.2846e-06	1382.3	369.16	5.2853e-06	5.2873e-06	421.41	140.45	121.82	41.144	5.3157e-06	51.073	310.097	104.273	208.755	87.259	225.448	134.767	86.879	92.067	277.004	251.606	91.152	95.864	96.531	100.895	188.056	100.301	-8191	255	
20937.051	1	1	0	0	0.14884	0.15557	0.24943	0.27576	0.20189	0.13286	0.14442	0.20557	0.024528	0.059432	0.14192	0.35078	0.1678	0.2504	0.092298	0.26729	-2.1437	-2.4938	-2.775	-2.5583	-2.6833	-2.6042	-2.5354	-2.8896	-2.5979	-2.6354	-3.0458	-2.4958	-2.6188	-2.7917	-2.2667	-2.9729	294.660	149.726	332.900	400.494	188.927	341.554	92.874	406.236	110.028	89.423	299.040	146.961	113.022	87.740	206.209	180.602	0.0010309	0.00045691	0.00024602	1356.2	7.3282e-06	4.4329e-07	1361.4	363.8	5.58e-06	4.1442e-06	412.56	137.94	119.86	40.013	3.6932e-06	49.523	0.00049279	0.00048873	0.00013394	1381.1	5.3652e-06	5.4136e-06	1382.3	370.12	5.48e-06	5.4777e-06	421.27	140.64	121.92	41.178	5.4301e-06	51.16	307.802	91.878	155.741	87.307	182.498	199.569	86.973	92.153	224.348	321.305	91.186	95.959	96.454	100.802	243.332	99.682	-8191	255	
20937.146	1	1	0	0	0.16386	0.12783	0.20761	0.33565	0.1394	0.20129	0.15102	0.31542	0.21686	0.22772	0.27295	0.069589	0.16199	0.41421	0.064912	0.11509	-2.1833	-2.3979	-2.7104	-2.5292	-2.6937	-2.9125	-2.5729	-2.9333	-2.5958	-2.3229	-2.7167	-2.4333	-2.5938	-2.6646	-2.4062	-2.8312	357.976	160.665	264.309	415.606	312.353	219.977	359.654	319.785	162.145	325.396	342.035	253.270	418.682	421.585	266.541	398.439	0.0010881	0.00042461	0.00041636	1357.4	7.6593e-06	5.274e-06	1360.1	362.73	3.7313e-06	9.3271e-06	413.82	138.2	119.83	39.807	5.1196e-06	49.76	0.00050446	0.00049797	0.00013744	1382	5.4073e-06	5.3856e-06	1382.9	369.56	5.3268e-06	5.3123e-06	421.53	140.31	121.65	41.072	5.2453e-06	51.122	303.583	217.874	164.293	87.213	233.791	272.384	87.168	92.097	222.119	234.048	91.145	96.031	96.618	100.820	156.710	99.707	-8191	255	
20937.242	1	1	0	0	0.19813	0.42137	0.22531	0.082658	0.098442	0.19465	0.32392	0.19112	0.16484	0.17481	0.063019	0.23713	0.16737	0.1132	0.27072	0.058211	-2.1583	-2.1417	-2.8604	-2.7333	-2.4625	-2.7479	-2.4188	-2.8792	-2.6167	-2.4021	-2.8479	-2.5396	-2.3937	-2.8875	-2.2792	-2.675	125.276	351.053	257.715	85.356	289.530	151.478	430.661	367.545	139.675	179.361	309.262	121.360	306.657	349.449	328.312	399.937	0.00099306	0.00079566	0.0001298	1356.4	7.1968e-06	7.8249e-06	1364.6	361.98	7.7408e-06	7.1176e-06	411.72	137.75	118.83	39.856	4.3768e-06	49.638	0.0004894	0.00047808	0.00013266	1378	5.216e-06	5.2856e-06	1381.9	368.88	5.2268e-06	5.2458e-06	420.76	140.37	121.47	41.072	5.2335e-06	50.96	308.498	150.180	197.297	87.300	228.500	226.057	87.087	92.131	277.161	218.275	91.172	95.977	96.617	100.889	176.196	100.140	-8191	255	
20937.338	1	1	0	0	0.082756	0.045235	0.12581	0.32612	0.19261	0.057996	0.33837	0.028878	0.10162	0.1487	0.11855	0.010823	0.10352	0.060836	0.13249	0.15149	-2.2271	-2.3563	-2.6	-2.7812	-2.2583	-2.8688	-2.6667	-2.8625	-2.8083	-2.3833	-2.8458	-2.6625	-2.3896	-2.8333	-2.4938	-2.55	400.901	310.221	423.323	427.334	365.068	218.523	370.234	390.246	239.461	228.141	332.404	366.086	132.385	302.495	199.155	144.163	0.0010487	0.00085207	0.00012214	1359.1	8.4762e-06	8.1024e-07	1365.3	362.07	4.212e-06	9.4788e-06	413.34	138.01	119.22	39.788	6.6903e-06	49.465	0.00049252	0.00048082	0.00013364	1380.9	5.2306e-06	5.251e-06	1381.3	368.33	5.1943e-06	5.2599e-06	421.14	140.26	121.42	40.98	5.2729e-06	50.918	313.865	131.622	165.160	87.266	219.253	286.419	87.015	92.110	256.435	261.643	91.229	96.088	96.468	100.941	185.193	100.068	-8191	255	
20937.434	1	1	0	0	0.2189	0.12208	0.12033	0.052551	0.15717	0.17895	0.2082	0.17854	0.14742	0.13307	0.24442	0.028081	0.21557	0.13487	0.19644	0.28438	-2.1458	-2.1813	-2.75	-2.7333	-2.4521	-2.6917	-2.6833	-2.6792	-2.7104	-2.3583	-2.8771	-2.7812	-2.4188	-2.9688	-2.3542	-2.7208	339.189	407.707	393.371	365.258	161.704	112.595	386.332	363.843	95.095	182.182	88.320	226.654	334.399	344.353	95.199	408.792	0.0011404	0.00020364	0.00027006	1353.5	6.7593e-06	1.6293e-06	1361.7	361.28	1.0661e-05	3.0978e-06	412.8	138.49	119.23	39.696	3.1652e-06	49.375	0.00049229	0.00048349	0.00013514	1379.3	5.3159e-06	5.3064e-06	1382.3	368.84	5.3354e-06	5.2927e-06	420.49	140.62	121.7	40.995	5.3616e-06	50.907	309.633	397.590	183.474	87.259	230.707	173.046	87.087	92.041	249.930	337.937	91.326	96.100	96.560	100.853	167.124	100.235	-8191	255	
20937.555	1	1	0	0	0.30392	0.11456	0.057754	0.27954	0.22162	0.070135	0.37412	0.24357	0.23414	0.12617	0.091003	0.25177	0.20085	0.047201	0.067235	0.15897	-2.4208	-2.1854	-2.7417	-2.7938	-2.1229	-2.6917	-2.7417	-2.6792	-2.85	-2.3312	-2.8417	-2.7958	-2.3521	-2.85	-2.525	-2.5333	305.528	307.354	257.919	397.754	231.223	126.377	331.719	374.304	425.781	302.444	400.078	426.728	372.639	108.980	368.313	306.762	0.0011328	0.00072372	0.00017489	1353.5	9.3088e-06	5.7361e-06	1361.3	361.96	5.896e-06	7.1628e-06	412.47	138.17	119.43	39.843	8.4904e-06	49.543	0.00049931	0.0004893	0.00013601	1379.7	5.3311e-06	5.3557e-06	1380.2	369.45	5.3118e-06	5.3701e-06	420.98	140.38	121.47	41.023	5.3773e-06	50.929	312.898	167.144	195.438	87.062	222.906	223.874	87.088	92.254	228.840	232.252	91.282	96.135	96.412	100.959	174.216	99.864	-8191	255	
20937.650	1	1	0	0	0.13498	0.14795	0.17053	0.42833	0.071705	0.075392	0.25683	0.32433	0.11563	0.29963	0.17267	0.10759	0.26965	0.25249	0.20979	0.39715	-2.3688	-2.3937	-2.5563	-2.8583	-2.3521	-2.6917	-2.7646	-2.45	-2.7125	-2.3542	-2.7188	-2.8604	-2.3688	-2.7375	-2.6479	-2.5167	175.587	409.461	403.246	429.002	379.692	293.283	368.707	351.938	222.227	191.014	362.925	417.849	405.639	133.537	346.845	383.951	0.0011527	0.00035772	0.00017502	1354.6	3.4814e-06	4.8653e-06	1362.5	360.94	8.1192e-06	3.9687e-06	412.44	138.02	119.18	39.774	5.9515e-06	49.562	0.00049743	0.00048899	0.00013637	1378.8	5.3487e-06	5.3396e-06	1381	368.98	5.3788e-06	5.4031e-06	420.87	140.31	121.47	41.048	5.3894e-06	51.048	310.074	151.138	226.915	87.204	215.185	242.857	87.125	92.065	285.724	248.526	91.365	95.996	96.752	100.922	101.635	99.965	-8191	255	
20937.746	1	1	0	0	0.11474	0.17942	0.21727	0.33614	0.010503	0.17192	0.17838	0.26272	0.39649	0.15594	0.078544	0.26073	0.12056	0.14907	0.39379	0.052969	-2.5729	-2.4875	-2.6604	-2.9479	-2.2687	-2.6583	-2.7687	-2.4917	-2.8833	-2.35	-2.4458	-2.8854	-2.5146	-2.7292	-2.5875	-2.4083	354.380	261.274	388.786	388.249	371.268	309.883	321.428	118.051	131.244	311.307	297.918	183.226	104.671	429.328	356.087	149.975	0.0010969	0.00057371	0.000271	1354.8	4.5862e-06	3.3253e-06	1366.1	361.66	1.0053e-05	6.9151e-06	413.08	137.67	119.62	40.045	7.6998e-06	49.482	0.00049724	0.00049479	0.00013712	1380.9	5.4509e-06	5.4729e-06	1383.3	369.36	5.4215e-06	5.4424e-06	421.28	140.36	121.54	41.194	5.4603e-06	51.008	308.514	180.687	154.930	87.338	250.992	192.277	87.007	91.872	281.428	210.663	91.422	96.210	96.574	101.196	210.693	99.886	-8191	255	
20937.818	1	1	0	0	0.061765	0.087147	0.18022	0.27362	0.055956	0.16399	0.08211	0.28294	0.060715	0.11865	0.11679	0.25927	0.32377	0.22944	0.12004	0.18554	-2.5312	-2.3354	-2.4313	-3.0792	-2.3083	-2.6188	-2.8021	-2.4479	-2.8812	-2.5958	-2.4875	-2.8542	-2.4062	-2.5271	-2.6729	-2.4104	321.800	364.126	338.376	100.961	325.741	360.262	122.928	412.842	127.461	380.656	144.640	100.714	398.096	404.890	201.624	422.086	0.0010608	0.00051528	0.00017399	1352.5	1.0475e-05	6.8324e-06	1361.1	361.26	2.9423e-06	7.7494e-06	414.03	138.02	119.31	39.864	7.169e-06	49.746	0.00050458	0.00050123	0.00013924	1379.6	5.4842e-06	5.5272e-06	1383.1	369.52	5.5841e-06	5.6624e-06	422.19	140.58	121.89	41.172	5.6899e-06	51.151	302.038	202.033	158.650	87.353	245.460	212.993	87.275	92.054	319.314	147.049	91.234	96.017	96.468	100.961	223.618	100.054	-8191	255	
20937.939	1	1	0	0	0.38184	0.2618	0.082037	0.25886	0.072536	0.22465	0.27879	0.30897	0.061592	0.20699	0.14269	0.15847	0.33002	0.073346	0.079143	0.39937	-2.2104	-2.5375	-2.4125	-3.0687	-2.3792	-2.4813	-2.9396	-2.3708	-2.825	-2.7229	-2.4875	-2.8187	-2.5542	-2.5187	-2.8292	-2.3563	314.812	188.762	350.060	293.821	308.794	357.927	395.268	308.580	128.624	260.697	281.099	141.588	163.001	390.205	137.412	383.770	0.0011772	0.00061894	0.00028392	1354.9	4.3117e-06	9.1558e-06	1362.1	362.04	1.2005e-05	2.9621e-06	414.36	138.57	120.04	39.826	2.0328e-06	49.46	0.00053867	0.00053342	0.00014681	1381.6	5.8178e-06	5.8374e-06	1384.9	370.47	5.8206e-06	5.7457e-06	423.09	140.81	122.17	41.22	5.6731e-06	51.172	309.457	154.905	183.054	87.179	101.280	238.190	86.995	91.968	252.235	269.128	91.443	96.206	96.886	100.836	89.570	99.827	-8191	255	
20938.035	1	1	0	0	0.20266	0.1723	0.12592	0.33945	0.17628	0.4187	0.17348	0.30795	0.071919	0.3384	0.0078542	0.21663	0.27418	0.25893	0.068235	0.24588	-2.0438	-2.4542	-2.3875	-2.9125	-2.5896	-2.5563	-3.0542	-2.5333	-2.5875	-2.7583	-2.3708	-2.8125	-2.3729	-2.4792	-2.9042	-2.5021	381.493	345.077	108.211	383.225	144.630	358.575	369.297	400.625	425.467	133.977	304.155	363.069	148.302	427.707	175.941	433.622	0.0010979	0.0010303	0.00021029	1358.2	1.1268e-05	3.4303e-06	1367.3	363.17	5.9017e-06	2.4437e-06	413.23	138.28	120.17	39.85	4.83e-06	49.676	0.00052567	0.00052082	0.00014366	1382.9	5.624e-06	5.6415e-06	1386.4	369.99	5.5644e-06	5.5427e-06	421.9	140.49	122.22	41.178	5.5803e-06	51.213	307.346	149.993	177.161	87.288	203.863	236.343	87.125	91.872	324.958	158.028	91.418	96.201	96.794	100.990	253.764	100.089	-8191	255	
20938.131	1	1	0	0	0.29009	0.19193	0.1105	0.22256	0.11385	0.1589	0.31238	0.16526	0.26246	0.018426	0.18775	0.21441	0.19175	0.13684	0.22395	0.20797	-2.1417	-2.7562	-2.4875	-2.9229	-2.4625	-2.3708	-3.1521	-2.5021	-2.6229	-2.7083	-2.375	-2.8187	-2.5812	-2.6708	-2.9292	-2.3937	320.786	242.069	176.941	415.490	319.772	355.457	409.357	273.892	77.350	196.350	413.504	396.650	368.498	163.822	354.093	373.250	0.0012186	0.00054962	0.00023977	1359.6	5.5763e-06	6.4411e-06	1371.9	363.81	6.536e-06	6.8244e-06	414.33	137.94	119.95	39.891	1.3212e-05	49.523	0.00052801	0.00052074	0.00014229	1385.5	5.6593e-06	5.7694e-06	1389.3	371.33	5.7913e-06	5.8417e-06	423.22	141.13	122.25	41.301	5.8016e-06	51.281	308.344	172.053	118.020	87.112	223.426	228.083	86.980	91.896	266.040	247.264	91.239	96.104	96.446	100.632	192.055	100.177	-8191	255	
20938.229	1	1	0	0	0.082232	0.19804	0.19268	0.17971	0.068555	0.10582	0.32294	0.11114	0.19722	0.078094	0.18279	0.079926	0.10888	0.20029	0.28733	0.27016	-2.1271	-2.6521	-2.3125	-2.9104	-2.6583	-2.5583	-3.0771	-2.5833	-2.3958	-2.7042	-2.4604	-2.8479	-2.7792	-2.4542	-2.7042	-2.6604	139.508	403.680	298.168	396.366	261.893	362.370	346.418	96.190	183.266	179.833	343.418	336.539	212.647	101.793	309.450	357.777	0.0011877	0.00017528	0.0002815	1361.8	9.6318e-06	3.2207e-06	1367.7	361.73	2.1012e-06	9.023e-06	413.21	138.03	118.46	39.829	7.0268e-06	49.435	0.00054458	0.00053236	0.00014723	1387.6	5.7712e-06	5.7303e-06	1386.7	369.79	5.6395e-06	5.6277e-06	421.79	140.72	121.61	41.147	5.5739e-06	51.033	308.973	364.552	156.522	87.225	244.841	298.976	86.947	92.198	334.797	213.588	91.309	96.302	96.357	101.058	228.200	100.238	-8191	255	
20938.346	1	1	0	0	0.31436	0.088302	0.057033	0.32574	0.1805	0.085775	0.24394	0.12586	0.04555	0.17149	0.12709	0.2078	0.054563	0.26853	0.10753	0.2354	-1.9354	-2.75	-2.2292	-2.7125	-2.8312	-2.2729	-2.95	-2.6208	-2.4604	-2.8854	-2.4062	-2.6604	-2.9542	-2.3208	-2.6917	-2.6458	298.530	289.669	83.034	430.897	230.330	129.268	329.946	325.887	273.886	107.254	428.870	334.204	116.050	414.867	171.557	123.816	0.0011301	0.00049282	0.00011423	1354.2	8.1242e-06	4.0303e-06	1365.4	363.61	2.8308e-06	1.8397e-06	412.68	138.14	118.99	39.895	5.6731e-06	49.502	0.00052078	0.00051411	0.00014233	1385.4	5.6482e-06	5.7046e-06	1387.5	370.46	5.7777e-06	5.7038e-06	422.23	140.78	121.9	41.229	5.7866e-06	51.134	310.784	127.936	91.597	87.312	227.045	258.084	87.089	92.116	303.368	233.652	91.136	95.924	96.564	100.961	166.067	100.081	-8191	255	
20938.418	1	1	0	0	0.16731	0.17261	0.20493	0.1667	0.14769	0.12746	0.18271	0.079992	0.1397	0.25795	0.12174	0.16079	0.049901	0.39149	0.22516	0.10871	-1.8271	-2.7313	-2.3833	-2.775	-2.5917	-2.3854	-2.9708	-2.7542	-2.3979	-2.9083	-2.6458	-2.6604	-2.9479	-2.4896	-2.7208	-2.6771	302.765	138.553	267.070	372.681	74.407	87.800	353.464	107.111	82.612	147.872	302.614	372.603	312.824	156.840	192.089	100.056	0.001177	0.00013394	0.00022156	1356.5	3.0007e-06	4.4101e-06	1365.4	361.51	8.4204e-06	6.8999e-06	413.2	137.53	119.58	39.728	7.283e-06	49.586	0.00053704	0.00052881	0.00014676	1384.4	5.7512e-06	5.7467e-06	1387.4	369.75	5.7434e-06	5.7416e-06	422.34	140.62	121.89	41.096	5.6497e-06	51.171	312.642	363.707	196.790	87.288	238.256	177.207	87.149	92.126	220.203	186.636	91.560	96.041	96.670	100.652	171.765	100.061	-8191	255	
20938.516	1	1	0	0	0.14876	0.11733	0.085826	0.28215	0.099906	0.14645	0.2454	0.16368	0.11072	0.23632	0.24033	0.2284	0.057009	0.068321	0.10306	0.30889	-1.8875	-2.7188	-2.4313	-2.6729	-2.6958	-2.3146	-2.7792	-2.8312	-2.2646	-2.7396	-2.6771	-2.3979	-2.8688	-2.4896	-2.5938	-2.7833	149.478	158.119	271.911	385.944	344.576	118.932	347.229	350.659	132.309	181.437	273.903	82.726	273.259	313.823	363.048	371.229	0.0010274	0.00058223	0.00014802	1355.4	2.2807e-06	1.84e-06	1363.7	361.77	5.1564e-06	5.4063e-06	413.05	137.67	119.08	39.798	8.0327e-06	49.634	0.00051647	0.00050691	0.00014085	1382.9	5.4072e-06	5.4216e-06	1382.5	368.88	5.3983e-06	5.4028e-06	421.2	140.43	121.55	41.036	5.4187e-06	51.038	304.230	198.691	215.555	87.282	188.589	413.201	87.058	92.022	282.556	219.502	91.610	96.080	96.781	101.047	176.349	99.868	-8191	255	
20938.635	1	1	0	0	0.18672	0.17771	0.24863	0.30463	0.16269	0.17444	0.24938	0.36313	0.13463	0.15336	0.21179	0.05483	0.095194	0.042695	0.13117	0.13558	-1.7958	-2.7604	-2.5396	-2.5375	-2.9604	-2.5687	-2.7875	-2.9021	-2.3771	-2.6729	-2.5896	-2.575	-3.0438	-2.6333	-2.6125	-2.85	148.216	243.007	255.992	383.383	133.283	388.948	322.950	362.280	211.157	97.271	423.854	135.289	178.420	304.529	195.554	317.364	0.0011136	0.00061026	9.8535e-05	1361.6	7.1288e-06	4.7742e-06	1364.8	362.72	3.5942e-06	2.4355e-06	412.25	137.73	119.34	39.78	8.3771e-06	49.428	0.00050695	0.00050724	0.00014094	1384.6	5.5784e-06	5.6213e-06	1385.9	369.65	5.682e-06	5.8099e-06	421.91	140.82	121.83	41.149	5.8949e-06	51.245	317.443	177.044	205.346	87.322	242.163	229.336	87.015	91.786	244.928	149.471	91.179	96.276	96.501	101.018	204.763	100.099	-8191	255	
20938.730	1	1	0	0	0.16183	0.21028	0.044045	0.24836	0.17331	0.32274	0.26781	0.086437	0.27454	0.28986	0.12605	0.19208	0.2173	0.34909	0.11006	0.18317	-1.8542	-2.6562	-2.6813	-2.4542	-2.775	-2.5917	-2.7083	-2.975	-2.3729	-2.7854	-2.8229	-2.35	-3.0021	-2.4938	-2.5792	-2.8792	406.391	97.260	166.457	425.927	297.517	179.051	388.931	350.631	374.784	323.758	332.695	263.385	344.327	400.348	249.005	77.438	0.0010616	0.00057654	8.0415e-05	1359.2	7.1236e-06	5.1876e-06	1363	361.64	6.5347e-06	4.4763e-06	412.66	137.77	119.15	39.784	8.2484e-06	49.549	0.00053964	0.00053686	0.00014947	1386.5	5.8605e-06	5.7775e-06	1385.4	369.77	5.6589e-06	5.7051e-06	421.36	140.49	121.49	41.066	5.5564e-06	51.006	308.996	128.416	414.698	87.334	204.387	273.976	87.039	91.989	273.341	199.655	91.205	95.909	96.511	101.118	227.545	100.016	-8191	255	
20938.826	1	1	0	0	0.14941	0.26085	0.22088	0.21954	0.11652	0.16513	0.11532	0.15829	0.146	0.090119	0.27769	0.30063	0.014538	0.28288	0.12576	0.13858	-1.9167	-2.6312	-2.4667	-2.5687	-2.7271	-2.5354	-2.6208	-2.9854	-2.3354	-2.7104	-2.8458	-2.5854	-2.8875	-2.875	-2.5271	-2.9188	144.267	235.155	157.029	365.484	205.739	301.538	321.989	416.033	423.423	124.369	365.409	96.876	150.659	383.828	83.368	362.949	0.00103	0.00055172	0.00020381	1352.4	7.6106e-06	2.156e-06	1363.1	362.25	1.1515e-05	7.758e-06	410.85	137.93	119.03	39.843	1.2383e-05	49.313	0.00051235	0.0005037	0.00013906	1379.4	5.4461e-06	5.4677e-06	1382.8	368.59	5.4332e-06	5.4534e-06	420.67	140.31	121.14	41.018	5.4381e-06	50.941	312.168	149.309	219.747	87.231	193.930	287.918	87.040	92.080	274.573	242.233	91.168	95.927	96.544	100.925	172.812	99.911	-8191	255	
20938.947	1	1	0	0	0.080696	0.32269	0.11155	0.27673	0.26489	0.21563	0.18179	0.42503	0.12106	0.10517	0.19152	0.057564	0.13297	0.15305	0.1759	0.16993	-2.0875	-2.5583	-2.8104	-2.5208	-2.7	-2.4542	-2.6042	-2.9604	-2.4792	-2.5833	-2.7271	-2.3312	-2.7958	-2.5687	-2.3438	-2.9104	378.070	406.227	293.320	108.778	249.650	393.741	416.484	385.197	249.718	341.514	87.538	107.518	410.185	146.387	329.378	185.286	0.001095	0.0003367	7.5683e-05	1355.6	7.8167e-06	5.862e-06	1363.4	361.32	6.4675e-06	1.0609e-05	412.17	137.3	119.16	39.621	1.2727e-05	49.572	0.00050565	0.00049842	0.00013715	1378.4	5.4552e-06	5.445e-06	1380.7	368.23	5.3984e-06	5.4756e-06	419.86	139.97	121.23	40.905	5.2528e-06	50.856	318.330	121.748	114.322	87.076	206.724	225.728	87.142	91.954	254.685	193.997	91.357	96.237	96.597	100.951	180.745	100.076	-8191	255	
20939.045	1	1	0	0	0.22135	0.14588	0.13748	0.2235	0.30264	0.064296	0.046722	0.14345	0.14107	0.14704	0.058463	0.13103	0.22433	0.22062	0.25625	0.14296	-1.925	-2.3604	-2.7792	-2.5271	-2.5208	-2.7208	-2.5646	-3.0167	-2.5938	-2.5979	-2.9604	-2.4396	-2.6667	-2.7188	-2.3292	-2.7583	129.947	249.900	176.543	354.132	377.921	340.411	391.317	388.647	231.059	198.887	377.107	411.007	429.334	221.647	330.808	77.771	0.0012165	0.00034382	0.00012495	1351	7.6419e-06	7.9168e-07	1353.6	360.02	3.473e-06	4.5581e-06	410.34	136.8	118.61	39.548	7.3109e-06	49.294	0.00048375	0.00047764	0.00012907	1375.3	5.1106e-06	5.0378e-06	1373.4	365.83	5.0135e-06	5.0009e-06	416.98	139.24	120.34	40.639	5.07e-06	50.572	309.681	152.612	135.408	87.236	209.063	299.559	87.137	91.923	295.151	204.947	91.027	96.074	96.490	100.882	262.067	100.114	-8191	255	
20939.115	1	1	0	0	0.13266	0.074642	0.20395	0.18776	0.10153	0.12751	0.090276	0.038092	0.081835	0.085412	0.38655	0.053117	0.068273	0.256	0.29928	0.093496	-2.0729	-2.2292	-2.8354	-2.5667	-2.775	-2.7313	-2.3271	-2.8542	-2.4646	-2.4292	-2.8708	-2.5687	-2.7104	-2.7958	-2.4771	-2.8104	299.963	250.849	341.530	98.104	96.638	357.058	381.184	184.632	83.204	388.536	280.243	396.188	418.626	369.382	174.315	176.506	0.0013014	0.00032348	0.00017714	1345.9	9.278e-06	1.9147e-06	1352.1	359.55	8.6861e-06	5.5825e-06	409.6	136.75	118.99	39.461	4.9629e-06	49.35	0.0004742	0.00046568	0.00012797	1368.7	5.0982e-06	5.0836e-06	1369.8	366.12	5.1204e-06	5.1261e-06	417.82	139.12	120.55	40.714	5.1032e-06	50.725	299.451	147.681	222.247	87.327	193.900	227.244	86.927	92.047	266.930	224.441	91.189	96.003	96.581	100.950	136.044	100.323	-8191	255	
20939.236	1	1	0	0	0.19594	0.15798	0.10808	0.46498	0.12793	0.23932	0.39637	0.11747	0.26798	0.088426	0.13636	0.055506	0.20359	0.28466	0.079999	0.18779	-2.1229	-2.5583	-2.9313	-2.6646	-2.6229	-2.7938	-2.6625	-2.9708	-2.7229	-2.3271	-2.9917	-2.6562	-2.5563	-2.8479	-2.3021	-2.8521	290.172	156.018	117.210	327.159	417.582	343.718	356.140	422.022	175.339	119.881	113.976	268.927	374.474	80.913	103.694	76.628	0.0011561	3.2754e-05	8.9409e-05	1347.5	7.6203e-06	6.2735e-06	1353.4	359.11	6.1018e-06	1.9121e-06	410.18	137.11	118.69	39.633	1.0544e-05	49.44	0.00048037	0.00046919	0.00013026	1370.5	5.1758e-06	5.2142e-06	1373.1	365.91	5.1942e-06	5.2156e-06	417.85	139.46	120.71	40.832	5.3394e-06	50.886	305.276	115.000	122.761	87.210	260.968	252.737	87.042	91.943	268.727	85.131	91.202	96.177	96.878	101.080	223.979	99.997	-8191	255	
20939.330	1	1	0	0	0.11518	0.07303	0.15592	0.19161	0.11948	0.2939	0.21996	0.1179	0.42878	0.22742	0.26617	0.067376	0.070418	0.22403	0.21539	0.053741	-2.1583	-2.3937	-2.6354	-2.6979	-2.3083	-2.8396	-2.5187	-2.7125	-2.6833	-2.1958	-2.8812	-2.6625	-2.5125	-2.8563	-2.3458	-2.7292	280.541	393.462	363.829	387.716	153.330	371.040	312.550	409.051	357.070	388.804	404.935	388.679	363.115	110.411	371.712	333.697	0.0011737	0.00088943	0.00020455	1356.6	4.1351e-06	7.8028e-06	1357.4	360.46	1.3007e-06	2.3594e-06	411.07	136.77	119.14	39.67	6.2231e-06	49.354	0.00049829	0.00048731	0.00013595	1377.6	5.338e-06	5.3373e-06	1376.5	366.97	5.3257e-06	5.3034e-06	419.26	139.47	120.9	40.851	5.3134e-06	50.819	314.851	150.227	115.133	87.231	237.780	188.027	87.102	92.120	204.708	188.454	91.211	96.022	96.829	101.037	215.274	99.939	-8191	255	
20939.428	1	1	0	0	0.056692	0.23825	0.15345	0.10225	0.18301	0.15173	0.43416	0.11574	0.26985	0.068114	0.20059	0.27622	0.12585	0.30371	0.13933	0.18833	-2.4729	-2.1854	-2.85	-2.9	-2.4104	-2.8333	-2.5875	-2.6688	-2.6917	-2.3521	-2.8646	-2.7625	-2.4188	-2.6396	-2.3563	-2.7313	137.081	382.457	425.338	407.495	241.354	257.613	389.164	111.184	379.411	117.060	375.400	133.025	278.934	405.636	170.897	404.106	0.00099917	0.00051317	0.0002665	1349	1.0076e-05	2.9827e-06	1359.1	358.7	3.4415e-06	2.1043e-06	410.78	137.65	118.86	39.614	7.812e-06	49.48	0.00049252	0.00048087	0.00013307	1372.3	5.2808e-06	5.2211e-06	1373.4	366.34	5.2468e-06	5.2428e-06	418.81	139.65	120.81	40.811	5.3141e-06	50.833	300.071	87.097	205.392	87.089	218.167	280.175	87.052	92.153	433.363	120.228	91.308	96.059	96.622	100.677	222.573	100.190	-8191	255	
20939.523	1	1	0	0	0.060633	0.17174	0.22664	0.3297	0.21972	0.19115	0.32251	0.099039	0.16691	0.24256	0.23242	0.25089	0.080498	0.16283	0.4538	0.27558	-2.3708	-2.3708	-2.625	-2.8125	-2.3375	-2.6333	-2.7062	-2.4813	-2.9333	-2.5104	-2.8104	-2.6958	-2.5187	-2.9	-2.5333	-2.575	399.282	140.258	401.817	403.171	181.904	198.222	401.929	378.017	206.171	218.072	111.380	426.901	389.363	117.860	124.752	355.404	0.0011656	0.00090161	0.0001782	1347.3	4.3489e-06	3.1926e-06	1356.8	359.48	5.209e-06	9.0254e-06	409.83	137.38	118.59	39.691	7.8249e-06	49.363	0.00049478	0.00048423	0.00013508	1372.9	5.3263e-06	5.2703e-06	1374.7	366.96	5.2731e-06	5.273e-06	418.31	139.73	120.85	40.826	5.2951e-06	50.757	311.586	199.401	116.370	87.164	194.803	319.919	87.077	92.070	299.806	193.116	91.401	96.053	96.773	100.999	187.337	100.264	-8191	255	
20939.645	1	1	0	0	0.1144	0.14517	0.053547	0.26709	0.15811	0.21219	0.16686	0.35614	0.10337	0.042607	0.25516	0.46933	0.13649	0.098734	0.066365	0.29475	-2.3896	-2.3479	-2.5687	-2.7958	-2.3187	-2.8312	-2.6688	-2.525	-2.8812	-2.2438	-2.6146	-2.6875	-2.4313	-2.9021	-2.4813	-2.7271	407.622	353.997	408.637	422.763	358.809	100.245	111.863	356.753	111.721	152.937	422.186	376.045	97.165	353.326	97.805	400.555	0.0011271	0.00069188	0.00038343	1351.9	4.4571e-06	3.5826e-06	1351.4	358.55	5.5496e-06	2.6902e-06	410.05	136.97	118.41	39.438	6.4775e-06	49.398	0.00048744	0.00047826	0.00013399	1373.6	5.1887e-06	5.2104e-06	1372.1	366.31	5.2038e-06	5.215e-06	418.3	139.59	120.51	40.734	5.262e-06	50.824	303.936	168.525	165.634	87.137	282.155	218.343	86.910	92.067	330.702	228.272	91.344	96.354	96.461	101.139	211.391	99.762	-8191	255	
20939.715	1	1	0	0	0.14404	0.1552	0.25845	0.097219	0.36775	0.19249	0.14086	0.28482	0.12043	0.25705	0.30875	0.21299	0.10234	0.28274	0.15054	0.14678	-2.3208	-2.3542	-2.475	-2.8021	-2.3312	-2.7313	-2.7	-2.5229	-2.7625	-2.4229	-2.6521	-2.9042	-2.4604	-2.8688	-2.6875	-2.5	251.814	330.612	118.457	247.162	174.092	270.658	290.092	355.325	189.958	123.787	392.307	397.962	328.657	391.462	117.223	114.476	0.0012056	0.00051579	0.00027402	1344.6	9.1808e-06	5.5572e-06	1354.2	359.66	7.4689e-06	3.1972e-06	410.51	136.83	118.43	39.669	6.721e-06	49.447	0.0004827	0.00047656	0.00013312	1371.3	5.1811e-06	5.141e-06	1372.1	366.22	5.134e-06	5.1387e-06	418.56	139.21	120.71	40.795	5.1766e-06	50.742	309.321	117.398	206.676	87.335	241.296	163.450	87.169	92.083	240.133	206.109	91.237	96.276	96.668	101.033	175.175	99.849	-8191	255	
20939.811	1	1	0	0	0.065116	0.23115	0.018131	0.34491	0.15797	0.14151	0.33325	0.072695	0.15045	0.095209	0.1459	0.24008	0.34181	0.053906	0.24143	0.081125	-2.2812	-2.3875	-2.4729	-3.0229	-2.525	-2.7687	-2.9625	-2.5167	-2.9354	-2.4729	-2.5438	-2.8438	-2.3958	-2.8312	-2.6188	-2.4958	294.045	155.684	180.495	103.440	391.128	322.506	348.318	289.772	102.963	360.034	164.211	339.278	284.657	256.628	296.506	416.593	0.0011618	0.00096191	0.00032134	1345.5	6.4141e-06	6.9425e-06	1350.4	360.11	3.3574e-06	2.3413e-06	408.94	136.96	119.26	39.574	6.1034e-06	49.673	0.00048011	0.00046622	0.00012976	1369.8	5.1383e-06	5.0846e-06	1370.7	366.34	5.0608e-06	5.0938e-06	417.31	139.31	120.81	40.762	5.0193e-06	50.721	310.834	159.401	174.766	87.267	195.268	215.745	87.051	92.030	265.988	264.471	91.383	96.412	96.504	100.666	228.086	100.213	-8191	255	
20939.908	1	1	0	0	0.29776	0.065419	0.0087808	0.19927	0.22151	0.019707	0.26617	0.24069	0.31919	0.37	0.25592	0.15977	0.28036	0.21826	0.18986	0.065375	-2.4062	-2.3667	-2.4417	-2.95	-2.5021	-2.6583	-2.9917	-2.5187	-2.8417	-2.6167	-2.6854	-3.0042	-2.5958	-2.5083	-2.7167	-2.1021	400.887	344.787	212.793	377.201	348.830	145.150	354.420	388.122	103.104	182.906	350.618	85.935	346.650	75.688	389.251	220.066	0.00094202	0.0010315	0.00032575	1348.4	4.0917e-06	2.4068e-06	1354.2	359.05	5.5548e-06	7.2569e-06	411.77	136.94	118.56	39.426	3.9845e-06	49.262	0.00047212	0.00046558	0.00013082	1370	5.0847e-06	5.143e-06	1372.2	366.24	5.1203e-06	5.2017e-06	418.21	139.47	120.67	40.751	5.1228e-06	50.675	310.435	199.226	221.782	87.317	241.439	230.202	87.168	92.063	279.902	153.627	91.136	95.895	96.614	100.987	200.841	99.844	-8191	255	
20940.027	1	1	0	0	0.08855	0.081388	0.24009	0.35319	0.33738	0.16088	0.35615	0.092388	0.19198	0.088565	0.42677	0.1306	0.1177	0.14267	0.056284	0.27718	-2.15	-2.6104	-2.2792	-2.85	-2.2125	-2.6208	-3.0458	-2.35	-2.725	-2.5875	-2.4562	-3.0604	-2.5438	-2.6042	-2.7208	-2.4208	258.139	86.451	157.160	378.776	95.832	274.904	350.771	412.592	424.851	129.806	422.898	115.559	253.053	95.367	125.752	399.543	0.0011267	0.00044175	0.00023353	1350.4	7.066e-06	1.1088e-06	1361.1	360.51	8.3554e-06	9.1389e-06	410.2	137.87	119.2	39.688	9.8139e-06	49.549	0.00048204	0.00047428	0.00013102	1373.1	5.1594e-06	5.2216e-06	1375.9	367.13	5.2618e-06	5.301e-06	419.22	139.82	121.29	40.94	5.5059e-06	51.02	306.195	132.868	186.897	87.343	216.001	241.780	87.125	91.945	313.135	254.258	91.278	96.171	96.814	100.960	182.949	99.717	-8191	255	
20940.123	1	1	0	0	0.24182	0.26624	0.22944	0.36531	0.14114	0.086604	0.13648	0.2524	0.19638	0.28112	0.31797	0.039714	0.19164	0.25117	0.23976	0.28868	-2.4229	-2.7333	-2.2167	-2.8312	-2.4938	-2.5292	-3.0125	-2.55	-2.5833	-2.6229	-2.4667	-2.8708	-2.5583	-2.5479	-2.95	-2.5396	430.683	256.046	263.180	366.867	432.699	211.442	432.762	422.050	408.598	213.384	409.551	433.574	339.139	431.191	222.488	129.986	0.001047	0.00036417	0.00019163	1355.2	1.833e-06	4.3504e-06	1366.3	362.2	2.9327e-06	1.6103e-05	415.41	139.05	120.65	40.417	1.321e-05	50.074	0.00052628	0.00052602	0.00014861	1382.7	6.0193e-06	6.1171e-06	1389.1	372.08	6.4306e-06	6.573e-06	426.74	142.49	123.92	42.054	6.965e-06	52.28	311.121	152.227	142.272	87.261	191.639	235.016	87.036	91.967	184.485	189.765	91.210	95.869	96.526	100.895	216.950	99.649	-8191	255	
20940.219	1	1	0	0	0.11751	0.28153	0.016457	0.22108	0.074081	0.25133	0.28341	0.091607	0.20838	0.21202	0.37402	0.051961	0.16053	0.1705	0.23631	0.15268	-2.0833	-2.5875	-2.3396	-2.9208	-2.5271	-2.3688	-3.025	-2.5833	-2.6542	-2.825	-2.3604	-2.8479	-2.8354	-2.3667	-2.8792	-2.5563	132.644	328.818	173.787	396.362	217.574	327.136	387.299	430.508	375.902	103.858	363.384	348.417	212.127	127.090	333.346	403.607	0.001305	0.00037806	0.00030693	1361.5	3.9014e-06	3.5529e-06	1381.9	368.28	1.3961e-05	3.1919e-06	419.34	141.02	123.14	41.301	4.7554e-06	51.255	0.00065866	0.00066308	0.00018625	1401.9	7.5354e-06	7.5262e-06	1411.3	380.07	7.6557e-06	7.5681e-06	434.29	145.54	126.99	43.175	7.3773e-06	53.349	315.860	80.223	180.957	87.235	199.583	249.010	86.801	91.977	273.482	309.850	91.038	95.985	96.667	100.744	165.829	99.583	-8191	255	
20940.316	1	1	0	0	0.10255	0.19752	0.093103	0.29597	0.045653	0.223	0.20392	0.28877	0.25097	0.070758	0.15957	0.05962	0.092231	0.25705	0.092161	0.28493	-2.125	-2.7625	-2.2792	-2.9875	-2.7729	-2.2958	-3.1083	-2.6521	-2.4854	-2.8333	-2.5333	-2.8292	-2.9458	-2.6437	-2.7771	-2.7208	266.691	240.092	429.851	390.558	307.303	245.328	398.127	419.068	207.376	110.116	307.760	217.492	103.779	316.609	420.633	368.533	0.00084156	0.0012134	0.00019884	1377.3	7.8405e-06	7.6556e-06	1391.5	369.73	6.6281e-06	9.3039e-06	420.82	141.89	123.34	41.689	5.0102e-06	51.295	0.00067066	0.00065314	0.00017967	1411	6.9955e-06	6.9143e-06	1415.3	380.11	6.8422e-06	6.7914e-06	432.84	145.97	126.94	43.318	6.9594e-06	53.573	319.090	115.137	120.263	87.252	242.296	238.108	87.111	92.036	259.927	201.958	91.371	96.047	96.588	100.829	216.537	99.918	-8191	255	
20940.410	1	1	0	0	0.11228	0.37246	0.093868	0.23926	0.14409	0.17259	0.060229	0.24296	0.45991	0.12355	0.36951	0.28678	0.064673	0.10135	0.12615	0.095015	-1.9792	-2.9417	-2.3125	-2.6625	-2.9229	-2.2979	-2.8375	-2.8521	-2.45	-2.8354	-2.3937	-2.3854	-2.7208	-2.4646	-2.6854	-2.7917	205.968	252.789	219.382	400.635	274.698	231.703	120.447	116.951	369.024	178.931	350.162	406.507	414.575	130.097	232.113	93.404	0.0011155	0.0011082	0.00011873	1383.4	5.5485e-06	8.9852e-06	1393.1	372.34	6.7845e-06	4.243e-06	426.7	143.77	124.64	42.411	1.1231e-05	52.045	0.00064913	0.00064401	0.00018164	1417.3	7.1847e-06	7.2599e-06	1424.2	383.86	7.3203e-06	7.3971e-06	438.76	148.01	128.87	44.181	7.5916e-06	54.39	314.833	147.115	213.188	87.246	226.889	229.461	87.042	91.825	232.723	174.718	91.242	95.989	96.465	100.737	172.331	99.610	-8191	255	
20940.510	1	1	0	0	0.18083	0.14658	0.44651	0.21349	0.16273	0.16243	0.15856	0.19294	0.067009	0.023477	0.20879	0.29391	0.27588	0.30834	0.21965	0.27345	-1.8958	-2.7125	-2.5062	-2.7667	-2.7229	-2.3167	-3.0938	-2.8146	-2.45	-3.0042	-2.6188	-2.7021	-2.7625	-2.4771	-2.7521	-2.8229	152.571	261.458	383.335	179.325	429.433	267.584	429.215	407.242	323.198	99.501	404.091	341.877	129.422	410.446	221.093	410.926	0.0012256	0.00062706	0.00022209	1394.9	3.9759e-06	5.3945e-06	1407.5	376.9	7.5192e-06	2.9064e-06	427.29	145.06	125.69	42.388	7.3039e-06	52.239	0.00070034	0.00070093	0.00019488	1431.9	7.6902e-06	7.6886e-06	1438.5	387.62	7.7022e-06	7.6554e-06	442.25	149.38	129.87	44.464	7.6265e-06	54.665	309.160	215.396	142.960	87.186	183.995	216.570	86.904	91.818	247.229	274.276	91.123	96.001	96.482	100.610	206.637	99.871	-8191	255	
20940.629	1	1	0	0	0.091028	0.20521	0.075586	0.41171	0.1307	0.16568	0.29491	0.28612	0.047538	0.14167	0.23244	0.094758	0.28002	0.21312	0.19417	0.16651	-1.7792	-2.6479	-2.6	-2.6354	-2.8583	-2.4042	-2.8688	-2.8646	-2.2104	-2.7208	-2.6479	-2.5187	-3.0187	-2.3771	-2.6292	-2.8375	94.518	310.419	392.071	92.995	332.381	85.116	309.936	342.811	431.693	417.824	427.166	408.565	83.053	430.047	180.975	316.984	0.0013141	0.00045024	0.00019999	1398.7	7.7569e-06	7.5136e-06	1409	377.02	6.7667e-06	1.0428e-05	426	145.97	126.18	42.65	7.0388e-06	52.162	0.0007005	0.00070142	0.00019514	1435.7	7.6439e-06	7.6519e-06	1439.6	388.55	7.5651e-06	7.6147e-06	442.34	149.54	129.79	44.422	7.4862e-06	54.52	322.315	220.012	395.651	87.083	243.864	251.862	86.987	91.721	281.892	229.984	91.258	95.606	96.712	100.705	143.972	99.584	-8191	255	
20940.723	1	1	0	0	0.26181	0.22829	0.20022	0.17276	0.13723	0.18039	0.17015	0.35308	0.11453	0.12695	0.056441	0.30423	0.29299	0.15945	0.13048	0.0956	-1.975	-2.6917	-2.4375	-2.6937	-2.8875	-2.5583	-2.8208	-2.8604	-2.3375	-2.8229	-2.6854	-2.6354	-2.8146	-2.4437	-2.5229	-2.6896	218.877	350.572	112.229	377.415	204.956	153.632	418.230	400.302	382.632	376.742	399.939	311.818	380.467	340.007	193.335	383.798	0.001183	0.00054179	0.00028878	1397.7	7.0396e-06	1.117e-06	1400.9	374.79	6.3263e-06	7.0119e-06	425.53	144.04	125.9	42.451	9.2159e-06	52.153	0.00067906	0.00068036	0.00018769	1431.3	7.3176e-06	7.236e-06	1434.7	385.7	7.1267e-06	7.1901e-06	439.04	148.31	129.01	44.173	7.0778e-06	54.286	299.737	229.023	199.782	87.217	217.523	376.952	87.122	91.807	249.281	319.071	91.152	95.780	96.424	100.620	251.662	99.747	-8191	255	
20940.818	1	1	0	0	0.16702	0.090135	0.15542	0.42089	0.18868	0.10999	0.093356	0.083202	0.21028	0.25355	0.039233	0.076103	0.21868	0.025835	0.2807	0.23351	-1.9021	-2.7333	-2.5604	-2.6646	-2.9062	-2.7771	-2.675	-2.9042	-2.5146	-2.7313	-2.8625	-2.4854	-2.9333	-2.5312	-2.3896	-2.9729	94.196	312.776	294.516	378.763	77.032	83.178	95.721	339.482	413.562	338.768	356.331	390.036	306.717	154.893	396.769	364.856	0.00099738	0.00063873	0.00015125	1396.2	5.5402e-06	3.7329e-06	1409.1	375.21	7.2182e-06	3.4684e-06	426.71	143.87	125.4	42.465	6.8398e-06	52.077	0.00064039	0.00063893	0.0001748	1428.7	6.8264e-06	6.839e-06	1434.3	385.24	6.717e-06	6.8521e-06	438.27	147.66	128.61	44.01	6.8101e-06	54.127	307.959	155.024	134.228	87.135	206.595	202.598	87.103	91.965	288.217	319.743	91.223	95.829	96.553	100.848	188.629	99.608	-8191	255	
20940.939	1	1	0	0	0.21551	0.13462	0.1807	0.38235	0.071271	0.10069	0.15064	0.041214	0.15206	0.18931	0.28217	0.060779	0.089171	0.079001	0.087161	0.22641	-1.8896	-2.6312	-2.6104	-2.6479	-2.7896	-2.5729	-2.6604	-3.05	-2.3917	-2.6312	-2.9229	-2.4562	-3.0958	-2.5771	-2.4354	-2.875	277.102	132.426	245.305	389.731	88.054	105.485	392.057	216.859	381.132	330.963	376.444	393.970	350.012	291.060	308.000	278.376	0.001301	0.00079634	0.00016651	1396.6	3.3863e-06	7.3504e-06	1408.6	376.02	8.7609e-06	1.345e-05	427.94	144.64	125.5	42.381	6.5418e-06	52.264	0.00062698	0.00062884	0.00017396	1428	6.8877e-06	6.9768e-06	1435.1	385.07	6.8856e-06	6.9322e-06	439.44	148.04	128.7	44.003	6.9162e-06	54.171	308.964	163.863	130.092	87.157	215.117	167.348	87.195	91.891	278.218	185.598	91.203	95.913	96.435	100.846	179.772	99.533	-8191	255	
20941.012	1	1	0	0	0.31315	0.1015	0.31351	0.013907	0.070714	0.10118	0.23868	0.28497	0.15201	0.13442	0.28422	0.016075	0.2234	0.28933	0.11071	0.21471	-2.0729	-2.5271	-2.6979	-2.3542	-2.6625	-2.5583	-2.6208	-3.0208	-2.4021	-2.5854	-2.8625	-2.4708	-2.7	-2.6813	-2.4542	-2.9833	133.457	249.451	251.764	338.938	100.065	415.081	377.526	355.522	415.889	150.372	422.135	373.970	354.752	427.017	370.274	308.928	0.0010555	5.4663e-05	0.00032855	1397.5	7.6415e-06	3.8517e-06	1407.6	374.64	8.1118e-06	6.8338e-06	426.21	144.22	125.69	42.346	1.0444e-05	51.924	0.00063446	0.00063243	0.00017413	1427.3	6.7879e-06	6.8367e-06	1432.8	385.08	6.716e-06	6.8211e-06	438.04	147.83	128.67	43.937	6.8945e-06	54.102	308.949	198.500	167.735	87.093	189.148	195.008	87.053	91.912	295.517	140.364	91.033	95.826	96.555	100.762	220.094	99.850	-8191	255	
20941.107	1	1	0	0	0.11737	0.25503	0.11292	0.5464	0.11873	0.014546	0.24348	0.24283	0.052311	0.16309	0.053511	0.2716	0.25996	0.19691	0.13134	0.15682	-2.0646	-2.3958	-2.6625	-2.6104	-2.7042	-2.7146	-2.4	-2.8604	-2.4708	-2.4333	-2.8312	-2.3812	-2.8521	-2.775	-2.2062	-2.9188	399.393	240.056	126.427	424.049	387.264	269.342	370.047	323.830	239.535	231.451	327.679	412.434	430.503	392.049	377.710	301.576	0.0011007	0.00070114	0.00034899	1396	8.8168e-06	5.5264e-06	1408.2	374.07	7.5922e-06	6.0883e-06	424.49	143.83	125.69	42.27	9.199e-06	51.909	0.00064026	0.00063687	0.00017915	1428	7.1059e-06	7.1159e-06	1435.9	385.35	7.1227e-06	7.0892e-06	438.08	147.93	128.78	43.952	6.9465e-06	54.063	313.503	117.245	245.298	87.428	274.870	263.402	87.007	91.709	286.451	231.646	91.374	95.991	96.462	100.612	277.235	99.846	-8191	255	
20941.203	1	1	0	0	0.23219	0.20036	0.16396	0.17721	0.25104	0.11242	0.17094	0.27965	0.023691	0.15255	0.26369	0.29934	0.11273	0.18882	0.14064	0.10885	-1.9333	-2.3292	-2.8729	-2.625	-2.5604	-2.6792	-2.6667	-2.9375	-2.75	-2.3854	-2.8	-2.3917	-2.8312	-2.9771	-2.1562	-2.6979	228.900	354.098	94.479	347.638	381.854	166.043	329.470	372.669	160.772	125.427	427.814	394.883	352.419	281.888	403.138	360.122	0.0010848	0.00042977	0.00017303	1392.5	8.7079e-06	6.5529e-06	1405.5	374.82	6.2041e-06	6.459e-06	424.99	143.88	125.36	42.252	6.7297e-06	51.839	0.00063222	0.00062498	0.00017315	1425.7	6.835e-06	6.7531e-06	1433.4	384.36	6.718e-06	6.7807e-06	437.03	147.49	128.58	43.825	6.897e-06	54.177	306.575	151.282	144.489	87.182	227.915	199.720	87.272	91.791	288.695	215.940	91.266	95.807	96.412	100.703	95.793	99.815	-8191	255	
20941.299	1	1	0	0	0.31239	0.16135	0.073301	0.19691	0.093751	0.066605	0.084035	0.20415	0.06019	0.15729	0.068588	0.32338	0.361	0.29794	0.14441	0.25747	-2.0125	-2.3438	-2.8646	-2.6437	-2.2854	-2.8458	-2.5083	-2.9208	-2.5979	-2.2271	-3.1021	-2.6	-2.6312	-2.8167	-2.375	-2.7979	94.748	253.774	129.040	412.164	243.278	281.959	326.564	351.261	232.264	404.932	75.936	374.833	367.787	107.791	349.270	339.953	0.00087146	0.00071945	0.00010716	1396.1	8.9975e-06	2.9806e-06	1406.3	376.23	8.9896e-06	1.3372e-06	426.08	143.79	125.21	42.087	5.5967e-06	52.035	0.0006442	0.00064589	0.00017788	1430.5	7.0924e-06	7.0706e-06	1433.8	385.93	7.1563e-06	7.0814e-06	439.11	147.95	128.74	43.831	6.9159e-06	53.984	302.247	180.470	226.050	87.007	242.242	172.592	86.917	91.882	304.773	401.565	91.239	95.810	96.509	100.543	223.208	99.908	-8191	255	
20941.420	1	1	0	0	0.11443	0.21857	0.050812	0.28037	0.18498	0.26308	0.46532	0.23334	0.24633	0.14371	0.014715	0.17606	0.092549	0.10739	0.05238	0.13512	-2.25	-2.0729	-2.6312	-2.8271	-2.2896	-2.8604	-2.3646	-2.6542	-2.6312	-2.3937	-2.8792	-2.7021	-2.6292	-3.0396	-2.35	-2.7479	248.001	416.703	203.205	424.168	263.931	265.229	349.648	362.607	136.749	120.662	156.011	217.714	144.183	162.134	269.222	258.354	0.001172	0.0010292	0.00023106	1393.7	2.163e-06	2.4392e-06	1400.1	374.18	9.6062e-06	2.6946e-06	426.17	143.72	124.35	41.942	9.4354e-06	51.648	0.00062949	0.0006153	0.00016964	1425.5	6.6964e-06	6.6092e-06	1426.9	383.46	6.5053e-06	6.6313e-06	436.47	146.8	127.46	43.527	6.6507e-06	53.695	307.168	162.225	214.939	87.294	138.545	131.450	87.117	92.009	246.995	185.399	91.065	95.998	96.380	100.566	179.066	99.797	-8191	255	
20941.516	1	1	0	0	0.17106	0.052648	0.052079	0.52813	0.1544	0.2193	0.26002	0.13759	0.093563	0.095803	0.22703	0.28825	0.22699	0.27429	0.034532	0.23635	-2.2188	-2.0187	-2.6771	-2.85	-2.2812	-2.7917	-2.5333	-2.8333	-2.7562	-2.3979	-2.8479	-2.6083	-2.3937	-2.7771	-2.4667	-2.6896	133.547	163.983	156.632	375.082	372.563	166.063	400.758	391.407	390.184	319.802	150.879	407.712	391.066	317.728	107.170	341.248	0.0011754	0.00021308	5.7579e-05	1394.5	1.0252e-05	2.0973e-06	1396.5	372.82	4.2831e-06	8.5008e-06	423.81	142.88	123.95	41.648	6.4679e-06	51.559	0.00061656	0.00060756	0.00016881	1423.9	6.6549e-06	6.6835e-06	1425.8	382.33	6.6463e-06	6.5904e-06	434.63	146.15	127	43.33	6.4513e-06	53.51	313.754	207.284	133.109	87.174	238.288	345.212	87.162	91.835	252.215	239.625	90.975	95.911	96.321	100.833	172.815	99.861	-8191	255	
20941.588	1	1	0	0	0.062869	0.12655	0.17179	0.24492	0.098232	0.22551	0.23942	0.16327	0.17884	0.16708	0.073872	0.16826	0.20202	0.35712	0.08287	0.17835	-2.3854	-2.2625	-2.7146	-2.8458	-2.3021	-2.7896	-2.6208	-2.6896	-2.7062	-2.3208	-2.8	-2.7979	-2.5187	-2.7979	-2.5229	-2.5604	255.684	182.199	292.674	409.150	373.596	255.393	366.647	297.775	421.930	91.704	153.867	367.412	425.577	344.149	241.496	416.740	0.0012177	0.00046219	0.00028011	1389.5	4.1495e-06	5.3135e-06	1397.5	372.96	1.032e-05	1.0164e-05	424.15	142.07	123.87	41.691	8.2099e-06	51.635	0.00059936	0.00058713	0.00016415	1420.3	6.3927e-06	6.3502e-06	1422.2	381.59	6.3398e-06	6.3689e-06	433.44	145.72	126.94	43.223	6.2607e-06	53.41	313.095	153.126	202.864	87.038	209.498	178.779	87.075	91.857	255.518	202.554	91.196	95.879	96.335	100.815	186.381	99.942	-8191	255	
20941.707	1	1	0	0	0.11376	0.060866	0.040945	0.22796	0.24833	0.19924	0.33261	0.30763	0.10471	0.2724	0.34425	0.090472	0.032579	0.13227	0.28964	0.10297	-2.3521	-2.2854	-2.4229	-2.9104	-2.4625	-2.8167	-2.65	-2.6979	-2.9021	-2.3542	-2.8146	-2.9208	-2.3896	-2.775	-2.6521	-2.5396	404.243	88.275	193.988	79.204	152.424	114.993	412.672	322.569	325.862	416.747	343.466	400.618	428.097	324.569	389.865	390.677	0.0010896	0.00044922	0.00022569	1387	8.9796e-06	1.4008e-06	1397.3	371.09	6.9514e-06	1.2734e-05	421.87	142.95	123.94	41.61	7.483e-06	51.591	0.00057907	0.00056581	0.00015972	1416.6	6.2211e-06	6.2653e-06	1422.2	379.94	6.2099e-06	6.2391e-06	432.78	145.9	126.74	43.076	6.3288e-06	53.348	297.891	134.523	89.400	87.132	213.670	133.043	87.002	91.890	303.497	246.654	91.119	95.725	96.449	100.894	248.513	99.800	-8191	255	
20941.803	1	1	0	0	0.10595	0.27513	0.10724	0.24832	0.13121	0.089788	0.17526	0.27795	0.14843	0.21464	0.15731	0.26671	0.34532	0.13982	0.17483	0.36235	-2.2021	-2.3896	-2.6979	-3	-2.3792	-2.8354	-2.8146	-2.4521	-2.7208	-2.4875	-2.5917	-2.8021	-2.4625	-2.7083	-2.6875	-2.4188	315.844	347.409	366.239	396.369	274.168	282.798	337.953	319.779	233.936	428.212	363.280	111.022	89.252	101.354	95.413	402.591	0.0011927	0.0011794	0.00022286	1385.9	8.1883e-06	7.3631e-06	1397.7	371.8	7.9852e-06	6.8213e-06	423.32	142.37	123.72	41.643	3.1109e-06	51.497	0.00057723	0.00056986	0.00016034	1416.1	6.2314e-06	6.2519e-06	1419.1	380.21	6.2215e-06	6.3125e-06	433.99	145.48	126.67	43.227	6.4541e-06	53.335	320.700	180.724	110.173	87.232	231.739	246.983	86.995	92.026	257.549	267.708	91.327	95.885	96.400	100.622	272.263	99.949	-8191	255	
20941.898	1	1	0	0	0.16876	0.12876	0.12244	0.20795	0.04405	0.041908	0.18312	0.11172	0.042151	0.11159	0.24175	0.19625	0.10642	0.30495	0.081838	0.06211	-2.4021	-2.5792	-2.4271	-3.0187	-2.3771	-2.6646	-2.8771	-2.4562	-2.8354	-2.5083	-2.6854	-2.8354	-2.6208	-2.6562	-2.8333	-2.6083	279.226	322.539	338.367	385.291	174.146	228.252	271.866	305.625	285.828	258.860	163.318	322.361	264.715	337.120	196.980	419.429	0.001384	0.00097962	0.00026737	1386.7	4.9745e-06	6.2295e-06	1396.3	373.17	1.049e-05	5.6549e-06	423.2	142.4	124.28	41.829	8.7602e-06	51.753	0.00059243	0.00059134	0.00016545	1418.8	6.5602e-06	6.5913e-06	1424.5	381.88	6.6154e-06	6.6392e-06	435.13	146.29	127.24	43.402	6.7336e-06	53.636	306.989	190.200	219.060	87.230	212.514	205.353	86.969	92.150	250.799	201.356	91.427	96.059	96.504	100.778	158.892	99.385	-8191	255	
20942.020	1	1	0	0	0.056662	0.090983	0.043981	0.1947	0.060125	0.17763	0.45893	0.28245	0.050643	0.069828	0.035206	0.2068	0.36015	0.22015	0.030841	0.19383	-2.2479	-2.4104	-2.4208	-3.0271	-2.3417	-2.5938	-2.8979	-2.4625	-2.7521	-2.5521	-2.5417	-2.9271	-2.4354	-2.5917	-2.8125	-2.4042	188.505	89.896	369.650	422.557	288.176	247.727	384.102	380.327	264.549	214.461	74.293	385.301	418.947	391.766	218.483	340.430	0.0011993	0.0010715	0.00015832	1391	9.2338e-06	6.3322e-06	1404.1	371.87	6.2122e-06	5.4968e-06	425.01	143.42	123.97	41.869	3.9971e-06	51.481	0.00062164	0.000615	0.00017117	1422.5	6.6692e-06	6.7191e-06	1430.5	382.28	6.6741e-06	6.6767e-06	436.2	146.57	127.32	43.473	6.5932e-06	53.544	313.956	114.391	196.070	87.022	193.387	244.876	87.232	91.870	307.692	248.555	91.234	95.686	96.412	100.659	217.371	99.832	-8191	255	
20942.115	1	1	0	0	0.10538	0.23294	0.12211	0.30926	0.19822	0.13816	0.084975	0.048892	0.25286	0.062271	0.45831	0.14097	0.15066	0.13995	0.18285	0.18157	-2.2313	-2.6583	-2.3521	-3.0563	-2.3937	-2.6021	-3.1583	-2.4688	-2.6792	-2.6771	-2.5042	-2.875	-2.4833	-2.5479	-2.8229	-2.4583	262.335	297.532	293.587	361.729	163.536	176.645	414.847	263.499	399.392	341.461	375.564	390.259	79.230	345.147	264.822	309.725	0.0012709	0.001138	0.00027099	1389.3	1.1542e-05	7.39e-06	1400.2	372.45	9.3251e-06	6.6937e-06	423.56	142.8	124	41.962	7.2745e-06	51.724	0.00060944	0.00060281	0.00016828	1422.5	6.602e-06	6.6159e-06	1427.3	381.86	6.5942e-06	6.5339e-06	435.22	146.39	127.27	43.492	6.5526e-06	53.624	308.561	148.115	132.437	87.235	201.474	246.270	86.782	91.855	276.768	263.085	91.271	95.827	96.406	100.632	250.755	99.692	-8191	255	
20942.213	1	1	0	0	0.27773	0.26808	0.22352	0.24945	0.20073	0.045148	0.26431	0.19284	0.036534	0.1702	0.13547	0.16146	0.23242	0.085246	0.31238	0.15374	-2.3458	-2.5792	-2.3396	-3.0271	-2.5	-2.4271	-2.9562	-2.6063	-2.5333	-2.8063	-2.5167	-2.9042	-2.5896	-2.5458	-2.7167	-2.4813	266.194	168.810	263.288	353.072	368.932	280.080	357.477	158.513	272.774	337.586	348.395	305.342	410.098	201.348	187.804	433.845	0.0012543	0.00073473	0.00025964	1394.2	5.7505e-06	4.6643e-06	1405.1	372.61	5.1751e-06	6.2924e-06	423.16	143.22	123.99	41.857	1.1852e-05	51.903	0.00061307	0.00060809	0.00016941	1424.4	6.6488e-06	6.6686e-06	1427.2	382.49	6.6509e-06	6.694e-06	435.45	146.54	127.28	43.435	6.5854e-06	53.7	310.106	232.392	205.227	87.302	188.134	390.389	87.021	92.029	237.045	238.542	90.984	95.823	96.532	101.057	192.759	99.806	-8191	255	
20942.309	1	1	0	0	0.34856	0.18694	0.12236	0.20722	0.27349	0.039133	0.36813	0.24007	0.093788	0.11155	0.17261	0.22309	0.15225	0.15252	0.12558	0.077039	-2.2146	-2.8	-2.2062	-2.9437	-2.6833	-2.3917	-2.8292	-2.55	-2.6188	-2.9813	-2.3917	-2.6833	-2.6229	-2.7125	-2.8458	-2.6979	257.659	115.688	301.528	345.420	278.392	89.539	365.948	95.732	373.433	220.630	325.698	357.514	432.920	104.681	375.603	417.228	0.0011111	0.00083708	0.00011449	1391.9	5.3624e-06	2.7082e-06	1402.7	372.36	1.0682e-05	6.9374e-06	422.39	143.02	123.88	41.753	4.6451e-06	51.371	0.00060711	0.0005955	0.00016496	1421.6	6.4942e-06	6.482e-06	1426.1	381.94	6.4848e-06	6.4553e-06	434.37	146.52	127.22	43.399	6.5018e-06	53.552	306.896	131.402	166.433	87.161	271.837	196.525	87.157	91.869	264.776	324.175	91.110	96.280	96.405	100.862	159.602	99.729	-8191	255	
20942.404	1	1	0	0	0.10983	0.13558	0.11051	0.16127	0.045459	0.26462	0.32251	0.2295	0.18608	0.10784	0.41555	0.28441	0.24893	0.17308	0.15607	0.14806	-2.2562	-2.7083	-2.2583	-2.7875	-2.6729	-2.2812	-3.1188	-2.4979	-2.7771	-2.9875	-2.6333	-2.6271	-2.7729	-2.4875	-2.9292	-2.6208	90.087	212.270	292.354	410.587	112.643	138.432	404.970	432.181	231.385	366.005	394.219	414.611	407.931	420.728	136.528	96.053	0.0012362	0.00086924	0.00019873	1390.8	5.7608e-06	7.0984e-06	1403	372.34	5.5841e-06	8.6018e-06	422.25	143.27	124.19	42.016	1.002e-05	51.763	0.00060532	0.00059504	0.00016607	1422.5	6.5874e-06	6.5441e-06	1426.5	382.06	6.5095e-06	6.4859e-06	434.89	146.47	127.07	43.393	6.4101e-06	53.504	303.336	175.266	150.718	87.332	218.713	215.567	86.898	91.999	255.731	252.226	91.096	95.933	96.341	100.596	150.179	99.790	-8191	255	
20942.500	1	1	0	0	0.37917	0.09915	0.030234	0.17572	0.20116	0.12754	0.038188	0.22141	0.17227	0.045408	0.10304	0.049558	0.22367	0.085147	0.24249	0.072053	-2.0708	-2.6729	-2.4208	-2.7625	-2.6917	-2.4313	-3.0083	-2.7875	-2.4667	-2.8125	-2.4583	-2.5979	-2.775	-2.4479	-2.7687	-2.725	147.135	382.646	359.440	134.630	298.611	269.377	169.720	395.147	93.524	111.311	124.087	401.775	384.121	359.959	303.590	333.316	0.0011499	0.00096661	0.0001729	1391	5.1229e-06	3.8856e-06	1401.5	371.72	6.1607e-06	8.1723e-06	423.32	143.2	124.34	41.813	5.3472e-06	51.702	0.0005903	0.00058692	0.00016064	1420.1	6.4074e-06	6.4487e-06	1424.2	381.07	6.4458e-06	6.3431e-06	434.08	146.17	126.88	43.331	6.3851e-06	53.4	313.689	134.246	238.940	87.102	197.163	270.813	87.136	91.969	299.652	221.386	91.163	95.863	96.681	100.714	238.404	99.508	-8191	255	
20942.621	1	1	0	0	0.14163	0.18506	0.31115	0.28737	0.0128	0.33687	0.19268	0.17561	0.15132	0.22276	0.20621	0.27024	0.067222	0.23055	0.45401	0.1945	-1.9104	-2.6646	-2.3396	-2.7833	-2.7604	-2.2896	-2.8521	-2.7333	-2.2229	-2.8312	-3.0042	-2.6479	-2.9458	-2.4604	-2.6271	-2.675	288.018	347.172	110.882	433.208	206.349	282.486	327.765	390.151	197.322	198.560	398.542	343.618	336.206	395.980	201.951	334.427	0.0013035	0.00070262	0.00015426	1391	9.0936e-06	1.7286e-06	1395.2	371.72	1.043e-05	4.4607e-06	420.43	143.11	123.92	41.768	1.3751e-05	51.645	0.00058597	0.00057933	0.0001605	1419.2	6.3378e-06	6.3068e-06	1423.4	381.09	6.2988e-06	6.375e-06	433.28	146.24	126.98	43.273	6.4326e-06	53.55	322.028	149.421	191.307	87.202	290.347	214.335	86.981	91.836	260.331	172.685	91.272	96.249	96.546	100.702	221.844	99.592	-8191	255	
20942.715	1	1	0	0	0.26065	0.16121	0.10095	0.29873	0.1888	0.075806	0.35037	0.13179	0.3288	0.10052	0.14394	0.086265	0.033705	0.12012	0.12293	0.15207	-1.8417	-2.7896	-2.4188	-2.5917	-2.8104	-2.5604	-2.9083	-2.8688	-2.4708	-2.8271	-2.6813	-2.4938	-2.825	-2.4813	-2.5146	-2.8146	300.552	178.158	389.118	409.185	355.539	95.119	357.428	75.548	347.131	280.710	336.923	426.990	299.701	92.871	91.067	348.567	0.001154	0.00088374	0.00024026	1385.2	4.5854e-06	4.1313e-06	1397.7	370.81	5.6055e-06	3.7791e-06	421.9	143.26	123.72	41.865	8.6023e-06	51.734	0.00058882	0.00058496	0.00016302	1420.1	6.3931e-06	6.4112e-06	1423.3	380.7	6.3897e-06	6.4121e-06	433.49	146.37	127.07	43.385	6.4929e-06	53.596	317.584	145.575	149.153	87.169	246.690	191.520	86.921	92.039	274.641	174.833	91.203	95.743	96.321	100.678	180.228	99.612	-8191	255	
20942.811	1	1	0	0	0.060716	0.26534	0.13627	0.23952	0.11065	0.047349	0.16789	0.18411	0.1944	0.22388	0.26539	0.12789	0.20044	0.1437	0.13124	0.19501	-1.8771	-2.5938	-2.5521	-2.8271	-2.8354	-2.5375	-2.7583	-2.9292	-2.5104	-2.65	-2.8104	-2.5979	-2.8563	-2.5563	-2.6625	-2.9646	86.312	158.299	116.706	401.715	108.804	91.954	324.097	84.559	318.413	363.456	238.631	356.008	338.077	371.275	115.011	365.584	0.0012509	0.00064232	0.00013273	1388.8	5.1851e-06	4.0334e-06	1403	370.87	7.4525e-06	6.6287e-06	422.13	143.2	124.17	41.764	8.9754e-06	51.383	0.0005952	0.00058981	0.00016472	1420.6	6.4796e-06	6.4409e-06	1426	381.27	6.4576e-06	6.4613e-06	434.24	146.41	127.09	43.339	6.5053e-06	53.443	300.089	141.621	185.859	87.064	168.133	197.066	86.943	91.858	285.226	210.864	91.408	95.866	96.438	100.535	209.469	99.764	-8191	255	
20942.883	1	1	0	0	0.13656	0.090787	0.17112	0.28012	0.053672	0.044364	0.237	0.4347	0.22073	0.066325	0.087145	0.26056	0.16784	0.18183	0.075263	0.1979	-1.8188	-2.7333	-2.675	-2.7146	-2.7062	-2.5396	-2.5771	-2.9333	-2.3438	-2.775	-2.7896	-2.4417	-2.7979	-2.6479	-2.4167	-2.8833	319.833	309.194	308.599	362.590	151.094	394.071	356.000	345.943	241.901	151.211	403.726	395.096	155.507	238.801	191.999	367.533	0.0012182	0.0010535	2.4928e-05	1393.5	7.0687e-06	3.7187e-06	1400	371.85	1.012e-05	3.4289e-06	422.65	143.14	124.25	41.77	4.5752e-06	51.719	0.00059304	0.00059269	0.00016363	1422.4	6.4228e-06	6.4545e-06	1424.4	381.3	6.4621e-06	6.4844e-06	434.64	146.33	127.13	43.34	6.5413e-06	53.544	312.460	135.355	134.160	87.288	209.036	299.286	87.036	91.897	270.512	208.825	91.127	95.915	96.832	100.620	162.493	99.712	-8191	255	
20942.979	1	1	0	0	0.176	0.34721	0.09932	0.24417	0.23888	0.2247	0.25117	0.27582	0.18563	0.23994	0.14461	0.11349	0.15052	0.11584	0.18613	0.096119	-2.125	-2.55	-2.8167	-2.3667	-2.8396	-2.6354	-2.7146	-2.9521	-2.4021	-2.6417	-2.9083	-2.5917	-2.7625	-2.6917	-2.4437	-2.75	330.726	82.097	236.948	363.866	292.921	391.164	410.333	430.782	397.796	119.271	93.827	126.216	336.575	418.930	87.639	419.350	0.0011611	0.00066332	0.00027317	1390.4	6.339e-06	3.2701e-06	1403.8	373.56	9.0886e-06	7.7483e-06	424.69	143.1	124.09	42.034	8.0035e-06	51.785	0.00059575	0.00058999	0.00016297	1421	6.469e-06	6.4265e-06	1426.9	381.84	6.382e-06	6.4029e-06	435.29	146.26	127.18	43.425	6.4096e-06	53.547	308.987	172.324	133.102	87.286	155.803	254.034	86.982	91.974	220.164	261.106	91.260	95.946	96.678	100.691	224.774	99.893	-8191	255	
20943.100	1	1	0	0	0.16092	0.18647	0.020135	0.17873	0.070641	0.099657	0.25338	0.11796	0.25024	0.2733	0.076425	0.082431	0.19362	0.14274	0.0085842	0.39694	-2.0417	-2.7417	-2.8354	-2.7104	-2.7604	-2.6854	-2.7083	-3.0833	-2.5021	-2.5687	-2.8563	-2.3708	-2.6542	-2.7625	-2.3937	-2.9437	202.557	250.106	407.375	411.489	197.123	320.831	312.205	126.614	315.963	317.364	414.586	150.515	374.841	237.649	412.857	432.021	0.0011764	0.00097685	0.00024905	1392.2	7.8244e-06	3.8772e-06	1399.2	372.58	2.4191e-06	1.4786e-05	420.66	142.83	124.55	41.787	6.5496e-06	51.806	0.00059089	0.00058387	0.00016237	1422.9	6.4224e-06	6.3587e-06	1427	381.51	6.3893e-06	6.4251e-06	433.59	146.17	127.14	43.407	6.4122e-06	53.559	321.557	196.672	180.785	87.236	191.484	267.938	87.000	91.963	295.278	259.026	91.349	95.997	96.427	100.590	278.773	99.762	-8191	255	
20943.195	1	1	0	0	0.023524	0.27025	0.14941	0.27365	0.19595	0.17779	0.2514	0.33262	0.15628	0.029156	0.29915	0.36867	0.051277	0.28308	0.18407	0.23859	-1.8583	-2.4479	-3.0104	-2.4021	-2.5312	-2.6583	-2.6917	-3	-2.5146	-2.425	-2.9458	-2.4813	-2.7313	-2.775	-2.2125	-2.9062	96.751	315.601	84.610	381.057	123.429	139.173	400.893	296.318	344.972	347.779	354.331	361.596	405.616	376.514	398.594	421.991	0.0011914	0.00061505	2.573e-05	1391.6	3.884e-06	4.9703e-06	1406.1	373.44	1.1248e-05	1.5634e-06	422.22	142.63	124.46	41.923	8.2314e-06	51.494	0.00059488	0.00058394	0.00016181	1420.6	6.3589e-06	6.3861e-06	1426.5	381.58	6.2159e-06	6.3551e-06	433.68	146.06	127.05	43.331	6.2953e-06	53.369	308.598	431.104	122.720	87.211	326.573	170.037	87.104	91.933	253.840	211.455	91.463	95.924	96.321	100.768	257.875	100.033	-8191	255	
20943.293	1	1	0	0	0.14019	0.15798	0.10656	0.34659	0.20609	0.3116	0.21234	0.23507	0.30428	0.24025	0.053281	0.23476	0.12183	0.29507	0.090271	0.15757	-2.2583	-2.4813	-2.8312	-2.6042	-2.4562	-2.6104	-2.6458	-2.8458	-2.6437	-2.3333	-2.825	-2.4854	-2.6354	-2.9042	-2.3417	-2.7562	138.179	236.765	294.217	82.479	298.332	241.675	358.893	96.610	395.192	177.006	432.637	99.936	343.844	337.757	177.837	409.197	0.001156	0.0001675	0.00014551	1393.6	1.1344e-05	2.042e-06	1398.4	372.51	8.4394e-06	2.9168e-06	424.99	143.62	124.02	41.883	3.6156e-06	51.798	0.00059051	0.00058176	0.00016379	1423.4	6.4592e-06	6.3852e-06	1424.4	381.3	6.4143e-06	6.3984e-06	434.64	146.5	127.09	43.359	6.3744e-06	53.548	309.839	302.925	172.318	86.971	175.463	266.400	87.266	91.991	324.723	151.494	91.227	96.052	96.475	100.782	152.229	100.045	-8191	255	
20943.389	1	1	0	0	0.066438	0.27057	0.23638	0.33866	0.05358	0.25295	0.37151	0.18138	0.097569	0.20657	0.1605	0.15704	0.12731	0.29662	0.21755	0.05314	-2.1583	-2.1562	-2.7125	-2.6688	-2.4208	-2.8375	-2.6854	-2.875	-2.6188	-2.5521	-2.9146	-2.6604	-2.5396	-2.9688	-2.3875	-2.6646	213.353	269.825	190.699	389.543	194.830	171.141	377.604	383.318	174.951	241.341	349.893	236.345	295.361	407.212	429.575	329.408	0.0010909	0.00056728	0.00015388	1390.9	1.2282e-05	3.031e-06	1406.8	372.01	8.7179e-06	2.6296e-06	421.35	142.99	124.13	41.845	4.5789e-06	51.691	0.00059222	0.00058928	0.00016073	1420.7	6.4628e-06	6.3722e-06	1426	381.11	6.3755e-06	6.38e-06	433.31	146.07	126.97	43.267	6.3317e-06	53.361	298.051	173.123	291.707	87.071	232.358	304.557	86.998	91.967	270.569	127.331	91.273	96.017	96.448	100.532	195.674	99.904	-8191	255	
20943.484	1	1	0	0	0.076797	0.12873	0.29166	0.22274	0.088571	0.16127	0.11689	0.070847	0.087237	0.11642	0.15087	0.10514	0.2212	0.29598	0.12322	0.19185	-2.2958	-2.2188	-2.8208	-2.8083	-2.5729	-3.0979	-2.7083	-2.8625	-2.8583	-2.4708	-2.8229	-2.6708	-2.5104	-3.0458	-2.5458	-2.4833	418.449	352.145	328.525	344.627	286.696	277.137	417.397	135.272	95.235	406.988	316.216	404.575	76.991	394.024	226.353	374.384	0.0010622	9.974e-05	0.00023087	1388.7	6.6764e-06	6.2882e-07	1397.9	371.86	6.1812e-06	1.3076e-05	422.33	143.06	124.02	41.79	3.3341e-06	51.382	0.00058991	0.00057741	0.00015997	1418.7	6.316e-06	6.3119e-06	1423.4	381.4	6.3397e-06	6.3119e-06	433.59	146.01	127.01	43.284	6.3252e-06	53.45	306.408	281.190	170.754	87.200	217.387	218.642	86.979	91.837	252.439	326.897	91.176	95.767	96.461	100.839	324.460	99.959	-8191	255	
20943.580	1	1	0	0	0.047327	0.24881	0.14244	0.31788	0.16365	0.22182	0.34557	0.16353	0.18205	0.12864	0.37893	0.16632	0.18059	0.077211	0.26509	0.24878	-2.1771	-2.2313	-2.6521	-2.9292	-2.45	-2.9813	-2.8125	-2.8042	-2.825	-2.4083	-2.8312	-2.9042	-2.2792	-2.8292	-2.6312	-2.5125	113.739	150.009	348.034	74.326	155.785	195.895	417.447	334.304	344.250	103.137	373.857	327.831	78.075	85.843	302.801	81.826	0.001016	0.00029753	0.00010405	1391.8	1.1483e-05	5.4483e-06	1404.5	372.15	6.0296e-06	6.3948e-06	421.33	143.3	124.36	41.707	4.1182e-06	51.533	0.00058469	0.00057978	0.00016033	1421.6	6.2116e-06	6.1803e-06	1426.1	380.47	6.0797e-06	6.1031e-06	433.06	145.88	126.64	43.159	6.1299e-06	53.266	305.801	218.128	348.571	87.241	231.536	195.731	86.861	91.906	262.390	262.994	91.175	95.994	96.668	100.743	196.473	99.842	-8191	255	
20943.701	1	1	0	0	0.081434	0.27614	0.029916	0.28818	0.18049	0.20181	0.2378	0.24293	0.059245	0.18494	0.27616	0.26282	0.074337	0.099656	0.089778	0.10649	-2.3292	-2.4333	-2.6188	-3.0333	-2.3125	-2.9188	-2.5375	-2.4604	-2.8729	-2.3167	-2.8729	-2.6792	-2.3125	-2.8396	-2.4896	-2.3125	412.327	129.283	112.796	410.317	276.762	308.278	431.952	91.467	85.007	380.453	389.378	395.162	214.618	364.932	384.925	112.377	0.001315	0.00019368	0.0001063	1391.6	6.9685e-06	4.4217e-06	1404.2	372.9	4.7316e-06	1.9017e-06	423.68	142.9	123.56	41.76	6.8333e-06	51.555	0.00056467	0.00056188	0.00015702	1419.1	6.1832e-06	6.1806e-06	1423	380.59	6.1523e-06	6.149e-06	433.63	145.93	126.6	43.217	6.1403e-06	53.335	307.707	103.620	247.453	87.043	230.624	184.198	87.030	92.045	178.321	247.682	91.146	95.963	96.380	100.707	226.838	99.939	-8191	255	
20943.797	1	1	0	0	0.17203	0.094321	0.15007	0.2476	0.23462	0.061461	0.33243	0.15004	0.2912	0.29756	0.21882	0.10681	0.27687	0.20096	0.12749	0.19312	-2.2625	-2.4125	-2.6708	-2.9521	-2.3021	-2.7271	-2.8083	-2.4542	-2.725	-2.4479	-2.9333	-2.85	-2.25	-2.9771	-2.7104	-2.3396	316.138	107.807	102.202	386.328	132.692	196.932	424.959	420.795	109.946	336.584	402.472	422.609	362.259	77.053	356.090	259.120	0.0011471	0.0008803	0.00045103	1389.7	6.5769e-06	4.5387e-06	1398	372.69	1.0041e-05	7.789e-06	420.14	143.01	123.58	41.776	6.5305e-06	51.529	0.00056405	0.00055415	0.00015626	1419.2	6.1239e-06	6.1577e-06	1422.1	381.14	6.1046e-06	6.1529e-06	432.93	145.76	126.46	43.17	6.2418e-06	53.285	320.944	192.709	157.792	87.198	197.882	307.580	86.940	92.025	265.191	234.409	91.335	95.980	96.696	100.836	238.756	100.069	-8191	255	
20943.893	1	1	0	0	0.12989	0.2354	0.40569	0.16259	0.25255	0.07589	0.22471	0.095245	0.1349	0.024325	0.26285	0.13716	0.25015	0.093621	0.062379	0.17127	-2.5187	-2.6042	-2.5	-2.8542	-2.2771	-2.75	-2.9	-2.6354	-2.9958	-2.5479	-2.5792	-3.0687	-2.5646	-2.6167	-2.7375	-2.3854	210.414	266.470	337.956	433.670	105.533	245.615	378.094	426.299	360.275	371.357	413.368	426.886	342.243	216.021	343.863	377.860	0.0011789	0.00054698	4.8823e-05	1386.4	8.0057e-06	9.5016e-07	1402.5	372.76	8.7383e-06	9.8795e-06	421.86	142.72	124.04	41.813	3.7522e-06	51.547	0.00057588	0.00056978	0.0001583	1419.2	6.2383e-06	6.2511e-06	1424	381.06	6.2534e-06	6.3144e-06	433.38	145.79	126.71	43.191	6.2594e-06	53.386	315.424	164.751	187.786	87.215	245.187	302.569	87.053	91.878	262.114	242.639	91.238	95.797	96.504	100.805	89.463	99.958	-8191	255	
20943.988	1	1	0	0	0.077335	0.22972	0.14993	0.39176	0.15447	0.21883	0.32903	0.058234	0.26055	0.25115	0.10348	0.13678	0.10681	0.23781	0.30775	0.14663	-2.2333	-2.5292	-2.4771	-3.0958	-2.4292	-2.7375	-2.9583	-2.4333	-2.8	-2.7042	-2.5292	-2.8521	-2.7042	-2.8229	-2.9333	-2.5521	390.727	125.191	236.106	348.068	140.209	110.151	414.621	238.696	145.793	171.995	85.384	418.033	377.761	137.004	425.763	405.340	0.0011841	0.00089025	0.00025347	1389.3	1.2065e-05	4.9137e-06	1400.3	371.76	9.1151e-06	7.7813e-06	423.36	142.25	123.56	41.654	7.3635e-06	51.439	0.00058023	0.00057667	0.00016001	1417.7	6.238e-06	6.3005e-06	1423.9	380.37	6.1613e-06	6.1739e-06	433.28	145.45	126.39	43.132	6.1205e-06	53.266	306.485	173.125	112.735	87.090	192.771	182.276	86.915	91.987	220.085	234.776	91.217	95.786	96.621	100.723	113.357	99.744	-8191	255	
20944.107	1	1	0	0	0.1163	0.21566	0.1585	0.10694	0.17904	0.27733	0.12796	0.14008	0.092512	0.074772	0.13609	0.17523	0.057078	0.17737	0.12679	0.14163	-2.4375	-2.6437	-2.4958	-3.0167	-2.4083	-2.5833	-3.0187	-2.3729	-2.7229	-2.6688	-2.5208	-2.9583	-2.4125	-2.6604	-2.6458	-2.5146	335.442	267.745	116.069	316.468	215.558	219.833	410.227	408.891	214.735	432.932	362.555	409.964	337.526	152.201	214.898	337.796	0.0012509	0.0010168	0.00023681	1393.4	9.6821e-06	3.6059e-06	1399.7	370.62	7.9479e-06	1.1016e-05	422.55	142.67	123.9	41.834	4.6639e-06	51.537	0.00056633	0.00056453	0.00015525	1419.9	6.1226e-06	6.1629e-06	1422.9	379.84	6.1403e-06	6.1626e-06	432.8	145.69	126.71	43.229	6.2338e-06	53.387	314.723	167.112	204.274	87.121	248.867	221.703	87.084	92.113	291.980	216.453	91.263	95.962	96.388	101.093	229.991	99.888	-8191	255	
20944.180	1	1	0	0	0.25253	0.19662	0.055844	0.11568	0.12171	0.21179	0.22187	0.14749	0.24666	0.064718	0.1026	0.011476	0.1789	0.31322	0.1871	0.029084	-2.2854	-2.5021	-2.0625	-3.0646	-2.3958	-2.575	-2.9083	-2.5208	-2.7729	-2.7	-2.4229	-2.9729	-2.6562	-2.5729	-2.9542	-2.4125	349.577	92.652	177.296	136.683	366.661	266.148	352.419	365.894	311.716	89.154	109.322	312.594	375.588	336.567	291.876	211.511	0.0011251	0.0004525	4.3656e-05	1392.8	1.2797e-05	4.7696e-06	1396.3	372.62	6.4873e-06	8.0081e-06	421.78	142.62	123.83	41.742	1.0528e-05	51.322	0.00057983	0.00057047	0.00015758	1418.7	6.2371e-06	6.2366e-06	1422.9	379.91	6.1622e-06	6.1612e-06	432.5	145.74	126.55	43.096	6.1669e-06	53.222	308.831	153.202	165.646	87.286	227.457	244.947	87.056	91.959	253.292	221.513	91.318	95.873	96.497	100.575	139.945	99.894	-8191	255	
20944.275	1	1	0	0	0.10348	0.10626	0.025254	0.24221	0.20902	0.21565	0.32759	0.21038	0.35159	0.20978	0.36483	0.087276	0.37732	0.23979	0.23043	0.33428	-2.0979	-2.8271	-2.4938	-2.9479	-2.6042	-2.5	-2.8958	-2.4396	-2.6771	-2.8396	-2.3812	-2.8458	-2.7667	-2.6688	-2.9667	-2.8438	203.018	173.956	115.680	327.208	411.913	190.243	386.274	346.261	344.111	92.552	395.480	432.427	399.371	417.945	210.408	320.231	0.0012088	0.0005934	0.00015378	1391	3.6901e-06	6.8035e-07	1402.6	372.74	6.661e-06	3.7388e-06	422.93	143.17	124.04	41.741	7.8636e-06	51.536	0.00056918	0.00056349	0.00015656	1421	6.1314e-06	6.1569e-06	1422.5	380.18	6.1468e-06	6.1979e-06	432.77	145.88	126.87	43.17	6.1294e-06	53.298	302.126	181.324	179.410	87.159	211.560	107.041	86.997	92.042	322.562	353.731	91.425	95.943	96.298	100.861	237.171	99.839	-8191	255	
20944.396	1	1	0	0	0.18663	0.21531	0.1589	0.25295	0.074181	0.064601	0.30991	0.054094	0.16619	0.1271	0.17007	0.067945	0.099045	0.44146	0.40721	0.19587	-2.2188	-2.8417	-2.3625	-2.9042	-2.7646	-2.4396	-2.9167	-2.6937	-2.5125	-2.9333	-2.5062	-2.9062	-2.8104	-2.425	-2.7354	-2.8104	379.796	198.273	321.023	376.559	360.220	245.140	410.328	85.650	125.810	312.979	422.337	361.959	79.487	379.514	142.053	125.255	0.0011905	0.00087002	0.00038473	1393.8	1.3332e-05	4.8852e-06	1398.4	371.49	4.7254e-06	3.9208e-06	421.98	142.39	123.85	41.56	4.5757e-06	51.618	0.00057591	0.00056464	0.00015588	1420.1	6.1317e-06	6.1394e-06	1422.7	379.98	6.1619e-06	6.0936e-06	432.14	145.71	126.61	43.194	6.2511e-06	53.379	317.502	135.946	162.459	87.188	211.054	248.974	87.014	91.842	269.686	286.099	91.198	95.976	96.413	100.779	192.250	99.955	-8191	255	
20944.492	1	1	0	0	0.13166	0.22892	0.18621	0.45174	0.53496	0.14185	0.46017	0.084658	0.27688	0.073913	0.23997	0.1854	0.19741	0.48449	0.086555	0.092515	-2.075	-2.6729	-2.1354	-2.9562	-2.8167	-2.2604	-3.0104	-2.6625	-2.6417	-2.9458	-2.6083	-2.8104	-2.9021	-2.6042	-2.8417	-2.7687	195.528	281.129	190.908	399.429	351.607	161.117	372.537	224.821	352.235	93.187	375.501	359.565	357.264	378.352	122.309	213.240	0.0012599	0.0010181	0.00034857	1388.8	6.5825e-06	3.1973e-06	1404	372.08	9.8327e-06	6.8895e-06	422.56	142.68	123.75	41.764	1.3084e-05	51.372	0.00058166	0.00057031	0.00015841	1419.7	6.2252e-06	6.2921e-06	1425	381.09	6.2641e-06	6.2241e-06	433.14	146	126.78	43.271	6.227e-06	53.395	306.352	136.406	210.454	87.147	195.030	219.061	86.825	91.996	303.451	243.268	91.166	96.162	96.517	100.809	180.974	99.955	-8191	255	
20944.588	1	1	0	0	0.14583	0.16629	0.18782	0.15839	0.17189	0.1562	0.30129	0.16906	0.16066	0.038626	0.03591	0.15618	0.14391	0.21413	0.27157	0.10628	-2.0792	-2.8021	-2.5417	-2.7625	-2.8021	-2.3917	-3.1271	-2.7771	-2.625	-2.9479	-2.7375	-2.8375	-3.1104	-2.6167	-2.625	-2.8583	148.426	382.014	224.234	387.178	199.754	110.862	356.837	396.403	338.160	265.237	302.722	362.450	77.069	131.957	152.607	375.413	0.0012082	0.00039852	0.00014096	1393.4	9.0607e-06	6.2933e-06	1400.8	373.28	2.8953e-06	1.7235e-06	423.15	143.56	124.06	41.865	4.0695e-06	51.536	0.00058235	0.00057095	0.00016012	1421.6	6.3066e-06	6.2258e-06	1426.8	381.89	6.2624e-06	6.2306e-06	434.12	146.32	126.96	43.251	6.2995e-06	53.385	319.980	166.373	97.056	87.102	190.428	255.609	86.916	91.891	310.624	357.002	91.273	95.865	96.164	100.696	177.469	99.712	-8191	255	
20944.684	1	1	0	0	0.10249	0.010104	0.22712	0.17858	0.27736	0.15658	0.18957	0.19737	0.20589	0.086168	0.20692	0.094855	0.22872	0.3097	0.2137	0.1802	-1.8354	-2.9	-2.5312	-2.8	-2.8417	-2.2875	-2.925	-2.7958	-2.2854	-2.8729	-2.7	-2.7062	-2.8812	-2.6479	-2.6917	-2.7417	200.856	407.406	324.104	380.316	153.036	117.732	425.390	314.754	416.945	168.908	356.028	106.481	369.162	363.572	421.993	418.138	0.0010941	0.00041734	0.00013379	1396.3	6.1492e-06	8.8836e-06	1406.8	373.87	7.8682e-06	6.4363e-06	422.78	143.1	124.34	41.784	1.1373e-05	51.526	0.00057767	0.0005724	0.00015778	1422.9	6.2105e-06	6.2392e-06	1427.3	381.51	6.2147e-06	6.2639e-06	433.4	145.99	126.92	43.224	6.2413e-06	53.406	303.087	120.380	173.004	87.127	266.264	221.899	86.956	91.748	257.412	195.320	91.058	95.784	96.562	100.884	163.747	99.817	-8191	255	
20944.779	1	1	0	0	0.16645	0.18256	0.30385	0.3587	0.27999	0.25235	0.15334	0.22328	0.1746	0.19425	0.20648	0.15331	0.15547	0.20626	0.09485	0.22253	-1.9604	-2.8125	-2.5542	-2.7396	-2.6562	-2.2396	-2.8542	-2.8958	-2.3833	-2.7104	-2.675	-2.5563	-2.9354	-2.5396	-2.4458	-2.8917	372.856	373.570	276.619	329.278	421.066	282.755	129.080	80.714	134.867	206.967	391.806	405.562	373.251	88.665	362.847	258.172	0.0011838	0.00029666	0.00019774	1392.1	6.7585e-06	6.7277e-06	1399.2	372.2	4.8545e-06	7.0515e-06	421.77	141.83	123.67	41.846	3.8686e-06	51.48	0.0005784	0.00056943	0.0001578	1420	6.1346e-06	6.1552e-06	1422.7	380.11	6.0482e-06	6.1058e-06	432.49	145.49	126.42	43.178	6.183e-06	53.333	308.783	160.530	137.083	87.239	241.050	197.165	86.894	91.856	242.003	194.531	91.332	95.771	96.833	100.791	212.533	99.705	-8191	255	
20944.877	1	1	0	0	0.20622	0.14175	0.33925	0.27223	0.061352	0.15214	0.36041	0.43611	0.1286	0.25513	0.15425	0.14074	0.12921	0.35739	0.042429	0.16822	-1.8167	-2.725	-2.6458	-2.6562	-3.0062	-2.575	-2.8417	-2.8458	-2.3292	-2.6437	-2.6667	-2.4437	-2.8979	-2.5646	-2.5167	-2.8917	122.854	150.288	156.287	415.865	268.013	77.557	388.068	365.962	275.194	424.756	409.526	313.826	378.715	404.455	396.682	397.975	0.0011208	0.00075468	0.00012478	1392.4	1.3421e-05	2.9892e-06	1401.8	372.68	5.3986e-07	8.743e-06	421.69	142.98	123.86	41.867	4.9583e-06	51.723	0.00057534	0.00057053	0.00015882	1420.9	6.2358e-06	6.2088e-06	1425.5	380.97	6.1846e-06	6.1933e-06	433.44	146.31	126.7	43.274	6.2326e-06	53.512	312.064	186.036	172.604	87.153	230.835	198.367	87.035	92.007	403.612	246.819	91.111	95.960	96.564	100.524	256.659	99.640	-8191	255	
20944.973	1	1	0	0	0.13855	0.055029	0.19695	0.34071	0.25762	0.21058	0.41054	0.26629	0.2337	0.23264	0.23358	0.23597	0.20903	0.17539	0.25014	0.24925	-1.7604	-2.7167	-2.75	-2.6146	-2.7313	-2.4896	-2.575	-2.9938	-2.325	-2.7458	-2.9083	-2.2833	-3.125	-2.7667	-2.3854	-2.9437	386.405	246.246	424.322	402.469	182.990	259.710	433.666	382.264	238.707	339.070	370.759	366.480	75.548	276.572	86.181	416.372	0.001194	0.00036997	0.00015138	1392.4	6.3311e-06	5.2238e-06	1405.9	372.48	7.0327e-06	5.8579e-06	423.8	142.8	123.88	41.901	4.9406e-06	51.872	0.00057669	0.00057438	0.00015959	1422.5	6.3715e-06	6.426e-06	1429.2	382.2	6.3963e-06	6.4082e-06	435.33	146.36	127.3	43.376	6.423e-06	53.457	310.155	169.011	192.440	87.202	236.442	184.697	86.973	91.946	218.564	214.462	91.451	95.751	96.747	100.609	229.134	100.049	-8191	255	
20945.068	1	1	0	0	0.11423	0.1021	0.13037	0.31983	0.25672	0.13346	0.16668	0.14253	0.15323	0.08751	0.21493	0.073328	0.38336	0.13887	0.16458	0.21823	-2.1521	-2.6229	-2.6771	-2.5979	-2.7729	-2.2812	-2.4458	-3.1333	-2.4229	-2.5458	-2.8583	-2.4979	-2.7583	-2.7687	-2.3958	-2.8729	262.132	304.862	432.085	380.458	377.857	216.922	361.830	341.369	343.822	356.738	92.081	143.295	367.805	88.180	152.258	373.875	0.0012241	0.00079938	0.00032319	1393.3	9.1708e-06	9.7115e-06	1401.8	371.83	9.1081e-06	6.4547e-06	422.78	142.6	123.59	41.829	1.0326e-05	51.675	0.00057387	0.00057637	0.00015793	1420.3	6.1532e-06	6.1145e-06	1425.1	380.05	6.0864e-06	6.0225e-06	432.64	145.67	126.51	43.147	6.0335e-06	53.273	308.464	167.041	176.970	87.086	234.484	210.603	86.893	91.706	245.896	273.516	91.343	95.873	96.327	100.642	182.137	100.080	-8191	255	
20945.189	1	1	0	0	0.18211	0.066923	0.17478	0.48432	0.093309	0.039332	0.35668	0.090056	0.21252	0.054071	0.32149	0.093468	0.13993	0.30084	0.17531	0.10294	-1.9875	-2.4813	-2.6792	-2.5354	-2.6937	-2.6896	-2.6813	-2.95	-2.4958	-2.4938	-2.8271	-2.4938	-2.5938	-2.8208	-2.5604	-2.8646	209.839	271.957	427.422	418.548	178.086	396.531	365.812	330.907	392.406	293.920	362.235	366.918	110.820	416.078	227.245	305.429	0.0011169	0.00015622	6.6589e-05	1390.5	7.02e-06	2.5342e-06	1400.9	373.17	9.5808e-06	9.674e-06	422.59	142.85	123.37	41.658	7.3087e-06	51.903	0.00055834	0.00055371	0.00015332	1418.1	6.0364e-06	6.1217e-06	1423	380.8	6.0961e-06	6.1511e-06	432.64	145.75	126.44	43.2	6.1898e-06	53.504	312.082	354.674	188.272	87.183	190.582	194.919	86.807	91.916	267.510	188.702	91.317	95.950	96.535	100.626	241.598	99.871	-8191	255	
20945.285	1	1	0	0	0.090651	0.19618	0.18184	0.15556	0.22793	0.02455	0.05067	0.24276	0.14015	0.075872	0.049309	0.12452	0.064961	0.15042	0.37155	0.16488	-2.0521	-2.4333	-2.8583	-2.5833	-2.7708	-2.7479	-2.5625	-2.7687	-2.5417	-2.4354	-2.8333	-2.5042	-2.3812	-2.8688	-2.2708	-2.8229	191.454	188.091	368.925	419.993	188.850	290.321	301.427	422.721	406.556	190.028	407.226	375.534	382.648	431.555	322.088	429.631	0.0012523	0.00056664	0.0001567	1389.8	8.9988e-06	4.694e-06	1400.1	373.25	3.415e-06	1.4262e-06	422.73	142.98	124.19	41.758	7.6035e-06	51.649	0.00057568	0.0005633	0.00015576	1418.3	6.1664e-06	6.1648e-06	1423.1	381.06	6.0733e-06	6.0568e-06	433.13	145.82	126.76	43.178	6.0832e-06	53.299	304.424	177.965	139.596	87.339	251.314	269.402	86.825	91.955	236.219	250.341	91.384	95.856	96.587	100.677	190.539	99.715	-8191	255	
20945.381	1	1	0	0	0.2729	0.14491	0.15457	0.33353	0.15481	0.14222	0.16508	0.41055	0.17296	0.17765	0.24577	0.079015	0.10386	0.33369	0.26809	0.023044	-2.1375	-2.4271	-2.9042	-2.7146	-2.5979	-2.7979	-2.2458	-2.8208	-2.6229	-2.5542	-2.8812	-2.5583	-2.5833	-2.8396	-2.4833	-2.6688	265.527	281.303	407.382	375.112	314.392	411.980	115.087	421.149	368.435	288.432	370.623	118.426	432.568	382.082	176.408	117.916	0.0010805	0.00022494	0.00022965	1393.5	2.7294e-06	4.6661e-06	1397.2	372.26	3.4456e-06	4.8359e-06	422.49	142.21	123.51	41.692	9.8302e-06	51.62	0.00055842	0.00055496	0.00015352	1421	6.0294e-06	5.9559e-06	1423.1	380.02	5.9476e-06	6.0361e-06	432.13	145.69	126.38	43.101	6.0119e-06	53.215	312.329	169.217	178.225	87.159	337.523	286.530	86.992	91.870	249.364	214.290	91.230	96.015	96.641	100.758	202.377	99.555	-8191	255	
20945.477	1	1	0	0	0.17476	0.055097	0.11817	0.36419	0.2349	0.1967	0.11538	0.14689	0.31138	0.19049	0.062011	0.42543	0.10556	0.10726	0.04805	0.056348	-2.2979	-2.2229	-2.7875	-2.7229	-2.3917	-2.8563	-2.5896	-2.7313	-2.6708	-2.3292	-2.9396	-2.6542	-2.5396	-2.925	-2.5	-2.6917	413.892	135.884	378.254	369.252	234.760	179.999	412.229	413.279	357.738	290.099	233.981	408.513	187.896	217.622	363.473	343.656	0.0010157	0.00041955	0.00013071	1391.4	9.8446e-06	1.3279e-06	1408.3	371.46	1.0132e-05	9.2502e-07	421.29	142.62	123.39	41.596	4.3297e-06	51.557	0.00056163	0.00055446	0.00015486	1417.9	6.1262e-06	6.1206e-06	1424.7	380.29	6.236e-06	6.2488e-06	432.48	145.73	126.45	43.205	6.2295e-06	53.413	308.741	178.431	116.320	87.232	223.999	333.210	87.102	91.984	253.690	285.099	91.218	95.697	96.275	100.756	170.325	99.653	-8191	255	
20945.572	1	1	0	0	0.20022	0.10419	0.26681	0.45522	0.18006	0.16417	0.3093	0.12037	0.18441	0.1635	0.13811	0.066819	0.27524	0.074074	0.20598	0.25036	-2.2604	-2.2604	-2.5667	-2.8208	-2.2979	-2.9333	-2.775	-2.7188	-2.7562	-2.3292	-2.8833	-2.6625	-2.6125	-2.8563	-2.3792	-2.65	335.287	203.539	170.550	77.690	367.845	336.653	380.834	172.401	187.904	293.667	300.463	393.297	403.829	251.936	192.574	350.225	0.0010243	0.00064503	0.00015948	1393.5	9.9408e-06	4.172e-06	1402.3	371.73	6.8918e-06	1.3303e-06	422.51	142.41	124.88	41.688	9.8354e-06	51.512	0.00057429	0.00057138	0.00015865	1419.4	6.2415e-06	6.2336e-06	1424.6	379.94	6.1932e-06	6.1345e-06	432.79	145.66	126.75	43.127	6.1459e-06	53.299	312.124	178.792	167.298	87.062	206.736	209.894	86.892	91.907	198.418	217.707	91.228	95.863	96.484	100.698	200.481	99.849	-8191	255	
#DATA ENDS
