BOXY.EXE: ISS Imagent and Oximeter Data Acquisition Program Version 0.80
Ascii Record File

#ACQ INFORMATION
2  Detector Channels 
16  External MUX Channels 
1  Auxiliary Channels 
5000  Waveform (CCF) Frequency (Hz)
1  Waveforms Skipped 
30  Waveforms Averaged 
1  Cycles Averaged 
16  Acquisitions per Waveform 
10.0806  Updata Rate (Hz) 

#FILE INFORMATION
TRUE -- External MUX Channel results are PARSED.
FALSE -- AC DC and Phase are NOT grouped.
TRUE -- Companion Program Settings File CREATED.
FALSE -- AC data not excluded
FALSE -- DC data not excluded
FALSE -- Phase data not excluded
FALSE -- Auxillary Chn. data not excluded
Tab delimiters

#CALIBRATION STATE
TRUE -- Waveform Calibration Values APPLIED.


#AUX CALIBRATION VALUES
Val Type	aux-1	

Term	1.0000e+00	
Factor	0.0000e+00	


#WF CALIBRATION VALUES
A = Detector Channel
Val Type	A-AC1	A-AC2	A-AC3	A-AC4	A-AC5	A-AC6	A-AC7	A-AC8	A-AC9	A-AC10	A-AC11	A-AC12	A-AC13	A-AC14	A-AC15	A-AC16	A-DC1	A-DC2	A-DC3	A-DC4	A-DC5	A-DC6	A-DC7	A-DC8	A-DC9	A-DC10	A-DC11	A-DC12	A-DC13	A-DC14	A-DC15	A-DC16	A-Ph1	A-Ph2	A-Ph3	A-Ph4	A-Ph5	A-Ph6	A-Ph7	A-Ph8	A-Ph9	A-Ph10	A-Ph11	A-Ph12	A-Ph13	A-Ph14	A-Ph15	A-Ph16	

Term	0.00000e+00	0.00000e+00	0.00000e+00	0.00000e+00	0.00000e+00	0.00000e+00	0.00000e+00	0.00000e+00	0.00000e+00	0.00000e+00	0.00000e+00	0.00000e+00	0.00000e+00	0.00000e+00	0.00000e+00	0.00000e+00	0.00000e+00	0.00000e+00	0.00000e+00	0.00000e+00	0.00000e+00	0.00000e+00	0.00000e+00	0.00000e+00	0.00000e+00	0.00000e+00	0.00000e+00	0.00000e+00	0.00000e+00	0.00000e+00	0.00000e+00	0.00000e+00	0.00000e+00	0.00000e+00	0.00000e+00	0.00000e+00	0.00000e+00	0.00000e+00	0.00000e+00	0.00000e+00	0.00000e+00	0.00000e+00	0.00000e+00	0.00000e+00	0.00000e+00	0.00000e+00	0.00000e+00	0.00000e+00	
Factor	1.00000e+00	1.00000e+00	1.00000e+00	1.00000e+00	1.00000e+00	1.00000e+00	1.00000e+00	1.00000e+00	1.00000e+00	1.00000e+00	1.00000e+00	1.00000e+00	1.00000e+00	1.00000e+00	1.00000e+00	1.00000e+00	1.00000e+00	1.00000e+00	1.00000e+00	1.00000e+00	1.00000e+00	1.00000e+00	1.00000e+00	1.00000e+00	1.00000e+00	1.00000e+00	1.00000e+00	1.00000e+00	1.00000e+00	1.00000e+00	1.00000e+00	1.00000e+00	X	X	X	X	X	X	X	X	X	X	X	X	X	X	X	X	

B = Detector Channel
Val Type	B-AC1	B-AC2	B-AC3	B-AC4	B-AC5	B-AC6	B-AC7	B-AC8	B-AC9	B-AC10	B-AC11	B-AC12	B-AC13	B-AC14	B-AC15	B-AC16	B-DC1	B-DC2	B-DC3	B-DC4	B-DC5	B-DC6	B-DC7	B-DC8	B-DC9	B-DC10	B-DC11	B-DC12	B-DC13	B-DC14	B-DC15	B-DC16	B-Ph1	B-Ph2	B-Ph3	B-Ph4	B-Ph5	B-Ph6	B-Ph7	B-Ph8	B-Ph9	B-Ph10	B-Ph11	B-Ph12	B-Ph13	B-Ph14	B-Ph15	B-Ph16	

Term	0.00000e+00	0.00000e+00	0.00000e+00	0.00000e+00	0.00000e+00	0.00000e+00	0.00000e+00	0.00000e+00	0.00000e+00	0.00000e+00	0.00000e+00	0.00000e+00	0.00000e+00	0.00000e+00	0.00000e+00	0.00000e+00	0.00000e+00	0.00000e+00	0.00000e+00	0.00000e+00	0.00000e+00	0.00000e+00	0.00000e+00	0.00000e+00	0.00000e+00	0.00000e+00	0.00000e+00	0.00000e+00	0.00000e+00	0.00000e+00	0.00000e+00	0.00000e+00	6.26660e+01	-1.60708e+02	-1.38034e+02	-1.81640e+02	-8.09839e+01	-1.13405e+02	-1.57973e+02	-1.62015e+02	-1.03025e+02	-8.37485e+01	-1.80409e+02	-1.70637e+02	-1.81506e+02	-1.76090e+02	-1.06331e+02	-1.49360e+02	
Factor	4.46417e-05	7.40306e-05	1.66068e-05	1.80300e-01	6.95920e-07	6.52801e-07	1.65304e-01	5.16653e-02	1.08927e-06	6.59530e-07	1.02996e-01	2.98071e-02	2.44284e-02	9.16901e-03	8.66652e-07	1.32262e-02	3.52392e-07	3.56068e-07	9.93150e-08	8.43590e-02	3.89487e-09	3.90538e-09	7.38614e-02	2.41382e-02	3.89876e-09	3.90770e-09	4.36374e-02	1.29438e-02	1.10597e-02	4.10157e-03	3.91558e-09	5.63340e-03	X	X	X	X	X	X	X	X	X	X	X	X	X	X	X	X	



#DISTANCE SETTINGS
A = Detector Channel
A-1	A-2	A-3	A-4	A-5	A-6	A-7	A-8	A-9	A-10	A-11	A-12	A-13	A-14	A-15	A-16	

2.5000e+00	3.0000e+00	2.5000e+00	3.0000e+00	2.0000e+00	3.0000e+00	1.5000e+00	3.0000e+00	3.0000e+00	3.0000e+00	3.0000e+00	3.0000e+00	3.0000e+00	3.0000e+00	1.5000e+00	3.0000e+00	

B = Detector Channel
B-1	B-2	B-3	B-4	B-5	B-6	B-7	B-8	B-9	B-10	B-11	B-12	B-13	B-14	B-15	B-16	

1.0000e+01	1.0000e+01	1.0000e+01	1.4400e+00	1.0000e+01	1.0000e+01	1.5100e+00	1.9400e+00	1.0000e+01	1.0000e+01	1.9900e+00	2.4900e+00	2.4100e+00	2.9000e+00	1.0000e+01	2.9800e+00	




#DATA BEGINS
time	group	step	mark	flag	A-AC1	A-AC2	A-AC3	A-AC4	A-AC5	A-AC6	A-AC7	A-AC8	A-AC9	A-AC10	A-AC11	A-AC12	A-AC13	A-AC14	A-AC15	A-AC16	A-DC1	A-DC2	A-DC3	A-DC4	A-DC5	A-DC6	A-DC7	A-DC8	A-DC9	A-DC10	A-DC11	A-DC12	A-DC13	A-DC14	A-DC15	A-DC16	A-Ph1	A-Ph2	A-Ph3	A-Ph4	A-Ph5	A-Ph6	A-Ph7	A-Ph8	A-Ph9	A-Ph10	A-Ph11	A-Ph12	A-Ph13	A-Ph14	A-Ph15	A-Ph16	B-AC1	B-AC2	B-AC3	B-AC4	B-AC5	B-AC6	B-AC7	B-AC8	B-AC9	B-AC10	B-AC11	B-AC12	B-AC13	B-AC14	B-AC15	B-AC16	B-DC1	B-DC2	B-DC3	B-DC4	B-DC5	B-DC6	B-DC7	B-DC8	B-DC9	B-DC10	B-DC11	B-DC12	B-DC13	B-DC14	B-DC15	B-DC16	B-Ph1	B-Ph2	B-Ph3	B-Ph4	B-Ph5	B-Ph6	B-Ph7	B-Ph8	B-Ph9	B-Ph10	B-Ph11	B-Ph12	B-Ph13	B-Ph14	B-Ph15	B-Ph16	aux-1	digaux	

6938.227	1	1	0	768	0.080174	0.15993	0.099457	0.39922	0.22489	0.088644	0.34087	0.36007	0.053602	0.34559	0.20183	0.1496	0.22152	0.29074	0.20949	0.19933	-2.275	-2.2979	-2.8708	-2.7875	-2.5375	-3.0292	-2.3604	-2.6646	-2.6083	-2.2438	-2.8417	-2.6937	-2.5271	-2.9021	-2.1125	-2.6042	137.014	367.594	248.948	381.087	292.936	348.488	360.999	415.348	242.653	391.884	256.231	177.688	357.412	77.270	110.865	93.711	0.00060192	7.0913e-05	0.00015193	1062.8	2.564e-06	3.3563e-06	1159.8	229.65	1.1684e-06	1.8787e-06	289.85	82.09	64.319	19.036	4.4798e-06	26.339	0.00017881	0.0001625	4.2692e-05	995.39	1.9194e-06	1.7617e-06	1085.6	218.29	1.9231e-06	1.7672e-06	263.01	77.192	60.809	18.369	1.7304e-06	25.407	373.993	71.521	117.467	81.274	266.551	157.234	81.361	88.856	240.373	208.871	88.704	95.343	95.695	103.113	187.898	102.623	-8191	255	
6938.323	1	1	0	0	0.23141	0.12917	0.20223	0.25765	0.1098	0.22764	0.23608	0.033498	0.077784	0.28654	0.07868	0.071643	0.29209	0.32875	0.13544	0.13584	-2.3042	-2.1542	-2.7208	-2.5938	-2.3604	-2.9271	-2.6208	-2.4437	-2.675	-2.0687	-2.8563	-2.8542	-2.2188	-2.5979	-2.3292	-2.4958	270.682	100.239	219.366	397.352	87.780	163.234	72.501	384.271	324.762	310.510	376.852	419.080	343.271	341.713	285.172	213.954	0.00056589	0.00038773	9.9651e-05	1066	1.9945e-06	2.2279e-06	1158.7	229.67	4.191e-06	2.5725e-06	291.32	82.091	63.733	18.87	2.8951e-06	26.434	0.0001727	0.00015952	4.463e-05	1000.6	1.8521e-06	1.7182e-06	1086.8	218.81	1.8522e-06	1.7299e-06	265.05	77.295	60.387	18.256	1.8499e-06	25.415	372.136	221.721	130.148	81.184	94.929	109.929	81.320	89.120	166.359	122.908	89.143	95.570	95.942	102.277	147.911	101.788	-8191	255	
6938.419	1	1	0	0	0.17965	0.15853	0.13889	0.061535	0.29141	0.35484	0.10361	0.19547	0.28858	0.096865	0.2215	0.11799	0.2002	0.19882	0.23799	0.16679	-2.6063	-2.1396	-2.7687	-2.7604	-2.2687	-3.0042	-2.6854	-2.7354	-2.8458	-2.0542	-2.8104	-2.8438	-2.3604	-3.0146	-2.3187	-2.3729	400.684	91.575	416.581	85.381	117.120	388.467	399.603	378.915	108.524	150.002	376.797	84.974	160.204	163.659	243.531	271.678	0.00042691	0.00018946	0.00011722	1066.1	2.9797e-06	2.7133e-06	1162.1	228.93	4.2436e-06	2.3202e-06	290.75	82.395	63.996	18.992	2.8827e-06	26.344	0.0001669	0.00015592	4.7003e-05	999.61	1.8069e-06	1.6762e-06	1089.1	217.84	1.7721e-06	1.692e-06	266.23	77.076	60.097	18.188	1.9469e-06	25.219	373.814	410.667	162.081	81.488	226.910	203.043	81.396	88.887	292.365	354.197	88.684	95.548	95.657	102.715	183.028	102.262	-8191	255	
6938.516	1	1	0	0	0.17952	0.2007	0.027434	0.39374	0.050501	0.14893	0.45204	0.1329	0.21247	0.10302	0.24029	0.12225	0.26316	0.25139	0.23711	0.089777	-2.4375	-2.2354	-2.8125	-2.7479	-2.1333	-2.875	-2.6896	-2.2146	-2.9188	-2.3438	-2.6854	-2.9271	-2.2313	-2.9083	-2.4562	-2.5312	87.632	308.065	95.854	371.128	255.648	191.961	383.674	239.853	224.006	87.074	128.315	85.895	71.883	397.962	113.534	240.599	0.00059322	0.00022167	1.763e-05	1067.3	2.6809e-06	5.8375e-06	1159.9	229.61	5.6393e-06	1.9889e-06	289.72	81.393	63.958	18.985	4.0808e-06	26.352	0.00016042	0.0001544	4.9557e-05	997.1	1.7381e-06	1.6882e-06	1089.9	217.05	1.6956e-06	1.7181e-06	266.19	76.291	59.969	18.213	1.9723e-06	25.008	362.367	350.185	209.541	81.316	230.838	221.977	81.613	89.116	263.676	220.274	88.683	95.387	96.027	102.887	188.971	102.165	-8191	255	
6938.610	1	1	0	0	0.23624	0.27936	0.17935	0.20469	0.14725	0.13549	0.2772	0.13787	0.1501	0.15875	0.18332	0.20378	0.19967	0.16477	0.30271	0.11185	-2.7146	-2.2771	-2.2188	-3.0854	-2.1458	-2.4792	-2.7583	-2.2583	-2.8396	-2.3063	-2.4833	-2.9313	-2.2646	-3.0854	-2.6604	-2.1854	273.037	174.102	380.390	391.896	107.658	93.237	396.309	333.092	212.300	357.734	299.365	326.518	322.515	108.655	96.393	424.542	0.00069892	0.00035707	3.4839e-05	1062.5	3.5377e-06	3.8834e-06	1160.2	228.85	4.5638e-06	1.6243e-06	287.4	81.618	63.678	18.919	2.1582e-06	26.192	0.00015661	0.00016272	4.9809e-05	995.04	1.6864e-06	1.7917e-06	1090	216.37	1.6617e-06	1.8502e-06	264.95	75.985	59.772	18.351	1.9209e-06	24.865	357.048	165.516	205.349	81.191	232.531	161.493	81.330	89.084	264.752	141.392	88.665	95.728	95.545	102.914	103.910	102.399	-8191	255	
6938.708	1	1	0	0	0.028063	0.16755	0.20346	0.048615	0.14975	0.19819	0.28441	0.18847	0.073532	0.10718	0.157	0.1318	0.011928	0.059977	0.10799	0.078766	-2.3521	-2.3646	-2.3688	-2.9917	-2.1729	-2.8417	-3.0375	-2.2125	-2.6188	-2.4125	-2.5417	-2.8667	-2.2146	-2.5583	-2.7396	-2.3625	408.794	98.863	182.752	337.281	241.323	149.946	417.700	89.330	251.281	288.288	304.486	243.707	370.658	364.705	305.717	197.599	0.00053836	8.6628e-05	4.6813e-05	1065.4	4.914e-06	4.8115e-06	1158.8	228.67	6.5902e-06	1.1291e-06	289.18	80.885	62.908	18.773	3.8794e-06	26.252	0.00015088	0.00017114	4.7896e-05	992.12	1.6361e-06	1.8626e-06	1084.7	215.16	1.6076e-06	1.8677e-06	263.64	75.423	59.404	18.278	1.7861e-06	24.652	348.949	104.803	149.769	81.378	241.050	166.389	81.271	89.015	203.239	285.334	88.584	95.822	95.927	103.262	226.285	102.439	-8191	255	
6938.827	1	1	0	0	0.15892	0.34253	0.042611	0.17983	0.18124	0.20068	0.18622	0.28836	0.18352	0.23441	0.30807	0.26054	0.092573	0.17056	0.1267	0.15744	-2.4208	-2.3812	-2.5021	-3.1042	-2.1292	-2.5771	-2.9854	-2.1708	-2.8625	-2.6708	-2.3917	-3.0438	-2.2396	-2.3958	-2.8396	-2.3104	325.244	343.972	277.927	158.020	247.663	115.093	310.659	230.376	131.799	185.808	425.901	143.782	253.482	135.572	382.354	387.045	0.00061341	0.00058148	5.4263e-05	1061.1	4.8987e-06	2.966e-06	1153.1	227.02	5.5752e-06	3.0888e-06	289.78	81.58	63.354	18.645	1.3728e-06	25.957	0.00015132	0.00017143	4.4322e-05	987.14	1.6455e-06	1.8351e-06	1079.4	213.4	1.6444e-06	1.8255e-06	261.08	75.055	59.411	18.191	1.6801e-06	24.502	358.648	112.009	144.913	81.525	172.190	220.642	81.335	88.873	165.818	172.404	88.998	95.955	96.065	103.219	263.530	102.028	-8191	255	
6938.923	1	1	0	0	0.13016	0.26753	0.12326	0.34734	0.38433	0.22078	0.38443	0.26743	0.10044	0.10366	0.13918	0.10792	0.19277	0.13566	0.1558	0.19391	-2.5229	-2.7	-2.4667	-2.9771	-2.3833	-2.3417	-3.3083	-2.4208	-2.7812	-2.6708	-2.0667	-2.8667	-2.5708	-2.4854	-3.0062	-2.4813	81.014	191.017	338.597	408.796	175.898	273.700	367.225	341.505	323.121	385.273	350.376	235.200	380.852	398.672	257.541	411.154	0.00086774	9.6776e-05	3.4083e-05	1064.5	4.7883e-06	1.8306e-06	1150.5	225.99	3.5335e-06	1.1071e-06	286.77	81.001	63.02	18.702	2.5034e-06	25.894	0.00015959	0.00016869	4.262e-05	986.11	1.7495e-06	1.8153e-06	1078.2	213.2	1.7603e-06	1.8085e-06	260.12	74.804	59.719	18.128	1.646e-06	24.435	360.803	306.252	411.003	81.274	236.714	382.229	81.340	89.279	235.084	315.019	88.889	95.730	95.971	103.094	224.976	102.539	-8191	255	
6939.019	1	1	0	0	0.20829	0.1362	0.21032	0.28703	0.36981	0.18118	0.16732	0.12745	0.23952	0.20043	0.0092116	0.37324	0.090425	0.21623	0.30106	0.013032	-2.3146	-2.6437	-2.1333	-2.9333	-2.6792	-2.2687	-3.0833	-2.55	-2.6771	-2.7792	-2.1875	-2.8208	-2.7562	-2.3604	-2.6646	-2.3063	390.337	277.222	268.228	84.656	370.963	180.478	379.448	371.851	423.832	181.900	287.837	386.912	153.129	134.257	366.141	254.413	0.0008231	0.00028957	7.1988e-05	1061.3	4.8816e-06	1.6764e-06	1154.9	225.74	1.3018e-06	1.2792e-06	286.84	80.865	62.962	18.608	7.3767e-07	26.084	0.00016759	0.0001613	4.2106e-05	987.13	1.8613e-06	1.7831e-06	1077.6	212.86	1.857e-06	1.7395e-06	259.54	75.029	59.84	18.002	1.5962e-06	24.636	365.585	241.788	149.691	81.309	251.658	115.527	81.427	89.174	346.727	281.947	88.797	95.656	95.680	103.165	182.261	102.093	-8191	255	
6939.115	1	1	0	0	0.07582	0.25362	0.11065	0.10031	0.28652	0.16083	0.24838	0.16654	0.062496	0.091554	0.18631	0.11963	0.2145	0.10434	0.045404	0.174	-1.975	-2.7708	-2.2375	-2.9896	-2.75	-2.2875	-3.2021	-2.4625	-2.5354	-2.775	-2.2	-2.7812	-2.9583	-2.4021	-3.0062	-2.4083	76.355	239.706	400.660	373.363	294.102	275.974	357.599	338.811	232.912	148.625	165.023	390.793	100.303	263.544	222.133	122.527	0.00058154	0.00035106	7.7767e-05	1055.2	4.67e-07	1.9911e-06	1147.6	225.34	7.5999e-07	2.5083e-06	283.2	80.438	62.96	18.584	2.385e-06	25.973	0.00017018	0.00015323	4.0224e-05	983.85	1.8072e-06	1.6316e-06	1070.9	212.29	1.7503e-06	1.59e-06	256.87	74.751	59.182	17.793	1.496e-06	24.58	362.410	109.927	189.531	81.321	413.675	286.356	81.233	89.327	382.884	387.174	89.100	95.629	96.004	102.855	79.244	102.136	-8191	255	
6939.211	1	1	0	0	0.22495	0.27468	0.2256	0.30567	0.23835	0.32148	0.18471	0.20191	0.20429	0.071152	0.12396	0.016162	0.18989	0.25575	0.13055	0.15561	-1.9583	-2.7667	-2.2021	-2.7979	-2.7083	-2.2062	-3.1646	-2.5479	-2.3292	-2.5667	-2.225	-2.6396	-2.5083	-2.2313	-2.8458	-2.7	424.552	276.463	414.527	140.544	180.738	108.316	424.309	284.405	400.352	72.614	119.576	423.106	338.168	397.581	334.897	229.917	0.0006816	0.00026151	2.5268e-05	1056.8	3.1751e-06	2.8689e-06	1146.4	223.86	3.474e-06	4.3598e-06	285.43	80.382	62.874	18.665	7.7226e-06	25.947	0.00015967	0.00014207	3.7959e-05	983.65	1.6952e-06	1.5555e-06	1069.9	212.07	1.7001e-06	1.5556e-06	257.32	74.919	59.005	17.78	1.544e-06	24.589	351.628	407.603	237.046	81.563	87.686	226.529	81.279	89.281	418.374	166.235	88.795	95.728	95.949	102.699	152.857	101.781	-8191	255	
6939.308	1	1	0	0	0.18284	0.070645	0.28994	0.44706	0.27391	0.22561	0.10651	0.20308	0.15584	0.18143	0.18187	0.25324	0.17394	0.21771	0.12987	0.11777	-1.7208	-2.8625	-2.3646	-2.7146	-2.7208	-2.2104	-2.9979	-2.8208	-2.2917	-2.7542	-2.1667	-2.6188	-3.0104	-2.5083	-2.8042	-2.6562	221.006	77.569	425.909	386.445	113.069	198.415	294.504	410.142	412.537	263.758	349.548	361.041	364.223	424.060	332.442	202.557	0.0006319	0.00014022	6.3342e-05	1056.2	4.7481e-06	1.2806e-06	1145.9	224.36	2.4942e-06	1.6986e-06	285.3	80.302	62.644	18.63	7.4993e-06	25.894	0.00015483	0.00014389	4.0314e-05	987.03	1.6868e-06	1.5782e-06	1072.2	212.95	1.6704e-06	1.5555e-06	258.37	75.14	58.799	17.758	1.671e-06	24.712	348.213	91.171	127.693	81.771	173.387	226.389	81.423	89.370	195.068	133.897	89.045	95.762	96.081	102.625	132.550	102.129	-8191	255	
6939.404	1	1	0	0	0.051713	0.069088	0.093203	0.11461	0.066828	0.10777	0.3	0.28124	0.15451	0.23295	0.26311	0.13641	0.097334	0.35155	0.17227	0.37324	-1.5792	-2.7396	-2.3625	-2.7792	-2.8167	-2.3021	-2.6479	-2.7417	-2.1312	-2.9729	-2.5458	-2.2021	-2.8542	-2.2917	-2.7	-2.6021	75.657	418.210	123.072	296.754	420.963	204.607	349.374	399.228	186.167	264.748	418.461	311.950	392.959	382.298	372.623	380.015	0.00054492	0.00032972	0.00016135	1063	1.3827e-06	1.6425e-06	1144.2	224.22	3.3052e-06	2.3086e-06	285.28	80.779	63.235	18.629	4.0521e-06	26.036	0.00015328	0.00014077	4.3705e-05	987.32	1.6443e-06	1.5458e-06	1073.9	212.64	1.6324e-06	1.5637e-06	260.53	75.359	59.168	17.82	1.8225e-06	24.688	357.023	207.744	142.945	81.243	238.753	252.822	81.403	89.097	119.437	279.845	88.769	95.488	95.850	102.706	169.750	102.349	-8191	255	
6939.523	1	1	0	0	0.10414	0.13842	0.13068	0.1863	0.20051	0.10577	0.2437	0.11622	0.22231	0.19133	0.19763	0.28894	0.23784	0.19213	0.38901	0.23274	-1.3625	-2.8	-2.4896	-2.4417	-3.0375	-2.3083	-2.525	-2.8333	-2.1271	-3.0187	-2.8542	-2.4021	-2.9417	-2.3229	-2.275	-2.7958	149.140	339.152	298.512	118.112	94.879	98.813	398.709	369.116	157.890	289.374	373.557	76.136	209.483	346.567	83.237	350.600	0.00060439	0.00034676	3.8947e-05	1061.4	2.5695e-06	2.3115e-06	1149.9	224.26	2.9529e-06	4.0531e-06	285.95	80.495	62.945	18.847	2.7625e-06	25.794	0.00015468	0.00014604	4.7868e-05	988.5	1.6504e-06	1.6365e-06	1080.7	212.63	1.663e-06	1.6549e-06	261.77	75.198	59.053	17.992	1.9127e-06	24.59	356.402	119.186	161.328	81.521	367.536	125.268	81.351	89.215	360.814	221.879	88.624	95.652	96.059	102.859	410.928	102.253	-8191	255	
6939.619	1	1	0	0	0.28031	0.071066	0.092627	0.37943	0.23329	0.15802	0.35008	0.26878	0.085116	0.19756	0.11098	0.22743	0.1266	0.099771	0.28204	0.29363	-1.8146	-2.8604	-2.6312	-2.3479	-2.8375	-2.1292	-2.5021	-3.0792	-2.3604	-2.7917	-2.7042	-2.2625	-2.8896	-2.4646	-2.6042	-2.8812	372.476	366.936	72.663	361.289	103.671	95.072	365.968	74.601	81.663	322.450	147.839	371.022	289.486	199.054	356.824	159.936	0.00073349	0.00036891	3.164e-05	1052.7	2.2699e-06	3.485e-06	1152.2	224.48	1.3915e-06	1.1076e-06	285.04	81.019	63.243	18.671	3.8351e-06	25.823	0.00015109	0.00015715	4.8847e-05	986.83	1.6313e-06	1.7723e-06	1082.4	212.78	1.663e-06	1.8035e-06	262.29	75.325	59.267	18.228	1.9365e-06	24.666	352.747	175.754	167.636	81.324	251.938	158.434	81.312	89.250	75.198	233.241	88.764	95.624	96.110	102.720	267.577	101.750	-8191	255	
6939.715	1	1	0	0	0.11724	0.20478	0.11885	0.10018	0.10257	0.028277	0.11998	0.13094	0.28166	0.19286	0.11049	0.06603	0.11647	0.12813	0.076879	0.22682	-1.7917	-2.6396	-2.6312	-2.3479	-2.8958	-2.6104	-2.625	-2.7792	-2.1042	-2.6479	-2.8646	-2.1042	-2.9625	-2.6479	-2.3979	-3.0125	86.490	276.941	397.842	402.593	294.518	350.993	346.618	390.552	302.670	149.999	93.276	156.691	384.849	262.979	362.547	352.924	0.00080527	0.00037368	1.2207e-05	1059.3	1.847e-06	2.0825e-06	1153.9	226.21	6.3756e-06	1.7148e-06	286.71	80.566	63.559	18.73	3.1135e-06	26.174	0.00015435	0.00017444	4.9093e-05	991.85	1.6825e-06	1.977e-06	1085.1	213.62	1.7267e-06	1.9906e-06	263.34	75.455	59.57	18.388	1.889e-06	24.792	365.830	100.037	93.404	81.408	94.152	140.181	81.543	89.128	153.138	245.639	88.762	95.716	95.935	102.868	89.692	102.257	-8191	255	
6939.788	1	1	0	0	0.13028	0.2059	0.26407	0.13169	0.18107	0.13706	0.37519	0.42783	0.097759	0.23203	0.15674	0.15909	0.06224	0.059952	0.17426	0.22758	-1.8875	-2.5938	-2.6583	-2.45	-2.7708	-2.5896	-2.4729	-2.9333	-2.3021	-2.6375	-2.8125	-2.1875	-2.9062	-2.6771	-2.2979	-2.8833	268.939	298.396	290.494	381.887	348.560	197.743	389.633	414.473	270.082	308.481	348.365	351.128	280.559	276.487	225.792	324.130	0.00087295	0.00031308	6.0161e-06	1064.4	3.5608e-06	6.8566e-07	1156	226.47	3.4805e-06	8.2381e-07	288.01	80.608	63.357	18.629	2.059e-06	26.067	0.00016129	0.00018215	4.7201e-05	992.47	1.7603e-06	2.0085e-06	1083.9	213.99	1.8114e-06	1.9826e-06	261.88	75.24	59.837	18.367	1.8012e-06	24.611	356.302	98.034	393.512	81.538	172.141	200.486	81.221	89.476	150.591	376.148	88.718	95.869	95.981	102.896	142.840	102.321	-8191	255	
6939.907	1	1	0	0	0.16186	0.22642	0.20526	0.063829	0.24542	0.37424	0.28769	0.22748	0.062854	0.18839	0.20333	0.23193	0.18321	0.39088	0.041894	0.47623	-2.0958	-2.4062	-2.6979	-2.2458	-2.6604	-2.6854	-2.1271	-2.9333	-2.5333	-2.4521	-3.0833	-2.2583	-2.4667	-2.6188	-2.1333	-2.6917	337.998	163.548	262.616	132.353	347.793	336.464	295.037	332.321	272.451	126.132	397.071	99.546	167.026	145.935	400.000	342.631	0.00063909	0.00025115	3.2741e-05	1063.9	2.482e-06	1.9096e-06	1155.3	226.5	1.0163e-05	9.8032e-07	286.22	80.913	63.543	18.766	4.4534e-06	25.933	0.00017092	0.00017788	4.5689e-05	991	1.8691e-06	1.9543e-06	1082.1	213.64	1.8949e-06	1.9162e-06	261.37	75.433	60.192	18.36	1.7853e-06	24.656	355.259	290.615	248.236	81.446	275.462	174.816	81.386	89.126	214.474	111.459	88.654	95.693	96.006	102.858	144.900	102.200	-8191	255	
6940.003	1	1	0	0	0.19142	0.095967	0.036685	0.22005	0.11729	0.078082	0.11675	0.10089	0.2196	0.21353	0.057763	0.18165	0.17062	0.11177	0.10454	0.2778	-2.1042	-2.2771	-2.7625	-2.2687	-2.5396	-2.8229	-2.3979	-2.7646	-2.5062	-2.2188	-3.0354	-2.4313	-2.5917	-2.9979	-1.9354	-2.6188	420.811	267.567	338.433	356.638	181.560	363.829	102.627	80.951	326.344	182.921	415.581	381.524	331.024	406.358	342.515	126.868	0.00058141	0.00028992	8.9184e-05	1063	1.9048e-06	3.2694e-06	1156.3	227.12	9.7211e-06	3.0335e-06	286.84	81.165	63.479	18.748	3.6508e-06	26.391	0.00018344	0.00017513	4.5281e-05	992.76	2.0118e-06	1.9201e-06	1085.6	214.63	2.0817e-06	1.9498e-06	261.92	76.009	60.82	18.377	1.819e-06	25.032	360.003	296.714	192.448	81.321	221.023	382.945	81.151	89.163	189.160	284.747	88.596	95.836	95.301	103.175	334.631	102.405	-8191	255	
6940.099	1	1	0	0	0.10916	0.19714	0.12381	0.2633	0.09327	0.047761	0.22024	0.15985	0.22108	0.14029	0.13254	0.33482	0.044973	0.1994	0.044147	0.3177	-2.3063	-2.3854	-2.8604	-2.2938	-2.3708	-2.8979	-2.4062	-2.7708	-2.4125	-2.1479	-2.9625	-2.575	-2.6625	-2.9958	-1.9958	-2.6937	170.235	419.563	277.136	101.432	114.143	119.310	364.381	264.772	223.362	416.681	418.720	416.118	345.580	370.803	103.159	338.107	0.00052134	0.00038785	5.2606e-05	1069.3	1.17e-06	3.4125e-06	1160.6	227.82	2.631e-06	3.7354e-06	285.22	81.266	63.272	18.836	3.859e-06	26.344	0.00019296	0.00017454	4.4991e-05	998.01	2.0557e-06	1.857e-06	1086.6	216.17	2.0288e-06	1.855e-06	261.31	76.378	60.525	18.213	1.716e-06	25.125	362.123	165.192	286.678	81.412	317.187	306.272	81.303	89.116	226.128	243.923	88.397	95.711	95.959	102.727	361.096	102.274	-8191	255	
6940.196	1	1	0	0	0.31505	0.15743	0.062871	0.21432	0.12104	0.13261	0.45033	0.14291	0.23335	0.072795	0.18572	0.13384	0.31838	0.26313	0.16874	0.10608	-2.0812	-1.8979	-2.7562	-2.4	-2.4042	-2.8438	-2.3958	-2.6083	-2.5896	-2.0583	-2.9771	-2.4917	-2.2687	-3.0354	-2.2396	-2.5833	340.557	267.053	311.214	155.008	100.752	97.717	393.709	343.494	399.127	290.276	353.170	416.287	420.570	90.450	96.280	213.175	0.00055954	0.00016873	0.00011536	1065.2	4.4609e-06	2.4414e-06	1158.2	227.7	1.0297e-06	2.0449e-06	288.76	81.477	63.767	18.725	5.086e-06	26.273	0.000179	0.00016243	4.2539e-05	997.84	1.8976e-06	1.7378e-06	1083.4	216.42	1.8704e-06	1.727e-06	261.26	76.485	60.235	18.089	1.7039e-06	25.108	347.919	276.115	190.206	81.300	378.503	194.696	81.366	89.001	200.060	364.360	88.764	95.569	96.002	103.339	252.304	102.111	-8191	255	
6940.316	1	1	0	0	0.12456	0.25709	0.11788	0.078873	0.3254	0.16009	0.32106	0.037443	0.10787	0.17807	0.18877	0.027087	0.070288	0.27716	0.071551	0.1117	-2.425	-2.2104	-2.7292	-2.9188	-2.1833	-2.7167	-2.6542	-2.5563	-2.825	-1.9729	-2.6583	-2.6958	-2.3521	-3.0708	-2.4708	-2.4125	262.397	335.373	388.530	274.206	77.240	229.543	404.574	298.930	275.359	284.437	252.992	106.632	171.239	83.247	198.490	300.867	0.00029495	0.00040749	0.0001473	1065.1	2.7327e-06	1.5767e-06	1164.4	227.42	7.2522e-06	7.6923e-07	287.65	81.133	63.489	18.878	2.4964e-06	26.152	0.0001685	0.00015408	4.4002e-05	1000.1	1.8323e-06	1.6927e-06	1088.7	216.67	1.8304e-06	1.7158e-06	263.29	76.708	60.036	18.119	1.8542e-06	25.128	343.700	165.371	132.426	81.409	269.424	346.129	81.162	89.234	249.260	315.561	88.721	95.509	95.874	103.022	119.337	101.989	-8191	255	
6940.388	1	1	0	0	0.32961	0.04507	0.092372	0.27319	0.4597	0.065445	0.13278	0.23471	0.053941	0.070284	0.049729	0.21423	0.30641	0.15447	0.22728	0.47116	-2.5812	-2.3563	-2.6771	-2.75	-2.2458	-2.8354	-2.6104	-2.6958	-2.7292	-2.3583	-2.6083	-2.7062	-2.1271	-2.9083	-2.5375	-2.4042	394.348	86.177	264.968	127.474	199.312	367.320	406.455	73.942	326.166	129.813	86.207	139.358	362.128	367.748	183.267	286.889	0.00073956	0.0002536	0.00012562	1068.8	5.0874e-07	1.1172e-06	1156.8	227.03	2.0754e-06	4.2577e-06	289.58	81.45	63.734	18.896	6.7992e-06	26.192	0.00016486	0.00015192	4.6938e-05	999.64	1.7238e-06	1.6019e-06	1087.3	215.59	1.6989e-06	1.62e-06	263.87	76.065	59.845	18.094	1.9636e-06	25.106	355.169	181.971	106.101	81.387	89.118	117.519	81.217	88.912	229.317	171.094	88.479	95.563	95.680	103.070	221.919	102.037	-8191	255	
6940.509	1	1	0	0	0.26799	0.17071	0.22666	0.19859	0.17866	0.14212	0.14754	0.29858	0.19233	0.11292	0.20492	0.32563	0.041125	0.20394	0.17905	0.073255	-2.3	-2.0958	-2.5417	-2.8354	-2.2854	-2.9896	-2.9062	-2.3729	-2.8187	-2.1896	-2.4938	-2.9583	-2.2188	-2.7042	-2.6208	-2.1854	214.364	209.583	112.054	387.574	328.093	344.686	370.913	361.625	122.095	239.642	83.910	86.615	165.632	402.494	317.880	295.438	0.00048416	0.00027778	7.8318e-05	1069.2	1.5645e-06	4.012e-06	1159.4	228.17	4.8148e-06	5.1372e-06	288.93	81.599	63.989	18.979	2.2833e-06	26.272	0.00016183	0.00015885	5.1224e-05	1003.4	1.8087e-06	1.768e-06	1093.6	216.54	1.7941e-06	1.8492e-06	266.48	76.451	60.002	18.317	2.0538e-06	25.015	381.726	161.932	100.024	81.341	198.681	174.574	81.380	89.104	107.766	228.024	88.931	95.447	96.131	102.886	244.241	102.040	-8191	255	
6940.603	1	1	0	0	0.18673	0.14106	0.14004	0.26375	0.22163	0.22467	0.35991	0.10548	0.15096	0.11239	0.19903	0.099484	0.15115	0.18107	0.21146	0.1439	-2.4667	-2.3104	-2.4271	-2.9292	-2.3625	-2.8271	-2.8396	-2.275	-2.8417	-2.3	-2.5438	-2.775	-2.2021	-2.7938	-2.8646	-2.3208	257.779	402.440	218.966	409.454	100.931	398.487	397.961	84.370	373.728	317.130	382.580	277.321	148.489	246.973	314.799	255.393	0.00054452	0.0001983	5.9057e-05	1070	1.3336e-06	3.1512e-06	1162.3	227.43	4.6678e-06	5.1978e-06	288.7	81.138	63.423	18.827	2.2794e-06	26.171	0.00016019	0.00016874	5.127e-05	998.8	1.6872e-06	1.7925e-06	1093	214.83	1.5954e-06	1.7572e-06	263.02	75.211	59.075	18.081	1.7395e-06	24.476	343.285	129.243	84.286	81.439	384.497	171.090	81.230	89.012	114.257	174.710	88.600	95.654	95.870	102.936	313.357	102.434	-8191	255	
6940.699	1	1	0	0	0.12105	0.26878	0.02843	0.10463	0.2323	0.09344	0.3614	0.22018	0.072497	0.070354	0.19313	0.01373	0.1657	0.12812	0.21865	0.20924	-2.4667	-2.5958	-2.5	-3.0354	-2.2667	-2.6479	-2.925	-2.2521	-2.9354	-2.5167	-2.6729	-2.9896	-2.3771	-2.4667	-2.6021	-2.1417	291.703	406.658	390.412	411.583	265.134	296.599	355.369	247.084	345.033	408.015	425.887	280.149	250.514	142.333	252.299	278.866	0.00052159	0.0002123	3.6037e-05	1063.3	3.947e-06	1.8831e-07	1153.3	225.81	4.2588e-06	2.4866e-06	286.44	81.066	63.058	18.686	3.6401e-06	25.959	0.00013648	0.00015501	4.2979e-05	987.79	1.4795e-06	1.7151e-06	1079.6	212.41	1.5064e-06	1.7801e-06	260.04	74.81	59.006	18.122	1.6999e-06	24.418	356.666	415.677	256.726	81.188	231.421	430.917	81.496	89.146	148.841	187.074	88.648	95.590	95.517	102.951	121.347	102.354	-8191	255	
6940.797	1	1	0	0	0.040588	0.27559	0.20826	0.10271	0.090529	0.064126	0.19601	0.15735	0.064165	0.29866	0.11819	0.14943	0.047973	0.26303	0.042919	0.09347	-2.4271	-2.6625	-2.2021	-3.0187	-2.2812	-2.3396	-2.8646	-2.2021	-2.8625	-2.6458	-2.2958	-2.7729	-2.4458	-2.3917	-3.0125	-2.2958	301.358	79.667	166.795	321.028	424.222	171.063	388.477	348.165	156.618	257.807	76.032	409.950	318.901	134.337	389.828	95.306	0.00055164	0.00030248	4.8338e-05	1062.8	5.776e-06	8.6995e-07	1155.4	225.12	9.1483e-06	1.2507e-06	286.48	80.855	63.496	18.665	1.8514e-06	26.069	0.00014625	0.00016528	4.2951e-05	987.31	1.6256e-06	1.8156e-06	1079.9	212.15	1.6511e-06	1.8213e-06	260.09	74.778	59.386	18.119	1.6282e-06	24.365	355.353	78.974	391.156	81.309	194.495	244.553	81.255	89.045	227.444	386.301	88.845	95.366	96.046	102.897	188.734	102.062	-8191	255	
6940.916	1	1	0	0	0.24344	0.12544	0.11322	0.22075	0.22874	0.073677	0.37591	0.17005	0.12288	0.17183	0.26072	0.1688	0.21029	0.071842	0.14968	0.16648	-2.1542	-2.5563	-2.1229	-2.9542	-2.4917	-2.5542	-2.9708	-2.1937	-3.0104	-2.7708	-2.4083	-2.7917	-2.4938	-2.5438	-2.9625	-2.4354	428.913	364.758	281.782	380.372	144.111	132.522	373.346	406.705	336.277	201.708	406.390	395.285	115.210	328.690	198.669	272.013	0.00067824	6.0096e-05	5.4261e-06	1064	4.1628e-06	1.1679e-06	1158.1	225.54	5.6414e-06	1.1376e-06	286.88	81.108	63.6	18.661	5.6478e-06	25.95	0.00015704	0.00016361	4.1509e-05	988.26	1.7375e-06	1.7734e-06	1079.2	212.56	1.7456e-06	1.7463e-06	259.57	74.581	59.665	18.01	1.5559e-06	24.394	351.016	302.940	282.533	81.349	202.560	78.915	81.324	89.190	200.771	238.590	88.678	95.721	96.205	103.019	184.700	102.539	-8191	255	
6941.012	1	1	0	0	0.16679	0.087961	0.20789	0.14138	0.17608	0.14062	0.25107	0.016309	0.14448	0.082219	0.15275	0.25867	0.1949	0.28503	0.26653	0.23475	-2.0146	-2.675	-2.175	-2.9292	-2.4813	-2.2417	-2.9708	-2.4562	-2.7167	-2.8833	-2.2646	-2.8583	-2.5438	-2.2188	-2.6792	-2.2417	291.371	362.014	171.804	327.490	301.712	81.492	340.856	326.569	229.899	268.620	379.805	251.824	356.985	372.068	135.934	159.007	0.00086299	0.00018669	4.5393e-05	1062.9	2.5979e-06	2.9039e-06	1151.2	226.31	5.1312e-06	2.288e-06	286.68	80.598	63.113	18.737	2.3185e-06	26.119	0.00016274	0.00015334	4.021e-05	985.92	1.7799e-06	1.6808e-06	1077.1	212.76	1.7924e-06	1.6697e-06	258.97	74.78	59.678	18.01	1.5451e-06	24.552	358.013	423.842	388.711	81.405	216.099	121.857	81.539	88.985	258.600	278.981	88.701	95.661	95.754	102.934	276.533	102.222	-8191	255	
6941.108	1	1	0	0	0.15305	0.15909	0.12437	0.17336	0.16013	0.23241	0.26537	0.31678	0.19738	0.072568	0.13438	0.16209	0.21148	0.30521	0.15452	0.41467	-2.1125	-2.9521	-2.1583	-2.6833	-2.4083	-2.275	-3.0875	-2.4813	-2.3854	-2.6312	-2.0854	-2.9896	-2.825	-2.3896	-2.8812	-2.3625	94.591	103.023	139.879	108.795	256.942	245.455	71.641	348.031	342.945	166.410	176.406	246.588	382.724	422.666	341.943	427.813	0.00052432	0.00043847	1.2551e-05	1063.7	1.3401e-06	1.7083e-06	1159.4	226.38	1.3429e-06	1.1209e-06	284.78	80.862	63.226	18.634	3.2949e-06	26.072	0.00016832	0.00015084	3.9883e-05	990.19	1.8099e-06	1.6628e-06	1076.4	213.67	1.8012e-06	1.6386e-06	257.57	75.28	59.432	17.892	1.5099e-06	24.733	352.340	80.956	180.180	81.507	238.028	214.075	81.366	89.148	421.151	311.767	88.557	95.669	95.937	102.742	309.489	102.152	-8191	255	
6941.204	1	1	0	0	0.069709	0.17996	0.20172	0.16748	0.21427	0.36604	0.27776	0.15152	0.054903	0.051506	0.39868	0.093346	0.12679	0.15159	0.12068	0.21832	-1.9625	-2.9854	-2.3521	-2.5917	-2.725	-2.2938	-2.9271	-2.3208	-2.4313	-3.1333	-2.3729	-2.4938	-2.6625	-2.3021	-2.8937	-2.4208	280.207	265.739	162.409	83.781	317.214	290.696	369.536	269.890	289.047	76.715	326.020	303.546	72.953	376.603	234.374	349.705	0.00042919	1.2072e-05	9.2658e-05	1063.8	3.6666e-06	1.2545e-07	1154.2	226.69	2.2338e-06	3.7828e-06	286.63	80.68	63.287	18.54	4.2225e-06	26.095	0.00016173	0.0001453	3.8976e-05	989.67	1.7392e-06	1.5928e-06	1075.2	214.37	1.7304e-06	1.6017e-06	258.74	75.5	59.437	17.868	1.6171e-06	24.836	352.732	157.894	196.730	81.223	250.291	413.149	81.471	89.107	375.665	237.893	88.771	95.624	95.750	102.835	145.720	101.962	-8191	255	
6941.300	1	1	0	0	0.31115	0.12246	0.077496	0.12065	0.39564	0.28354	0.17375	0.094581	0.26941	0.16399	0.17503	0.05803	0.040036	0.14173	0.033958	0.059638	-1.4708	-2.7792	-2.2625	-2.4479	-2.8083	-2.0896	-3.1583	-2.8812	-2.3125	-2.8146	-2.375	-2.6708	-2.8104	-2.0979	-2.7188	-2.8417	88.213	114.079	214.594	291.253	164.374	289.207	316.663	168.120	101.479	183.896	131.450	139.162	348.450	359.790	301.760	402.801	0.00055087	0.00027789	7.4654e-05	1060.2	2.2218e-06	1.869e-06	1152.5	226.7	6.2113e-06	2.5178e-06	285.94	80.468	63.152	18.645	4.7895e-06	25.847	0.00015811	0.00014563	4.1933e-05	992.61	1.6893e-06	1.5695e-06	1077	214.53	1.673e-06	1.5469e-06	259.67	75.321	59.185	17.868	1.7031e-06	24.764	356.771	345.261	164.822	81.335	266.807	85.876	81.504	88.819	229.256	90.739	88.583	95.453	95.912	103.060	185.849	102.304	-8191	255	
6941.397	1	1	0	0	0.20427	0.074968	0.21506	0.17439	0.19913	0.1345	0.2578	0.092774	0.32345	0.24959	0.10022	0.10367	0.10846	0.19724	0.11305	0.091136	-1.6833	-2.8917	-2.2438	-2.6958	-2.8187	-1.9792	-2.7604	-2.9271	-2.3708	-3.0687	-2.5333	-2.3167	-2.7188	-2.2042	-2.675	-2.9792	102.035	264.239	361.520	402.873	148.031	371.185	350.244	354.585	159.226	87.220	328.142	285.738	425.021	102.042	79.611	402.168	0.00080124	0.00014963	5.5467e-05	1062.5	5.5068e-06	3.1629e-06	1153.8	225.76	1.9298e-06	1.3952e-06	286.66	81.105	63.255	18.675	4.0934e-06	25.867	0.00015303	0.00013974	4.4591e-05	992.41	1.6359e-06	1.5607e-06	1079.9	213.82	1.6336e-06	1.5249e-06	260.99	75.394	59.14	17.876	1.8145e-06	24.703	350.726	187.407	160.507	81.466	169.411	109.403	81.170	88.983	388.082	192.138	88.936	95.602	95.468	102.728	268.964	101.968	-8191	255	
6941.493	1	1	0	0	0.076546	0.17468	0.13645	0.30693	0.23826	0.18074	0.076471	0.19612	0.20077	0.13194	0.19417	0.19105	0.11362	0.033622	0.21025	0.10623	-1.775	-2.8708	-2.6375	-2.3438	-2.8	-2.3917	-2.8917	-2.8604	-2.1437	-2.7875	-2.475	-2.2583	-2.85	-2.4313	-2.3812	-2.9125	298.158	202.161	252.650	366.518	344.127	97.696	152.042	315.053	134.426	316.329	388.156	343.545	92.770	363.034	218.197	106.375	0.00075025	0.00037344	1.1606e-05	1066.4	5.4203e-06	4.712e-06	1159.7	227.14	4.5652e-06	4.3557e-07	287.24	81.027	63.424	18.748	1.7293e-06	26.154	0.0001494	0.00014286	4.6388e-05	992.54	1.5951e-06	1.5995e-06	1084.4	213.94	1.6107e-06	1.6145e-06	262.31	75.362	59.098	17.983	1.8556e-06	24.61	349.193	171.988	134.398	81.146	147.049	148.813	81.455	89.065	240.130	419.294	88.306	95.353	96.187	102.805	281.864	101.576	-8191	255	
6941.612	1	1	0	0	0.13848	0.028164	0.16233	0.49039	0.04625	0.12201	0.23685	0.13704	0.27015	0.14972	0.088528	0.179	0.033912	0.063767	0.18271	0.4738	-1.6437	-2.7729	-2.3958	-2.3458	-2.9771	-2.3792	-2.6792	-2.8896	-2.2125	-2.7583	-2.6479	-2.2792	-2.75	-2.4604	-2.3458	-2.7021	397.168	380.458	153.125	422.541	314.787	287.512	403.419	403.381	348.382	404.649	171.487	399.815	106.345	105.979	221.966	332.968	0.00050916	0.00023242	1.5107e-05	1063	1.0169e-06	4.7603e-06	1156.6	227.2	1.9612e-06	3.0206e-06	283.39	80.853	63.393	18.778	4.7401e-06	26.035	0.00014633	0.0001516	4.6828e-05	990.22	1.5457e-06	1.7036e-06	1083.7	213.24	1.5733e-06	1.708e-06	260.93	75.003	58.963	18.129	1.7837e-06	24.525	351.611	142.880	166.631	81.220	113.358	168.264	81.351	89.061	250.232	246.570	88.737	95.726	96.002	102.833	104.519	102.126	-8191	255	
6941.683	1	1	0	0	0.22303	0.19364	0.27149	0.33502	0.14011	0.18683	0.31398	0.20496	0.18123	0.14341	0.22154	0.087998	0.18796	0.094819	0.29481	0.16165	-1.7521	-2.6312	-2.6625	-2.325	-2.7687	-2.325	-2.6125	-2.7854	-2.5333	-2.3729	-2.8646	-2.2604	-2.9708	-2.5479	-2.1146	-3.0479	245.064	116.356	247.971	206.617	86.872	71.375	406.541	305.246	75.421	403.493	264.184	253.050	424.775	304.974	288.746	242.841	0.00082771	0.00034578	5.2067e-05	1062.8	4.2217e-06	4.249e-06	1157.2	226.69	5.3369e-06	2.1062e-06	284.79	80.604	62.926	18.762	9.929e-07	26.068	0.00014458	0.00016307	4.4743e-05	989.72	1.5713e-06	1.8038e-06	1081.8	213.07	1.5465e-06	1.7807e-06	259.62	74.726	58.886	18.139	1.6671e-06	24.387	353.658	75.082	389.304	81.543	335.011	189.728	81.316	88.896	213.043	295.995	88.288	95.406	95.645	102.781	305.642	102.127	-8191	255	
6941.779	1	1	0	0	0.051973	0.18396	0.13278	0.27223	0.27394	0.025536	0.19575	0.16413	0.25244	0.19398	0.2913	0.13797	0.066158	0.031309	0.20192	0.11583	-2.0729	-2.425	-2.7188	-2.2	-2.6729	-2.4708	-2.2896	-2.8396	-2.3688	-2.7562	-2.7667	-2.1479	-2.6771	-2.7083	-2.3417	-2.9667	250.577	194.389	214.078	425.242	101.499	385.560	351.063	323.938	381.165	83.688	363.479	105.864	154.198	199.206	233.550	287.139	0.00067502	0.0002126	9.4507e-05	1059.1	3.8542e-06	1.2067e-06	1150.4	225.93	6.3827e-06	4.6307e-06	286.89	80.537	63.495	18.655	2.684e-06	25.896	0.0001483	0.00016393	4.1839e-05	986.14	1.5933e-06	1.7979e-06	1077.7	212.36	1.6299e-06	1.7901e-06	259.24	74.381	59.166	18.058	1.6242e-06	24.29	363.532	214.937	357.622	81.345	221.041	379.307	81.401	89.096	213.545	179.846	88.814	95.580	95.971	102.906	177.643	101.987	-8191	255	
6941.877	1	1	0	0	0.20655	0.16783	0.093686	0.18464	0.031044	0.1821	0.2653	0.13631	0.13498	0.11948	0.057225	0.076439	0.23277	0.09573	0.20658	0.048381	-1.8896	-2.4854	-2.9146	-2.2667	-2.6937	-2.8333	-2.4292	-2.9188	-2.2958	-2.4958	-2.8937	-2.2188	-2.4542	-2.6021	-2.4437	-2.8688	245.105	308.341	312.127	110.219	140.586	295.004	329.112	394.287	385.697	256.309	366.974	90.220	428.071	109.368	271.189	401.779	0.00067421	0.00029032	2.329e-05	1058.5	4.2416e-06	2.1855e-06	1154.4	224.98	4.9009e-06	1.8248e-06	286.09	80.619	63.313	18.712	4.4374e-06	26.016	0.00015615	0.00015893	4.0794e-05	985.97	1.7065e-06	1.7488e-06	1078.2	211.62	1.7379e-06	1.7245e-06	258.97	74.447	59.555	18.039	1.5818e-06	24.368	362.187	179.661	144.104	81.345	158.937	240.139	81.186	89.099	150.446	266.886	88.390	95.682	95.788	102.927	360.201	102.338	-8191	255	
6941.996	1	1	0	0	0.050784	0.187	0.22568	0.1509	0.17055	0.060527	0.33008	0.1932	0.24626	0.094066	0.12159	0.26185	0.1416	0.25903	0.15821	0.10017	-2.1292	-2.1063	-2.8292	-2.3688	-2.6521	-2.8771	-2.2271	-2.7458	-2.3958	-2.4229	-2.9729	-2.3104	-2.5854	-2.8833	-2.0812	-2.7708	160.382	271.568	304.125	354.054	231.102	415.965	78.505	401.137	87.008	180.731	114.143	377.639	95.004	381.980	289.253	318.103	0.0007178	3.631e-05	4.0485e-05	1061.7	2.9718e-06	2.4146e-06	1155	225.58	3.9781e-06	2.2977e-06	286.48	80.728	63.463	18.717	2.0304e-06	26.001	0.00016559	0.00015325	3.946e-05	987.41	1.7756e-06	1.6618e-06	1076.4	212.57	1.801e-06	1.6561e-06	258.1	74.883	59.597	17.925	1.5519e-06	24.495	358.005	326.187	277.900	81.125	206.728	76.871	81.220	89.240	143.754	313.766	88.821	95.416	96.083	102.945	114.311	101.997	-8191	255	
6942.092	1	1	0	0	0.13102	0.28221	0.15848	0.12819	0.18117	0.08513	0.064097	0.05334	0.42759	0.32642	0.36294	0.15435	0.054999	0.068218	0.12499	0.10606	-2.2646	-2.15	-2.8958	-2.4708	-2.3542	-2.8542	-2.3333	-2.8479	-2.6708	-2.2	-3.0354	-2.5479	-2.2771	-2.9042	-2.2792	-2.7562	101.203	360.899	339.256	381.546	279.673	150.143	360.694	189.298	86.644	380.727	398.630	75.742	254.475	373.395	165.977	201.954	0.00067795	0.00020901	8.1006e-05	1064.7	1.7585e-06	3.9723e-07	1154.4	225.76	3.245e-06	1.8513e-06	286.49	80.562	62.774	18.683	2.0951e-06	26.173	0.00016395	0.00014843	3.8575e-05	988.95	1.7637e-06	1.5937e-06	1075.2	213.17	1.7422e-06	1.591e-06	257.6	74.997	59.323	17.863	1.4925e-06	24.648	363.789	363.705	161.322	81.470	320.515	253.251	81.301	89.258	160.618	335.163	88.895	96.003	95.763	102.736	159.620	101.974	-8191	255	
6942.189	1	1	0	0	0.079078	0.045532	0.024742	0.43321	0.15176	0.32424	0.41068	0.43244	0.079759	0.21965	0.13201	0.095028	0.19853	0.34586	0.072099	0.042371	-2.25	-2.1	-2.5938	-2.5021	-2.2229	-2.7896	-2.5833	-2.6917	-2.7917	-2.4167	-3.0625	-2.7396	-2.3229	-3.0083	-2.4458	-2.725	190.175	250.079	363.333	398.436	288.013	274.470	331.054	348.097	207.889	273.069	375.166	373.390	377.263	341.509	117.085	420.766	0.00048939	0.00027862	7.1454e-05	1060.3	1.799e-06	4.6019e-06	1156.1	225.88	3.5669e-06	1.2699e-06	285.7	80.878	63.02	18.826	3.9961e-06	25.964	0.00015758	0.00014235	3.746e-05	989.66	1.7004e-06	1.5422e-06	1075.2	213.74	1.675e-06	1.5853e-06	258.06	75.33	59.29	17.805	1.5785e-06	24.699	355.964	117.002	131.682	81.342	403.187	249.085	81.404	89.129	259.660	118.965	88.733	95.681	95.870	103.022	205.023	102.067	-8191	255	
6942.285	1	1	0	0	0.29615	0.080462	0.14275	0.14017	0.31769	0.14019	0.37822	0.15234	0.050874	0.037535	0.35526	0.054043	0.196	0.097918	0.21336	0.10931	-2.5771	-2.1813	-2.7042	-2.6813	-2.2104	-2.75	-2.3271	-2.5042	-2.6625	-2.0042	-2.6875	-2.7542	-2.0458	-2.9271	-2.4417	-2.4729	182.458	189.786	400.137	415.853	264.680	242.366	361.556	290.896	238.044	350.475	357.421	193.091	102.810	411.711	406.835	346.574	0.00044678	0.00012953	4.5389e-05	1062.8	9.0271e-07	2.1336e-06	1156.8	225.67	3.0857e-06	1.2957e-06	284.57	80.872	62.826	18.576	4.4831e-06	25.823	0.00015032	0.00013924	3.9493e-05	990.58	1.6183e-06	1.5029e-06	1079.3	213.6	1.6056e-06	1.5333e-06	258.64	75.549	59.124	17.808	1.6965e-06	24.665	370.682	160.387	87.051	81.360	318.361	139.617	81.595	89.053	236.673	158.520	88.568	95.893	95.771	103.051	199.319	102.182	-8191	255	
6942.381	1	1	0	0	0.18675	0.073816	0.2393	0.17164	0.23229	0.12021	0.23239	0.28796	0.060089	0.059411	0.11778	0.079113	0.2439	0.21053	0.064312	0.10853	-2.3812	-2.3104	-2.6458	-2.6937	-1.9542	-2.9979	-2.3417	-2.3958	-2.7604	-2.2125	-2.7042	-2.6688	-2.2271	-2.9604	-2.5687	-2.4917	132.923	215.646	280.530	87.338	150.507	124.583	308.768	390.909	240.182	211.227	120.987	120.555	377.284	423.640	427.787	385.993	0.00054107	0.00036742	8.2922e-05	1068.1	1.8957e-06	2.6357e-06	1155.3	225.43	8.2112e-07	1.4309e-06	286.14	80.515	63.195	18.768	2.9745e-06	26.075	0.00014811	0.00013985	4.3644e-05	994.22	1.6246e-06	1.516e-06	1082.2	213.2	1.5946e-06	1.5502e-06	261.06	75.385	59.128	17.93	1.833e-06	24.709	363.158	122.447	118.769	81.320	243.745	139.598	81.272	89.174	221.759	71.730	88.797	95.591	95.608	102.760	216.052	101.669	-8191	255	
6942.477	1	1	0	0	0.0583	0.17403	0.14553	0.052239	0.30133	0.11933	0.050549	0.28989	0.059078	0.12972	0.13227	0.16099	0.1509	0.085135	0.16352	0.19392	-2.3604	-2.2208	-2.7646	-2.9979	-2.3312	-2.8563	-2.8167	-2.2458	-2.8354	-2.2729	-2.6229	-2.9083	-2.2313	-2.9833	-2.7896	-2.2208	178.096	415.672	339.504	97.109	408.617	85.461	390.033	328.555	313.572	261.612	374.636	303.398	395.415	393.112	89.291	154.906	0.00067907	0.00018905	4.9368e-05	1061.6	1.7236e-06	2.9259e-06	1157	226.86	4.2917e-06	9.1764e-07	286.77	80.036	63.067	18.566	3.5968e-06	25.908	0.00014971	0.0001479	4.7159e-05	993.25	1.6436e-06	1.6455e-06	1085.2	213.85	1.582e-06	1.6665e-06	261.9	75.034	59.033	17.959	1.8494e-06	24.542	359.061	82.492	228.816	81.277	119.834	140.578	81.558	88.958	215.835	171.942	88.724	95.328	95.572	102.514	140.958	101.974	-8191	255	
6942.598	1	1	0	0	0.27627	0.068	0.20487	0.12365	0.014175	0.01778	0.3195	0.058748	0.087083	0.19854	0.1834	0.32571	0.25047	0.15146	0.1665	0.22591	-2.5354	-2.2104	-2.0604	-2.9229	-1.8479	-2.6979	-2.9229	-2.2604	-2.8604	-2.3187	-2.5417	-2.8625	-2.2417	-2.7146	-2.5938	-2.1229	241.212	178.683	277.666	370.255	256.853	238.499	393.976	223.721	238.283	264.982	385.748	100.450	424.041	179.619	212.859	398.940	0.00060995	0.00045879	3.1e-05	1061.6	4.2866e-06	4.4637e-06	1156.6	226.28	4.614e-06	3.5277e-06	286.54	80.579	63.468	18.802	2.0425e-06	25.973	0.0001431	0.00015535	4.6354e-05	990.67	1.5811e-06	1.7121e-06	1082.5	213.16	1.529e-06	1.735e-06	260.96	74.767	58.951	18.057	1.7381e-06	24.5	366.217	113.979	216.615	81.374	92.726	175.921	81.211	89.286	147.233	174.152	88.580	95.259	95.982	102.450	133.270	102.222	-8191	255	
6942.692	1	1	0	0	0.29522	0.084835	0.12167	0.12772	0.25106	0.19286	0.1992	0.025299	0.19923	0.10997	0.18956	0.13651	0.10877	0.21241	0.21165	0.032926	-2.3271	-2.3646	-2.3042	-2.8812	-2.1271	-2.6208	-3.1375	-2.0917	-2.7771	-2.5646	-2.4333	-2.8208	-2.2333	-2.4417	-2.925	-2.1208	354.438	394.346	369.876	273.255	194.960	141.272	374.157	332.131	143.749	417.604	117.525	242.776	201.873	416.797	391.948	222.486	0.00076241	0.00015386	3.4709e-05	1063.7	1.0688e-06	8.8762e-07	1150.5	225.85	4.6227e-06	3.9384e-06	284.37	80.97	63.25	18.606	5.2448e-06	26.304	0.00013962	0.00016066	4.4146e-05	988.56	1.5432e-06	1.7702e-06	1078.7	212.83	1.5563e-06	1.7993e-06	259.81	74.69	59.119	18.153	1.6934e-06	24.5	351.039	178.944	346.503	81.346	265.557	188.052	81.543	89.077	165.714	112.881	88.670	95.655	95.631	103.013	237.113	102.356	-8191	255	
6942.788	1	1	0	0	0.086625	0.19053	0.070837	0.046586	0.10204	0.41044	0.20525	0.14725	0.14505	0.091353	0.072511	0.13812	0.22394	0.0942	0.15018	0.26145	-2.1833	-2.6167	-2.2479	-3.1625	-2.3146	-2.6708	-2.9062	-2.2292	-2.7833	-2.7292	-2.1458	-2.9958	-2.3667	-2.575	-2.7542	-2.3104	378.792	315.370	138.170	341.530	402.438	312.029	80.615	407.132	194.304	390.459	205.644	378.584	419.810	298.219	311.792	208.041	0.00076786	0.00019229	4.6156e-05	1063.2	5.5449e-06	1.496e-06	1157.9	225.66	1.7126e-06	2.7318e-06	287.01	81.042	63.192	18.639	2.9856e-06	25.939	0.00014756	0.00016622	4.2155e-05	988.76	1.6273e-06	1.7899e-06	1079.7	212	1.6215e-06	1.7541e-06	259.51	74.446	59.192	18.08	1.5832e-06	24.309	347.621	409.988	222.082	81.346	222.263	121.616	81.479	89.144	182.124	421.299	88.667	95.184	95.690	102.958	174.183	102.032	-8191	255	
6942.909	1	1	0	0	0.18372	0.14778	0.24147	0.044673	0.24166	0.029449	0.20683	0.17032	0.2245	0.11726	0.11194	0.27326	0.22444	0.22542	0.28177	0.25885	-2.1896	-2.7646	-2.3292	-2.9979	-2.2729	-2.5583	-3.1104	-2.1875	-2.5563	-2.6625	-2.3792	-2.8875	-2.2458	-2.3042	-2.8979	-2.2771	292.117	376.161	273.458	247.369	246.399	276.016	80.362	408.505	340.404	276.185	366.926	79.209	86.661	385.081	355.988	228.438	0.00053577	0.00010093	3.58e-05	1064.1	2.7425e-07	1.9782e-06	1155.8	226.43	7.4674e-06	1.387e-06	285.16	80.632	63.608	18.783	1.7624e-06	26.022	0.00015486	0.00015912	4.0912e-05	985.41	1.7474e-06	1.7549e-06	1078.3	212.82	1.7666e-06	1.7321e-06	258.78	74.59	59.767	18.117	1.6043e-06	24.454	341.476	195.915	83.955	81.539	282.664	349.593	81.299	89.133	147.447	362.046	88.688	95.801	95.509	103.014	309.296	101.979	-8191	255	
6942.980	1	1	0	0	0.21543	0.18684	0.084562	0.18105	0.21558	0.18962	0.11131	0.18896	0.023454	0.28833	0.14421	0.30876	0.093885	0.086876	0.12006	0.16393	-2.0979	-2.7208	-2.1125	-2.8854	-2.5812	-2.5083	-3.0521	-2.4938	-2.5292	-2.95	-2.1125	-2.8438	-2.6729	-2.2562	-2.7583	-2.275	356.449	90.039	143.706	89.797	105.409	286.440	86.083	378.575	276.586	296.745	114.354	402.300	94.155	409.822	389.683	372.556	0.00057526	0.00031591	2.1389e-05	1064.7	6.2166e-07	9.5473e-07	1153.1	226.86	4.557e-06	1.9328e-06	285.22	81.054	63.231	18.807	2.0187e-06	26.106	0.00016825	0.00015736	4.1008e-05	990.49	1.8363e-06	1.7318e-06	1079.6	213.46	1.8671e-06	1.6913e-06	259.46	75.325	60.065	18.067	1.5902e-06	24.669	361.691	200.253	128.482	81.599	214.618	377.787	81.227	88.962	206.224	291.247	88.336	95.362	95.705	102.637	328.615	102.328	-8191	255	
6943.077	1	1	0	0	0.083423	0.33263	0.12149	0.0168	0.2213	0.18798	0.20358	0.2621	0.17598	0.13211	0.013921	0.20031	0.36912	0.18989	0.22632	0.029864	-1.9708	-2.8729	-1.7208	-2.8167	-2.6958	-2.2042	-2.9583	-2.2854	-2.4042	-2.9396	-2.0625	-2.4396	-2.6813	-2.2687	-2.7917	-2.6813	354.930	172.260	177.295	263.062	416.271	147.487	393.689	421.916	144.203	80.910	274.515	305.056	400.740	126.802	249.292	341.253	0.00065875	0.00034706	4.075e-05	1068.2	3.1267e-06	1.0772e-06	1156.9	227.71	4.7096e-07	1.5143e-06	286.53	80.944	63.448	18.771	3.093e-06	26.226	0.00017222	0.00015355	4.028e-05	993.76	1.8338e-06	1.6636e-06	1079.7	214.27	1.7737e-06	1.6128e-06	258.84	75.354	59.717	18.013	1.5199e-06	24.845	362.288	97.903	175.131	81.321	141.159	278.857	81.368	88.893	288.665	231.870	89.019	95.859	95.568	102.559	202.247	102.122	-8191	255	
6943.173	1	1	0	0	0.22801	0.1046	0.1292	0.34869	0.1301	0.11739	0.13473	0.11557	0.38125	0.23	0.12932	0.1492	0.084462	0.22217	0.13247	0.18086	-1.7417	-2.7833	-2.475	-2.8979	-2.8208	-2.1146	-2.9	-2.6146	-2.4542	-2.9625	-2.2667	-2.4896	-2.8187	-2.25	-2.7	-2.5125	305.095	246.232	280.559	381.241	183.680	382.179	77.910	73.498	203.221	185.938	313.820	222.536	404.740	135.338	192.729	231.317	0.00060953	9.7161e-05	0.00010915	1067.6	3.084e-06	3.1531e-06	1155.8	226.4	1.8788e-06	1.3016e-06	289.59	80.906	63.426	18.86	6.8142e-06	26.13	0.00015929	0.00014298	3.8909e-05	994.72	1.7081e-06	1.6017e-06	1076.3	214.59	1.715e-06	1.5568e-06	259.52	75.821	59.519	17.982	1.6002e-06	24.931	340.265	91.361	193.714	81.393	165.099	96.129	81.393	88.819	138.320	421.586	88.800	95.388	95.521	102.605	180.529	101.951	-8191	255	
6943.293	1	1	0	0	0.085943	0.18043	0.24919	0.11467	0.12383	0.094265	0.16201	0.089609	0.14898	0.29731	0.062157	0.026184	0.067003	0.28678	0.12627	0.074618	-1.85	-2.9167	-2.425	-2.5167	-2.9292	-1.9958	-2.9708	-2.6958	-2.2292	-2.8896	-2.5021	-2.3542	-2.8854	-2.1521	-2.5229	-2.6833	264.508	206.278	152.190	342.856	389.649	212.715	389.968	356.069	266.174	221.813	75.433	362.886	103.306	405.317	206.391	390.659	0.0004072	0.00032234	0.00014084	1066.2	2.4586e-06	1.62e-06	1149.8	226.51	2.2845e-06	1.6675e-06	286.11	80.494	63.455	18.779	5.8151e-06	25.944	0.00015631	0.00014232	4.2259e-05	994.73	1.6582e-06	1.5719e-06	1078.2	214.83	1.6578e-06	1.5299e-06	260.41	75.523	59.259	17.951	1.7107e-06	24.814	356.057	188.184	158.557	81.233	237.227	239.604	81.311	88.969	95.752	189.755	89.057	95.319	95.767	103.219	146.458	101.947	-8191	255	
6943.390	1	1	0	0	0.18484	0.23064	0.09564	0.17597	0.15494	0.17395	0.13729	0.1594	0.34807	0.14788	0.27024	0.27784	0.023225	0.073924	0.14329	0.086917	-1.7229	-2.8292	-2.2333	-2.5625	-3.0458	-2.1479	-2.6417	-2.7542	-2.2687	-2.8479	-2.4813	-2.2562	-2.9896	-2.2479	-2.4729	-2.6979	342.423	97.309	311.770	109.028	229.220	390.262	95.629	403.574	161.444	110.679	77.232	334.881	382.443	195.590	397.863	84.362	0.00068146	0.00031221	0.00010434	1058.9	1.396e-06	9.5391e-07	1153	226.42	6.9582e-06	2.5007e-06	286.05	81.242	63.195	18.742	7.4883e-07	26.014	0.00015183	0.00013887	4.4984e-05	992.31	1.6044e-06	1.5632e-06	1080.4	214.43	1.6283e-06	1.5351e-06	261.53	75.667	59.179	17.948	1.8257e-06	24.668	341.848	154.268	127.135	81.445	143.169	79.909	81.100	89.011	212.490	204.039	88.482	95.900	95.692	102.805	291.700	102.014	-8191	255	
6943.486	1	1	0	0	0.17038	0.15918	0.40787	0.26697	0.34556	0.28285	0.11949	0.082321	0.13957	0.18423	0.069714	0.15658	0.12013	0.13994	0.30228	0.041299	-1.7271	-2.8542	-2.3542	-2.1625	-2.8604	-2.4583	-2.6333	-2.6875	-1.9708	-2.9292	-2.6729	-2.2833	-2.6958	-2.15	-2.6667	-2.8396	118.261	291.657	177.893	389.733	209.230	430.722	395.127	247.966	312.850	124.131	360.489	411.074	394.651	197.927	412.423	390.143	0.00035613	4.3469e-05	3.805e-05	1060	1.3529e-06	3.5624e-06	1156.5	226.89	2.2205e-06	1.9706e-06	285.27	81.037	63.192	18.824	2.2405e-06	25.989	0.00014954	0.00014223	4.6319e-05	989.02	1.5759e-06	1.6103e-06	1082.3	213.89	1.5883e-06	1.6339e-06	262.39	75.271	59.034	18.137	1.8381e-06	24.591	344.920	73.020	360.326	81.200	388.243	123.503	81.335	89.143	180.315	248.550	88.505	95.582	95.966	102.871	283.634	101.987	-8191	255	
6943.557	1	1	0	0	0.22861	0.19108	0.16627	0.19974	0.025257	0.12934	0.20302	0.20074	0.25746	0.10532	0.094311	0.24449	0.12518	0.096223	0.16136	0.20252	-1.5812	-2.5917	-2.6875	-2.4479	-2.5458	-2.3667	-2.5604	-2.9104	-2.0271	-2.725	-2.775	-2.1	-2.7458	-2.375	-2.3083	-2.9167	157.463	117.387	217.158	84.652	113.465	212.513	273.202	376.604	198.893	262.132	144.895	353.654	147.022	215.768	374.969	270.790	0.00061835	0.00038573	4.8656e-05	1066.2	3.6983e-06	3.908e-06	1153.7	226.64	2.9736e-06	2.9864e-06	288.03	81.074	63.079	18.79	5.2007e-06	26.234	0.00014562	0.0001546	4.6165e-05	992.52	1.5456e-06	1.7327e-06	1083.2	213.72	1.555e-06	1.7485e-06	261.26	75.055	58.956	18.136	1.7756e-06	24.496	359.710	107.569	409.840	81.346	140.214	163.601	81.329	89.037	136.771	156.730	88.384	94.986	95.725	103.153	193.580	101.719	-8191	255	
6943.676	1	1	0	0	0.15411	0.094039	0.16583	0.095033	0.27531	0.12417	0.24182	0.28134	0.13158	0.082184	0.16386	0.30105	0.045701	0.18362	0.063267	0.18993	-1.5125	-2.6208	-2.7521	-2.2521	-2.6292	-2.325	-2.4146	-2.9375	-2.1771	-2.6479	-2.8521	-2.1375	-2.5938	-2.4271	-2.2229	-2.9292	310.890	160.227	218.922	327.137	255.126	92.222	398.691	380.918	95.729	184.214	326.810	354.194	162.265	281.177	369.348	408.189	0.00063457	0.00024242	3.7249e-05	1062.9	5.3621e-06	2.5292e-06	1154.2	226.84	5.5597e-06	2.8948e-06	287.23	80.782	62.88	18.592	3.5876e-06	25.982	0.00014579	0.00016253	4.4096e-05	989.09	1.5477e-06	1.7984e-06	1081.5	213.42	1.5897e-06	1.8122e-06	260.29	74.791	58.976	18.182	1.6808e-06	24.373	348.421	164.600	247.489	81.312	201.392	244.665	81.281	89.195	205.980	200.432	88.403	95.719	95.476	102.896	424.165	102.152	-8191	255	
6943.772	1	1	0	0	0.2573	0.18426	0.10782	0.16323	0.1794	0.23748	0.035726	0.21075	0.05809	0.11016	0.15041	0.20377	0.14207	0.17933	0.05971	0.14283	-1.7396	-2.4833	-2.8937	-2.1146	-2.6625	-2.6063	-2.4833	-2.7896	-2.2083	-2.4333	-2.9375	-2.0729	-2.625	-2.7375	-2.2917	-2.8125	72.474	416.541	384.348	146.476	167.525	382.250	303.766	89.564	297.470	368.524	202.495	259.555	383.392	79.636	292.430	272.678	0.00090228	0.00034406	2.8248e-05	1067.1	6.3523e-06	3.1193e-07	1154	227.43	5.9669e-06	5.3604e-06	286.09	80.596	63.4	18.701	2.8304e-06	26.135	0.00014992	0.00016423	4.1701e-05	990.15	1.6115e-06	1.7803e-06	1079.2	213.47	1.6685e-06	1.7874e-06	259.25	74.533	59.381	18.158	1.6365e-06	24.337	346.588	410.279	401.460	81.104	269.190	420.153	81.217	88.885	259.668	363.558	89.170	95.693	95.487	103.003	218.490	101.977	-8191	255	
6943.869	1	1	0	0	0.13649	0.057111	0.15321	0.31073	0.19961	0.077791	0.23433	0.07249	0.079647	0.070546	0.18454	0.26696	0.25029	0.21036	0.18193	0.16409	-1.7563	-2.1729	-2.9354	-2.3688	-2.675	-2.5438	-2.2479	-3.0438	-2.4562	-2.3333	-2.8875	-2.2188	-2.6333	-2.7104	-2.1292	-2.9125	99.358	345.475	145.611	393.945	155.308	288.697	365.998	327.480	360.170	311.960	348.528	412.316	298.795	430.930	382.238	258.305	0.0007996	0.00030866	9.3916e-05	1064.4	3.5201e-06	4.175e-07	1156.2	228.01	1.0264e-05	2.6692e-06	285.91	81.035	63.481	18.613	1.0232e-06	26.073	0.00016153	0.00016078	4.065e-05	986.98	1.7539e-06	1.7307e-06	1079.5	213.18	1.7886e-06	1.7415e-06	258.77	74.74	59.735	17.994	1.5842e-06	24.372	340.859	196.750	197.632	81.388	184.593	233.691	81.345	89.176	227.992	417.341	88.618	95.502	95.576	102.669	325.024	101.849	-8191	255	
6943.989	1	1	0	0	0.22433	0.09428	0.28436	0.094781	0.10507	0.19797	0.31902	0.31674	0.29059	0.18887	0.13591	0.15959	0.10027	0.20646	0.28871	0.33433	-2.1625	-2.4083	-2.7938	-2.4688	-2.4479	-2.7625	-2.1417	-2.8542	-2.45	-2.0687	-2.8438	-2.3688	-2.4813	-2.7708	-1.9979	-2.7521	107.167	139.944	200.068	248.552	238.879	208.480	383.432	352.911	386.091	72.379	84.509	296.542	130.816	71.804	78.516	249.857	0.0007553	0.00044222	5.2298e-05	1060.9	4.1307e-06	2.1122e-06	1154	226.89	1.7879e-06	2.1153e-06	287.12	80.795	63.026	18.856	9.4575e-07	26.082	0.00016663	0.00015402	3.9357e-05	987	1.7936e-06	1.6402e-06	1074.7	213.09	1.7807e-06	1.6276e-06	257.96	74.836	59.505	17.949	1.5156e-06	24.512	350.501	332.751	304.973	81.429	203.052	176.694	81.343	89.197	192.048	272.224	88.584	95.488	95.612	102.938	298.858	101.943	-8191	255	
6944.085	1	1	0	0	0.25789	0.27299	0.08478	0.032781	0.26952	0.13175	0.17063	0.092346	0.18727	0.1145	0.19149	0.14578	0.21463	0.24246	0.12773	0.073624	-2.4083	-2.0812	-2.7396	-2.6167	-2.3021	-2.6708	-2.4354	-2.6896	-2.5438	-2.0812	-2.8417	-2.4479	-2.3583	-3.025	-2.1937	-2.7146	394.554	325.189	294.999	327.975	198.636	262.902	270.486	123.888	214.522	371.103	292.607	295.587	225.524	358.155	293.536	216.447	0.00045839	0.00022233	4.9138e-05	1067.4	4.7014e-06	1.7812e-06	1153.7	227.42	5.81e-06	4.1328e-07	285.89	80.776	63.24	18.683	2.0575e-06	25.947	0.00016168	0.00014484	3.7224e-05	989.46	1.7327e-06	1.5646e-06	1075.4	213.87	1.7095e-06	1.587e-06	257.75	75.103	59.509	17.867	1.541e-06	24.641	393.437	211.488	299.375	81.390	216.559	208.220	81.344	88.858	203.526	282.213	88.723	95.877	95.839	102.964	154.376	102.094	-8191	255	
6944.181	1	1	0	0	0.10321	0.097486	0.02822	0.26194	0.14958	0.11096	0.29321	0.026626	0.11021	0.2619	0.14759	0.26886	0.21009	0.36284	0.087478	0.43776	-2.2729	-2.0229	-2.7667	-2.4646	-2.3896	-2.8229	-2.5625	-2.3812	-2.8604	-2.2917	-2.8271	-2.4354	-2.1125	-2.8917	-2.4729	-2.3563	258.549	76.666	271.302	412.530	81.907	144.892	376.867	162.972	358.071	157.433	75.280	415.382	421.623	427.687	337.928	125.888	0.00041044	0.00013505	0.00010149	1058.8	2.3159e-06	3.4282e-06	1151.8	227.12	2.573e-06	9.5629e-07	285.96	80.747	63.22	18.659	4.9552e-06	25.887	0.00015688	0.00014544	3.8378e-05	989.75	1.682e-06	1.5436e-06	1074	214.52	1.6514e-06	1.5587e-06	258.39	75.483	59.091	17.801	1.5657e-06	24.638	353.443	153.999	181.652	81.236	275.696	74.252	81.355	88.981	310.260	199.325	88.725	95.561	95.934	102.913	173.138	102.037	-8191	255	
6944.278	1	1	0	0	0.085789	0.098626	0.19493	0.34142	0.25005	0.050203	0.21177	0.17678	0.11907	0.064322	0.21458	0.1662	0.08104	0.19256	0.18068	0.17447	-2.4479	-2.1729	-2.5563	-2.5854	-2.0729	-2.9333	-2.5896	-2.5333	-2.7167	-2.0687	-2.9604	-2.6	-2.2667	-2.7562	-2.2917	-2.5438	257.319	204.216	418.104	373.358	358.073	294.827	278.027	222.594	126.845	144.298	354.663	145.492	296.528	380.582	119.646	213.560	0.00034721	0.00017472	6.2329e-05	1061.6	2.5465e-06	1.7409e-06	1153.5	226.53	4.6045e-06	1.7388e-06	286.15	80.492	63.048	18.714	5.6679e-06	25.985	0.00014655	0.00013386	3.9156e-05	987.63	1.5682e-06	1.4307e-06	1072.8	213.63	1.515e-06	1.4597e-06	258.1	74.903	58.768	17.745	1.6483e-06	24.548	367.910	111.419	166.183	81.274	313.762	414.464	81.484	89.089	151.831	242.136	88.634	95.284	95.791	103.410	208.836	101.636	-8191	255	
6944.374	1	1	0	0	0.073945	0.19374	0.14386	0.099822	0.27374	0.1921	0.21424	0.12656	0.067325	0.053115	0.22302	0.16	0.13258	0.16779	0.1865	0.17626	-2.3354	-2.2708	-2.5146	-2.6646	-2.1583	-2.7708	-2.4417	-2.3458	-2.8792	-2.2125	-2.6729	-2.6104	-2.0375	-2.9333	-2.4542	-2.3208	124.883	143.586	384.372	343.700	85.768	429.022	405.937	81.072	416.955	322.073	375.671	376.311	334.650	347.984	84.251	398.537	0.00075865	6.4105e-05	4.8549e-05	1057.3	1.8047e-06	3.2784e-06	1150.1	226.02	4.5702e-06	1.913e-06	285.82	80.545	63.254	18.71	5.8357e-06	25.84	0.00013964	0.00013338	4.1446e-05	985.13	1.5174e-06	1.4178e-06	1074.5	213.21	1.4936e-06	1.4563e-06	259.39	74.661	58.628	17.714	1.7078e-06	24.391	373.087	181.010	238.211	81.157	254.688	208.362	81.353	89.341	176.621	198.251	88.951	95.747	96.015	102.545	203.657	102.183	-8191	255	
6944.470	1	1	0	0	0.063048	0.21248	0.10991	0.35462	0.093018	0.12888	0.049912	0.29237	0.018527	0.22731	0.26736	0.023624	0.27557	0.08166	0.056333	0.1568	-2.5417	-2.2146	-2.5083	-2.9458	-1.8958	-2.8063	-2.5875	-2.2729	-2.9792	-2.2188	-2.5896	-2.8187	-2.2062	-2.775	-2.7146	-2.175	375.927	177.052	372.307	411.588	218.851	155.120	399.328	363.884	317.131	146.464	289.674	362.008	336.858	96.945	133.958	102.829	0.00051253	8.5113e-05	9.8412e-05	1055.8	1.5855e-06	1.0386e-06	1146.2	226.21	8.2409e-06	2.8651e-06	287.35	80.389	63.083	18.762	8.8986e-07	25.977	0.00013582	0.00013454	4.2665e-05	983.33	1.4672e-06	1.4915e-06	1075.9	212.6	1.4514e-06	1.5479e-06	259.83	74.368	58.481	17.884	1.7045e-06	24.346	354.163	422.543	115.740	81.437	192.222	124.569	81.523	89.174	214.262	185.565	89.008	95.517	96.174	102.759	232.989	102.157	-8191	255	
6944.589	1	1	0	0	0.22574	0.1202	0.24056	0.126	0.086579	0.063219	0.30189	0.50745	0.015032	0.14978	0.057595	0.23412	0.29327	0.32609	0.1238	0.1768	-2.6167	-2.3354	-2.3875	-2.8479	-2.1792	-2.8563	-2.6521	-2.1583	-2.6771	-2.4167	-2.5104	-2.9146	-2.0687	-2.5583	-2.7375	-2.25	248.269	142.213	294.008	97.685	262.519	340.524	372.213	350.276	330.546	87.245	154.824	105.893	81.672	338.229	328.559	243.090	0.00068536	0.00047247	3.25e-05	1060.2	1.4083e-06	1.5076e-06	1147.1	226.83	6.1201e-06	3.7249e-06	286	80.328	62.969	18.653	2.8198e-06	25.72	0.00013477	0.00014798	4.3218e-05	984.75	1.4675e-06	1.6222e-06	1074.1	212.48	1.4498e-06	1.6534e-06	259.48	74.563	58.572	17.957	1.6496e-06	24.266	361.642	427.353	218.141	81.325	225.679	100.330	81.542	88.964	215.451	286.235	88.546	95.441	96.034	102.839	92.822	101.876	-8191	255	
6944.685	1	1	0	0	0.18128	0.13614	0.13619	0.071696	0.13526	0.17635	0.40375	0.26332	0.0739	0.26028	0.29506	0.18175	0.31585	0.26305	0.13694	0.26359	-2.2687	-2.3688	-2.3042	-2.9813	-2.1792	-2.4792	-2.8292	-2.2062	-2.8125	-2.6396	-2.4583	-2.8771	-2.3292	-2.5167	-2.7708	-2.3229	178.215	423.325	128.160	124.198	130.787	221.912	353.914	75.481	352.235	131.235	349.480	397.933	106.014	309.851	93.417	206.522	0.00053632	0.000173	6.7389e-05	1058.8	2.3249e-06	1.435e-06	1148.8	224.98	3.2402e-06	1.3277e-06	286.31	80.086	63.393	18.616	8.9723e-06	25.899	0.00013366	0.00015468	4.1925e-05	981.1	1.5051e-06	1.7116e-06	1074.6	211.85	1.4945e-06	1.7229e-06	258.93	74.214	58.887	18.043	1.5912e-06	24.235	367.031	112.627	75.449	81.213	226.836	344.389	81.313	89.065	179.739	358.598	88.968	95.836	95.890	102.856	253.996	101.991	-8191	255	
6944.781	1	1	0	0	0.2028	0.28052	0.13804	0.19545	0.042984	0.12386	0.31667	0.35302	0.14313	0.32445	0.12825	0.10132	0.4616	0.30116	0.15449	0.29099	-2.2917	-2.3542	-2.1479	-2.8937	-2.3438	-2.5292	-3.0625	-2.2917	-2.6125	-2.6458	-2.3396	-2.8604	-2.3063	-2.3417	-2.8958	-2.1667	327.996	379.885	380.528	353.525	243.290	405.887	349.843	353.942	139.660	208.499	275.655	262.974	358.051	289.196	224.130	385.510	0.00071955	0.00018097	1.4326e-05	1066	1.9185e-06	1.5636e-06	1153.8	226.15	6.5045e-06	7.9863e-07	284.5	80.912	63.266	18.752	2.8228e-06	25.93	0.00014299	0.00015799	4.0531e-05	983.02	1.6005e-06	1.7395e-06	1074.7	212.05	1.604e-06	1.7191e-06	258.18	74.119	59.171	18.038	1.5259e-06	24.173	339.366	209.879	260.688	81.235	168.742	187.270	81.467	89.112	190.113	271.971	88.563	95.713	95.256	102.645	225.185	102.366	-8191	255	
6944.853	1	1	0	0	0.13782	0.10566	0.088897	0.25838	0.34981	0.2666	0.064106	0.31912	0.11118	0.16001	0.038609	0.13764	0.11436	0.2081	0.19179	0.17816	-2.2771	-2.4313	-2.0438	-2.9062	-2.2729	-2.1583	-2.8417	-2.3	-2.6375	-2.7792	-2.2917	-3.0042	-2.3937	-2.1125	-2.9792	-2.2438	377.699	237.105	202.218	422.341	277.592	191.775	399.847	430.472	231.293	388.445	417.037	396.687	270.111	137.314	236.992	78.233	0.00082477	0.00052154	6.6015e-05	1058	3.0867e-06	4.5545e-06	1147.4	226.28	1.0322e-05	3.6008e-07	284.34	80.907	62.871	18.834	4.4407e-06	26.247	0.00015259	0.00015217	3.9202e-05	980.7	1.6744e-06	1.6595e-06	1070.9	212.06	1.7075e-06	1.6513e-06	257.86	74.45	59.349	17.958	1.4905e-06	24.335	361.224	173.571	186.039	81.316	213.911	257.757	81.287	88.991	217.065	361.302	88.986	95.473	95.981	102.726	321.141	102.303	-8191	255	
6944.949	1	1	0	0	0.034067	0.30183	0.10138	0.22915	0.14869	0.22646	0.13164	0.35956	0.29249	0.241	0.23707	0.1852	0.21986	0.12956	0.12182	0.19869	-1.9958	-2.6979	-2.0354	-2.8208	-2.5042	-2.1562	-3.0042	-2.4604	-2.5292	-2.7083	-2.2458	-2.8021	-2.5771	-1.9208	-2.8563	-2.4854	111.790	120.653	197.788	391.512	429.657	93.701	343.316	330.241	321.397	338.507	365.586	153.100	388.720	304.353	252.886	380.872	0.0005012	0.00013471	8.8979e-05	1058	3.1843e-06	1.6926e-06	1150	225.99	4.078e-06	1.5651e-06	287.41	79.862	63.281	18.748	5.0461e-06	25.886	0.00015899	0.00014797	3.8477e-05	982.77	1.7451e-06	1.6042e-06	1070.5	212.52	1.735e-06	1.5742e-06	257.44	74.569	59.427	17.841	1.4528e-06	24.383	365.569	127.796	145.478	81.354	196.319	303.522	81.410	88.889	175.361	244.871	88.891	95.506	95.923	102.827	253.398	102.428	-8191	255	
6945.070	1	1	0	0	0.08193	0.071876	0.1737	0.2579	0.12058	0.15369	0.1525	0.23758	0.16317	0.18016	0.15148	0.034102	0.12522	0.11921	0.23695	0.1834	-1.8271	-2.8542	-2.1688	-2.7562	-2.6146	-2.2229	-3.0333	-2.3771	-2.25	-2.9396	-2.1875	-2.6667	-2.7396	-2.1729	-3.0187	-2.4271	317.376	230.950	359.165	298.842	159.273	355.358	334.480	313.034	210.173	231.683	262.117	371.016	207.486	211.542	80.949	208.768	0.00045449	9.7034e-05	6.447e-05	1059.1	1.5558e-06	2.464e-07	1146.8	225.59	3.6141e-06	2.6136e-06	286.43	80.391	63.054	18.673	3.0888e-06	25.895	0.0001571	0.00014047	3.7119e-05	986.7	1.6881e-06	1.5311e-06	1070.5	213.01	1.6533e-06	1.512e-06	256.57	74.718	59.058	17.776	1.4555e-06	24.51	363.079	354.745	86.742	81.369	361.599	97.751	81.534	89.078	181.597	184.646	88.487	95.662	95.798	102.693	193.462	102.133	-8191	255	
6945.166	1	1	0	0	0.29222	0.1327	0.15789	0.39119	0.18079	0.17639	0.15836	0.2732	0.34859	0.054924	0.084455	0.078943	0.1634	0.14084	0.16909	0.14655	-1.6792	-2.75	-2.2271	-2.7125	-2.6	-2.2167	-2.9188	-2.6063	-2.3125	-2.6875	-2.2521	-2.4271	-2.4271	-2.0875	-2.8	-2.6167	303.214	181.954	383.419	352.097	382.048	214.405	71.201	71.468	305.663	249.728	73.228	382.279	71.367	232.802	265.503	387.067	0.0004301	6.7032e-05	0.00010319	1058.6	2.7786e-06	1.1058e-06	1149.5	225.74	6.3712e-06	1.3084e-06	285.76	80.547	62.82	18.618	6.0542e-06	25.953	0.00015303	0.00013855	3.8016e-05	988.52	1.6577e-06	1.5385e-06	1072.7	213.64	1.6414e-06	1.5084e-06	258.12	75.192	58.91	17.757	1.5621e-06	24.612	359.173	333.407	154.621	81.399	333.658	340.449	81.309	88.969	205.728	102.012	88.603	95.332	95.891	102.717	212.690	102.139	-8191	255	
6945.262	1	1	0	0	0.26175	0.16576	0.21545	0.20594	0.11223	0.20897	0.27384	0.14003	0.30439	0.088196	0.17016	0.15373	0.032628	0.20024	0.24964	0.047091	-1.5917	-2.7667	-2.1333	-2.5396	-2.7979	-2.1	-2.7125	-2.6188	-2.0646	-2.8812	-2.4833	-2.275	-2.8792	-2.2792	-2.6312	-2.4667	387.952	195.429	141.747	414.978	112.482	89.567	323.533	350.780	141.725	289.771	328.005	348.633	211.580	398.582	271.395	406.390	0.00057887	0.0002046	4.9971e-05	1060.8	3.1695e-06	2.1598e-06	1150	225.59	4.8985e-06	2.6469e-06	284.93	80.328	62.813	18.558	8.3429e-06	25.892	0.00014877	0.0001376	4.0788e-05	988.38	1.5807e-06	1.5074e-06	1074.5	213.36	1.5949e-06	1.4702e-06	259.65	75.055	58.74	17.718	1.6773e-06	24.51	369.225	218.646	158.222	81.336	188.300	244.492	81.358	89.312	278.271	341.579	88.441	95.478	96.213	102.930	196.142	102.252	-8191	255	
6945.358	1	1	0	0	0.26798	0.13509	0.079086	0.037228	0.2166	0.019028	0.097388	0.25384	0.041998	0.11476	0.22912	0.074038	0.12766	0.17985	0.054639	0.10755	-1.8771	-2.8833	-2.3854	-2.3812	-2.8646	-2.1437	-2.7208	-2.6896	-1.9771	-2.9896	-2.7208	-2.1875	-2.9625	-2.3125	-2.55	-2.8396	317.886	132.017	297.811	208.605	415.753	252.291	401.935	344.384	426.685	365.161	102.993	157.143	191.075	255.749	77.476	96.031	0.00061418	0.00052742	7.5373e-05	1051.6	1.8163e-06	4.2051e-06	1153.6	225.49	4.4644e-06	3.3662e-06	285.51	80.242	62.837	18.688	7.9245e-07	25.896	0.00014502	0.0001334	4.2907e-05	984.79	1.5242e-06	1.4886e-06	1075.8	212.66	1.533e-06	1.4974e-06	259.78	74.798	58.664	17.784	1.7767e-06	24.445	364.436	108.738	128.825	81.331	239.680	215.810	81.245	89.147	238.549	221.373	88.666	95.357	95.739	102.605	235.189	102.079	-8191	255	
6945.454	1	1	0	0	0.19883	0.078945	0.11728	0.089176	0.30799	0.32743	0.38578	0.20264	0.13855	0.03933	0.25105	0.20001	0.16115	0.10683	0.29226	0.16711	-1.6021	-2.5917	-2.3354	-2.3667	-2.9646	-2.2542	-2.6271	-2.8167	-2.2625	-2.6562	-2.6458	-2.2021	-2.8708	-2.4208	-2.3292	-3.0021	418.374	73.120	162.833	122.678	196.451	213.877	297.996	361.057	277.266	183.918	377.388	139.076	220.970	205.376	277.568	345.262	0.00058496	0.00043188	0.00012268	1056	1.002e-06	4.0672e-06	1149	224.76	1.9279e-06	4.8113e-06	286.18	81.252	63.134	18.715	2.7718e-06	25.903	0.00014385	0.00014103	4.5246e-05	986.19	1.5148e-06	1.5991e-06	1078.9	212.68	1.5347e-06	1.6217e-06	261.28	74.852	58.804	17.978	1.8009e-06	24.418	358.564	81.281	169.436	81.314	152.316	210.170	81.212	88.960	166.981	272.535	88.756	95.560	95.786	102.101	222.857	101.927	-8191	255	
6945.550	1	1	0	0	0.14525	0.19127	0.12315	0.24882	0.1263	0.28902	0.41005	0.15442	0.13294	0.10473	0.10922	0.062368	0.27768	0.05978	0.18753	0.19406	-1.8146	-2.5208	-2.7542	-2.3312	-2.7708	-2.6042	-2.4958	-2.9292	-2.2917	-2.5396	-2.6667	-2.3854	-2.9458	-2.4583	-2.3792	-2.7875	383.259	154.846	166.732	104.332	370.763	208.878	384.470	269.949	379.793	165.925	81.923	247.546	338.780	187.109	264.835	330.626	0.00046647	0.00032778	6.6028e-05	1061.6	1.1392e-06	2.2478e-06	1151	227.42	9.1615e-06	4.0764e-06	285.23	80.208	62.927	18.635	3.1904e-06	26.014	0.00014357	0.000156	4.5507e-05	987.54	1.5314e-06	1.7371e-06	1080.1	213.33	1.5549e-06	1.7692e-06	260.18	74.546	58.751	18.082	1.7346e-06	24.389	350.518	172.322	395.845	81.385	226.136	163.080	81.454	89.160	197.751	301.082	88.329	95.537	95.987	102.843	240.725	102.473	-8191	255	
6945.671	1	1	0	0	0.12353	0.17552	0.14641	0.39172	0.24292	0.071079	0.21965	0.1668	0.10339	0.20483	0.33806	0.16377	0.13481	0.17034	0.038219	0.14561	-1.8646	-2.6333	-2.7562	-2.1562	-2.8604	-2.2375	-2.4625	-3.0646	-2.35	-2.5812	-2.8271	-2.2333	-2.9708	-2.6125	-2.2313	-2.9375	428.019	227.473	263.526	414.838	210.439	171.754	307.500	354.694	150.133	179.906	364.900	384.079	102.772	77.311	267.754	176.885	0.00067373	0.00035497	1.0156e-05	1056.2	4.3193e-06	1.7767e-06	1145.8	225.95	8.9728e-06	3.6287e-06	285.04	80.683	63.172	18.563	4.7889e-07	25.778	0.00014598	0.00016428	4.314e-05	984.89	1.5594e-06	1.7966e-06	1076.4	212.4	1.5895e-06	1.8079e-06	259.13	74.396	58.826	18.034	1.6638e-06	24.195	361.813	81.134	152.293	81.400	262.358	257.464	81.227	89.065	212.119	219.093	88.793	95.430	95.853	103.249	350.075	102.272	-8191	255	
6945.765	1	1	0	0	0.28723	0.074865	0.27008	0.34346	0.16306	0.1736	0.23357	0.20021	0.17817	0.41056	0.31823	0.16543	0.18341	0.1536	0.061764	0.18222	-1.9125	-2.375	-2.9083	-2.4583	-2.8479	-2.6396	-2.3375	-3.0833	-2.4042	-2.4062	-2.8354	-2.1625	-2.6771	-2.6958	-2.2646	-2.7812	263.648	254.329	254.067	415.711	226.728	96.326	310.621	243.021	178.080	246.385	282.060	117.514	393.453	76.915	100.017	93.221	0.00073962	0.00037078	3.2886e-05	1065.7	7.1537e-06	3.0893e-06	1151.6	225.9	4.9037e-06	3.2402e-06	286.42	80.595	62.74	18.62	3.0826e-06	25.8	0.00015289	0.00016353	4.1561e-05	985.85	1.6535e-06	1.7972e-06	1075.7	212.34	1.7042e-06	1.7831e-06	259.13	74.365	59.142	18.014	1.6337e-06	24.209	357.709	126.848	175.991	81.168	208.129	103.285	81.439	89.078	215.706	210.698	88.565	95.517	95.823	102.793	162.025	102.093	-8191	255	
6945.861	1	1	0	0	0.13971	0.17289	0.046119	0.041135	0.17843	0.26016	0.33497	0.32478	0.064775	0.24983	0.067472	0.074134	0.1299	0.094678	0.2013	0.055716	-1.9583	-2.3729	-2.8917	-2.3042	-2.5708	-2.8063	-2.1896	-2.8292	-2.4021	-2.2833	-3.05	-2.3417	-2.4083	-2.9396	-2.2188	-2.7646	88.865	281.784	160.112	399.736	270.615	377.718	309.247	405.710	274.185	151.137	193.890	207.017	358.378	387.755	200.810	129.635	0.00066374	0.00015839	3.2448e-05	1059.8	1.5976e-06	1.9021e-06	1150.4	225.76	4.6199e-06	2.4844e-06	284.18	80.351	62.824	18.611	4.8932e-07	25.821	0.00016152	0.00015953	4.0376e-05	984.99	1.7372e-06	1.6965e-06	1073.9	212.06	1.7635e-06	1.6827e-06	257.06	74.12	59.333	17.84	1.5436e-06	24.262	349.535	337.621	115.599	81.393	228.892	185.730	81.480	89.021	237.595	140.069	88.640	95.444	96.242	102.483	269.704	101.932	-8191	255	
6945.958	1	1	0	0	0.11751	0.20318	0.041063	0.12321	0.14556	0.17395	0.37349	0.11397	0.13674	0.086388	0.26562	0.23688	0.081167	0.1736	0.17078	0.23452	-2.0667	-2.2542	-2.7188	-2.5708	-2.3979	-2.6458	-2.1271	-2.8125	-2.6167	-2.1375	-2.9396	-2.6417	-2.3208	-2.8563	-2.1146	-2.6958	191.514	143.919	410.372	387.820	326.490	117.291	390.639	386.632	254.044	342.016	138.860	381.727	114.309	383.178	362.376	240.366	0.00056885	0.00018985	6.944e-05	1055.7	2.0206e-06	1.7156e-06	1150.6	225.44	2.6753e-06	2.4958e-06	283.98	80.1	62.882	18.729	3.3916e-06	25.977	0.00016243	0.00014997	3.7947e-05	982.52	1.7675e-06	1.6125e-06	1071.2	212.29	1.7532e-06	1.5996e-06	256.22	74.436	59.109	17.81	1.491e-06	24.374	377.824	105.065	127.468	81.499	116.639	265.422	81.493	88.854	253.755	97.749	88.705	95.863	95.323	102.770	168.144	102.321	-8191	255	
6946.078	1	1	0	0	0.10048	0.23838	0.15447	0.23458	0.24306	0.1685	0.39205	0.061466	0.21145	0.22171	0.23554	0.13513	0.13998	0.035936	0.10137	0.16077	-2.0979	-2.1	-2.9167	-2.5708	-2.4146	-2.9229	-2.3438	-2.8187	-2.7396	-2.1917	-2.6813	-2.825	-2.4313	-2.9104	-2.4625	-2.8104	386.194	89.734	277.575	384.867	306.443	258.568	398.911	152.554	405.910	305.410	99.854	393.717	222.823	125.535	343.188	430.118	0.00061637	0.0002658	4.1236e-05	1057.7	1.0964e-06	2.1048e-06	1148.8	225.63	2.9457e-06	3.3561e-06	284.75	80.286	62.466	18.531	6.4585e-06	25.979	0.00015721	0.00014358	3.7185e-05	985.69	1.7098e-06	1.5443e-06	1071.2	212.82	1.6642e-06	1.5404e-06	256.11	74.613	58.837	17.704	1.4881e-06	24.452	349.850	107.002	420.019	81.660	315.008	413.829	81.280	88.908	125.409	191.943	88.530	95.682	96.213	102.313	96.306	101.960	-8191	255	
6946.150	1	1	0	0	0.11093	0.17844	0.10782	0.36211	0.22465	0.3806	0.13488	0.17097	0.27095	0.03508	0.14073	0.21708	0.25329	0.086705	0.13537	0.18962	-2.2313	-1.9667	-2.9833	-2.5312	-2.1208	-2.9646	-2.375	-2.6792	-2.7667	-2.1479	-2.7687	-2.6333	-2.3583	-2.7917	-2.3187	-2.5021	203.457	403.536	250.049	318.537	380.169	197.695	367.662	396.057	357.095	346.854	418.230	429.963	212.268	256.940	298.997	374.248	0.00058507	0.00016536	9.8606e-05	1062.9	2.4921e-06	2.0425e-06	1148.9	225.65	4.8762e-06	1.1677e-06	285.15	79.949	63.113	18.641	4.6735e-06	25.795	0.00014929	0.00013724	3.7418e-05	987.86	1.5986e-06	1.4818e-06	1068.9	212.76	1.5819e-06	1.4912e-06	256.82	74.587	58.636	17.676	1.5539e-06	24.503	356.396	173.161	169.431	81.253	235.440	409.888	81.412	89.065	146.884	229.659	88.564	95.379	95.775	102.682	213.290	102.189	-8191	255	
6946.271	1	1	0	0	0.22146	0.16653	0.16831	0.12407	0.12632	0.19625	0.23102	0.14987	0.21017	0.13408	0.12899	0.19373	0.20897	0.096868	0.11836	0.20718	-2.2667	-2.0229	-2.7042	-2.7	-2.2542	-2.8167	-2.3771	-2.4437	-2.8604	-2.1292	-2.625	-2.7625	-2.2583	-2.8604	-2.1813	-2.4167	100.679	313.379	182.890	116.960	327.422	84.129	329.330	341.206	153.757	354.008	325.581	117.962	290.296	121.545	130.543	317.948	0.00055269	0.00033617	3.6271e-05	1055	1.287e-06	4.9804e-07	1146.9	225.95	2.4284e-06	2.2126e-06	284.52	80.2	62.991	18.575	2.7243e-06	25.84	0.00014163	0.00013394	4.0039e-05	984.67	1.546e-06	1.435e-06	1072.9	213.02	1.5231e-06	1.4669e-06	258.04	74.681	58.698	17.618	1.693e-06	24.438	364.429	156.229	107.305	81.547	255.524	134.616	81.495	89.053	188.552	276.372	88.786	95.317	96.210	102.749	228.870	102.239	-8191	255	
6946.367	1	1	0	0	0.060644	0.28169	0.23117	0.17269	0.15334	0.27497	0.0098233	0.14054	0.2375	0.14642	0.13101	0.12869	0.1206	0.12465	0.16883	0.20262	-2.225	-1.9688	-2.6083	-2.7687	-2.3417	-2.8958	-2.4729	-2.5438	-2.6813	-2.3479	-2.6542	-2.8688	-2.1292	-2.8646	-2.4375	-2.2313	405.983	71.210	138.090	366.214	192.646	354.508	408.884	392.242	231.214	224.530	383.843	417.818	145.013	396.108	88.254	108.871	0.00044057	0.00018894	5.8136e-05	1058.8	9.2073e-07	1.6521e-06	1146.4	225.36	3.4666e-06	7.5346e-07	283.86	80.08	62.956	18.611	2.9544e-06	25.772	0.00014182	0.00013388	4.2157e-05	984.17	1.5321e-06	1.4592e-06	1073.3	212.3	1.491e-06	1.5031e-06	258.78	74.4	58.448	17.648	1.727e-06	24.356	360.797	171.854	157.582	81.511	244.899	143.340	81.491	89.106	179.225	322.687	88.804	95.127	95.789	103.061	187.288	101.723	-8191	255	
6946.463	1	1	0	0	0.16458	0.27902	0.15139	0.030582	0.23193	0.27276	0.31	0.209	0.28386	0.31835	0.18503	0.13206	0.18468	0.1051	0.14366	0.12967	-2.5042	-2.1021	-2.4813	-2.9375	-1.9333	-2.8354	-2.8688	-2.2438	-3.1271	-2.3417	-2.6292	-2.85	-2.3167	-2.6562	-2.6292	-2.3583	244.414	110.825	382.165	316.006	234.457	175.698	71.547	386.516	247.983	362.289	97.345	404.958	275.317	145.558	110.873	74.949	0.00064964	0.00046973	8.8581e-05	1056.5	8.4065e-07	3.6748e-06	1147.6	225.03	3.2962e-06	3.335e-06	284.35	79.953	62.701	18.62	1.0998e-06	25.966	0.00013619	0.00014072	4.3956e-05	981.3	1.5044e-06	1.5322e-06	1074.4	211.85	1.4281e-06	1.5838e-06	259.03	74.028	58.145	17.769	1.6768e-06	24.244	367.768	135.548	119.093	81.299	277.118	197.609	81.252	88.964	229.448	194.268	88.627	95.384	95.707	102.557	210.945	102.248	-8191	255	
6946.559	1	1	0	0	0.062396	0.22684	0.15599	0.20409	0.29966	0.19193	0.085997	0.11806	0.17806	0.08858	0.10012	0.17142	0.18949	0.26746	0.25355	0.13495	-2.3396	-2.4417	-2.3125	-3.0312	-2.2833	-2.7062	-2.8583	-2.1083	-2.8438	-2.4792	-2.4688	-3.1146	-2.4167	-2.6229	-2.8167	-2.1979	169.121	162.433	288.048	359.427	251.126	161.500	86.711	406.677	260.604	344.238	86.297	296.792	410.249	89.132	136.112	201.820	0.00069759	0.00029268	4.9853e-05	1053.9	2.1957e-06	2.2641e-06	1144.1	225.96	3.7628e-06	2.312e-06	284.77	79.856	62.746	18.551	2.624e-06	25.884	0.00013294	0.000148	4.2477e-05	978.28	1.456e-06	1.6308e-06	1071.1	211.56	1.4416e-06	1.6702e-06	258.61	73.917	58.356	17.887	1.6105e-06	24.164	343.991	190.312	262.609	81.317	127.015	150.890	81.344	89.275	237.006	180.542	88.326	95.373	95.748	102.844	249.151	101.971	-8191	255	
6946.653	1	1	0	0	0.23228	0.081732	0.11832	0.39798	0.15757	0.20278	0.11586	0.51501	0.32541	0.081017	0.18173	0.23915	0.44472	0.14107	0.14788	0.19552	-2.2292	-2.6021	-2.1229	-3.0333	-2.3667	-2.6708	-2.925	-2.0542	-2.9792	-2.6875	-2.4125	-3.0958	-2.2417	-2.7146	-3.0396	-1.9833	408.649	422.973	317.770	380.562	252.365	255.804	342.919	418.235	239.283	314.462	392.439	424.128	369.953	187.123	179.783	84.376	0.0006933	0.00019453	3.1491e-05	1054.1	2.5933e-06	1.8994e-06	1152	224.82	5.1158e-06	1.2255e-06	284.2	80.447	63.207	18.429	3.7708e-06	25.877	0.00013466	0.0001549	4.0651e-05	979.57	1.4914e-06	1.7004e-06	1071.9	210.93	1.5016e-06	1.7128e-06	257.13	73.955	58.68	17.891	1.5545e-06	24.199	367.569	115.873	262.431	81.273	160.268	92.104	81.428	89.092	160.926	185.710	88.416	95.615	95.861	102.963	388.750	101.804	-8191	255	
6946.750	1	1	0	0	0.24352	0.13071	0.107	0.18217	0.26214	0.14669	0.20575	0.098924	0.22413	0.14559	0.19846	0.25893	0.13798	0.25262	0.2554	0.19274	-2.3	-2.8583	-2.1896	-2.8271	-2.3854	-2.3646	-3.0521	-2.2812	-2.8396	-2.6833	-2.3833	-3	-2.65	-2.4479	-2.8438	-2.4458	359.114	319.511	177.953	397.901	330.625	302.107	283.952	330.551	203.292	122.520	205.630	103.719	336.859	361.862	353.745	78.282	0.00071109	0.00041041	3.0802e-05	1054.6	2.0993e-06	2.4234e-06	1147.2	224.85	4.5971e-06	4.2546e-06	285.22	80.078	63.016	18.476	3.8302e-06	25.816	0.00014441	0.00015552	3.981e-05	977.13	1.6034e-06	1.6993e-06	1068.5	211.04	1.6091e-06	1.6801e-06	257.28	73.754	58.944	17.841	1.5329e-06	24.152	359.720	426.765	179.724	81.388	212.907	289.442	81.397	88.991	163.059	133.452	88.604	95.534	95.754	102.682	81.628	102.217	-8191	255	
6946.846	1	1	0	0	0.13265	0.17567	0.13361	0.1109	0.074275	0.073356	0.2876	0.30921	0.39391	0.30969	0.19759	0.23311	0.22676	0.040989	0.063479	0.26296	-2.1312	-2.6917	-2.2958	-3.075	-2.6375	-2.5208	-3.0125	-2.2875	-2.5687	-2.6688	-2.2687	-2.7583	-2.2417	-2.3812	-2.9417	-2.1125	99.893	311.465	254.070	347.413	275.966	245.638	364.587	366.436	289.515	81.428	221.767	99.599	389.360	122.299	275.069	237.603	0.00058358	0.00025699	9.9733e-05	1058.5	4.9579e-06	3.2026e-06	1148.9	225.21	4.8569e-06	1.0836e-06	285.43	80	63.079	18.574	2.2934e-06	25.756	0.00015569	0.00015207	3.9352e-05	980.16	1.7051e-06	1.6294e-06	1069.2	211.34	1.6987e-06	1.613e-06	256.92	73.84	58.961	17.792	1.4882e-06	24.17	372.615	146.370	170.029	81.452	221.261	252.303	81.230	89.109	220.208	224.259	88.775	96.005	95.804	102.635	208.566	102.051	-8191	255	
6946.942	1	1	0	0	0.27851	0.10579	0.13842	0.17823	0.075086	0.25814	0.27112	0.23391	0.30931	0.27696	0.1375	0.030101	0.10861	0.312	0.19861	0.30684	-2.0042	-2.7229	-2.0875	-2.975	-2.5271	-2.0833	-3.0396	-2.4437	-2.3708	-2.725	-2.1854	-2.6208	-2.6979	-2.125	-2.9167	-2.5458	384.881	260.639	203.658	374.036	150.050	395.647	373.036	360.316	184.662	261.496	262.931	130.958	172.713	365.089	209.125	165.124	0.0008485	0.00032161	5.1493e-05	1058.4	1.4997e-06	1.117e-06	1144.2	225.59	1.4797e-06	2.6918e-06	283.61	80.257	62.479	18.634	1.8201e-06	25.743	0.00015981	0.00014256	3.8002e-05	981.43	1.7183e-06	1.5933e-06	1068.1	212.11	1.7181e-06	1.5464e-06	256.51	74.375	58.861	17.785	1.4434e-06	24.334	351.503	196.683	73.870	81.603	199.065	379.598	81.381	89.272	294.452	140.024	88.345	95.295	95.813	102.842	183.501	102.339	-8191	255	
6947.038	1	1	0	0	0.14714	0.036316	0.20053	0.41716	0.11297	0.13084	0.27477	0.24546	0.082521	0.15253	0.15443	0.13881	0.29484	0.2353	0.10153	0.17904	-1.7708	-2.825	-2.0104	-2.7771	-2.6771	-2.2333	-2.9583	-2.6312	-2.4188	-2.7854	-2.4021	-2.6042	-2.6708	-2.1625	-2.8063	-2.4625	216.670	246.371	344.578	403.942	416.870	159.396	331.764	374.904	290.877	272.451	114.384	429.638	395.522	139.230	327.954	264.189	0.00050993	0.00018824	7.9604e-05	1056.3	2.744e-06	3.9848e-07	1144.3	225.41	5.2873e-06	5.963e-07	284.38	80.559	62.608	18.679	5.3786e-06	25.876	0.00015693	0.00014149	3.7712e-05	983.25	1.6726e-06	1.5763e-06	1067.9	212.81	1.6754e-06	1.5177e-06	256.66	74.708	58.847	17.756	1.4872e-06	24.541	368.762	182.216	189.562	81.314	369.425	187.548	81.318	89.221	272.400	175.189	88.595	95.248	95.985	102.526	247.466	101.879	-8191	255	
6947.159	1	1	0	0	0.11845	0.17348	0.11335	0.18393	0.05656	0.27085	0.31579	0.163	0.29377	0.072818	0.26313	0.13992	0.1824	0.11844	0.088235	0.092584	-1.8479	-2.9354	-2.1854	-2.7458	-3.1021	-2.1167	-3.0687	-2.6833	-2.2729	-2.9667	-2.3292	-2.6917	-3.0958	-2.0667	-2.8333	-2.6542	369.063	182.745	171.622	363.338	287.574	399.903	385.934	242.043	376.712	172.570	218.556	371.890	402.697	80.460	228.784	408.583	0.00040812	0.00018678	8.3791e-05	1056.6	2.7297e-06	3.4924e-06	1146	224.4	4.324e-06	1.582e-06	284.05	79.822	62.69	18.61	6.1182e-06	25.671	0.00015258	0.00013661	3.8652e-05	986.2	1.6208e-06	1.5286e-06	1068.9	213.06	1.6249e-06	1.4828e-06	257.86	74.886	58.683	17.745	1.5835e-06	24.46	353.151	105.922	106.209	81.459	289.021	83.572	81.305	89.164	181.467	123.552	88.525	95.438	95.571	102.697	216.923	102.265	-8191	255	
6947.255	1	1	0	0	0.24958	0.25764	0.072061	0.24405	0.20284	0.1996	0.29223	0.22632	0.064879	0.28455	0.11463	0.13552	0.2143	0.031458	0.11392	0.04124	-1.7125	-2.8667	-2.1146	-2.5292	-2.6958	-2.3208	-2.8271	-2.8479	-2.4604	-3.0625	-2.6917	-2.4583	-3.0292	-2.2542	-2.4917	-2.65	237.922	97.518	253.013	396.159	314.810	140.771	378.931	335.240	391.228	341.826	169.851	182.758	102.661	150.842	314.139	360.375	0.00064741	0.00035146	8.6009e-05	1059.5	1.5451e-06	6.5587e-07	1150.2	225.96	1.6288e-06	2.7978e-06	283.46	80.354	62.998	18.435	5.6547e-06	25.728	0.00014855	0.00013573	4.2014e-05	987.13	1.5783e-06	1.5159e-06	1072.8	212.91	1.5957e-06	1.4767e-06	258.82	74.931	58.726	17.696	1.7394e-06	24.442	345.112	158.112	151.939	81.260	176.240	196.070	81.310	89.041	210.886	138.641	88.763	95.760	95.417	102.980	174.925	102.074	-8191	255	
6947.351	1	1	0	0	0.035679	0.058816	0.17247	0.22605	0.084157	0.24366	0.18074	0.20005	0.23125	0.047057	0.11243	0.12025	0.13574	0.088934	0.029967	0.11181	-1.7062	-2.7771	-2.2938	-2.5625	-2.7396	-2.2875	-2.6542	-2.7562	-2.2146	-2.7708	-2.6188	-2.0938	-3.0187	-2.225	-2.5625	-2.8458	213.261	276.218	331.112	381.281	292.983	424.653	413.517	122.310	222.333	164.267	136.719	405.538	176.707	241.215	168.654	300.478	0.00061778	0.0004734	0.00010991	1054.5	1.8474e-06	1.8905e-06	1146.8	224.67	5.482e-06	2.4353e-06	284.4	79.898	63.152	18.622	6.3121e-06	25.826	0.0001476	0.00013667	4.5285e-05	986.44	1.5641e-06	1.5461e-06	1074.2	212.72	1.5641e-06	1.5382e-06	259.68	74.619	58.652	17.83	1.8065e-06	24.418	364.292	101.020	145.778	81.312	228.310	253.887	81.308	88.976	430.955	127.599	88.719	95.588	95.835	102.827	177.649	101.721	-8191	255	
6947.447	1	1	0	0	0.12959	0.16906	0.081196	0.35047	0.089132	0.28746	0.048155	0.025583	0.15129	0.017167	0.2788	0.063233	0.20137	0.38479	0.1211	0.07868	-1.7313	-2.8667	-2.6292	-2.4938	-2.8604	-2.3521	-2.6542	-2.8979	-2.0438	-2.775	-2.5938	-2.3979	-2.7208	-2.4104	-2.4938	-2.9083	376.409	140.300	73.648	381.043	302.691	198.569	116.214	406.546	319.750	254.315	346.944	319.795	115.159	347.160	347.730	74.141	0.00067016	0.00021496	0.00010886	1056.7	2.3468e-06	4.567e-06	1147.2	226.21	6.927e-06	7.1361e-07	284.2	80.021	62.821	18.556	4.1242e-06	26.031	0.00014676	0.00014689	4.6791e-05	985.18	1.5546e-06	1.6973e-06	1077.3	212.71	1.615e-06	1.7191e-06	260.32	74.788	58.76	18.051	1.8875e-06	24.524	357.588	317.717	102.818	81.373	137.182	165.424	81.343	89.136	192.827	109.139	88.323	95.348	96.035	102.593	103.043	102.063	-8191	255	
6947.543	1	1	0	0	0.051874	0.13564	0.12367	0.39604	0.076462	0.12482	0.11077	0.18908	0.13862	0.083045	0.19184	0.28791	0.14727	0.043747	0.081454	0.056945	-1.7917	-2.5792	-2.6083	-2.4875	-2.9854	-2.4229	-2.4646	-2.7646	-2.2125	-2.7	-2.7479	-2.4792	-2.9062	-2.6479	-2.2167	-2.9375	280.205	372.258	151.757	363.478	239.525	88.216	411.333	117.042	155.681	316.802	257.496	347.779	381.163	215.097	395.743	131.488	0.00060381	0.00024793	8.1131e-06	1058.7	1.4503e-06	5.2532e-07	1147.6	226.05	3.8542e-06	3.6026e-07	285.44	79.748	62.939	18.564	4.091e-06	25.82	0.00015189	0.00016785	4.7795e-05	985.85	1.606e-06	1.8811e-06	1078	212.98	1.6657e-06	1.9041e-06	260.55	74.751	59.031	18.218	1.9261e-06	24.51	359.458	95.804	150.513	81.343	284.985	398.985	81.272	88.817	206.276	178.980	88.592	95.643	95.582	102.269	319.280	101.739	-8191	255	
6947.639	1	1	0	0	0.11711	0.071662	0.22194	0.087376	0.23963	0.20627	0.23984	0.19675	0.14778	0.095051	0.16174	0.069001	0.072534	0.26143	0.13485	0.052815	-2.0333	-2.6042	-2.7417	-2.3646	-2.6437	-2.4208	-2.4833	-2.8958	-2.3063	-2.4521	-2.6063	-2.2021	-2.7021	-2.7979	-2.375	-2.7333	246.740	188.001	410.884	395.636	411.249	229.988	311.789	349.520	283.888	241.739	392.178	96.139	200.570	380.429	371.322	189.409	0.00086348	9.0235e-05	2.8605e-05	1062	4.8811e-06	1.9232e-06	1150.3	226.66	6.4753e-06	1.1856e-06	284.77	80.197	63.337	18.807	1.327e-06	25.794	0.00016356	0.00018801	4.9118e-05	991.92	1.8493e-06	2.1587e-06	1083.5	214.61	2.0036e-06	2.2352e-06	263.78	75.807	60.376	18.661	2.1247e-06	24.905	359.092	368.090	302.313	81.292	208.615	139.694	81.400	88.916	139.894	389.989	88.524	95.595	95.349	102.583	380.495	101.578	-8191	255	
6947.758	1	1	0	0	0.11637	0.16343	0.16736	0.25615	0.20058	0.11149	0.052746	0.23975	0.18778	0.11964	0.16732	0.14374	0.14414	0.065449	0.39008	0.10148	-1.925	-2.6583	-2.6042	-2.2687	-2.8875	-2.8063	-2.1208	-3.1917	-2.6396	-2.5729	-2.9708	-2.3708	-2.6417	-2.6375	-2.2708	-2.8417	329.259	255.937	345.181	420.056	162.588	378.036	117.837	380.141	377.289	115.814	74.141	237.905	83.579	71.490	248.152	159.653	0.00093228	0.00030986	3.1025e-05	1066.7	5.94e-06	4.2893e-06	1160.1	227.98	8.8026e-06	4.2431e-06	286.42	80.393	63.762	18.773	5.6415e-06	25.901	0.00020036	0.00021441	5.4543e-05	1001	2.2182e-06	2.3555e-06	1091.2	216.84	2.2738e-06	2.3281e-06	265	76.011	61.191	18.664	2.0781e-06	24.863	363.287	136.220	237.795	81.422	207.483	385.623	81.176	88.954	156.415	318.991	88.250	95.147	95.876	102.657	135.281	101.766	-8191	255	
6947.854	1	1	0	0	0.26203	0.24216	0.13179	0.080674	0.25055	0.13145	0.37683	0.20789	0.20171	0.14584	0.11633	0.07266	0.088568	0.15445	0.22415	0.30539	-2.1021	-2.5104	-2.8792	-2.3312	-2.5729	-2.6771	-2.4062	-2.9896	-2.6375	-2.4042	-2.9375	-2.6875	-2.7521	-2.8417	-2.2104	-2.9396	168.019	165.632	208.436	372.678	375.694	350.518	350.724	415.785	250.554	112.856	397.736	415.575	358.198	319.438	360.649	325.014	0.00051765	0.00029531	0.00012218	1069.6	2.499e-06	1.6564e-06	1157.5	226.78	6.1812e-06	2.4022e-06	286.4	80.54	63.054	18.481	2.5972e-06	25.848	0.00020899	0.00020175	5.1238e-05	1002	2.2742e-06	2.149e-06	1088.2	216.16	2.258e-06	2.0967e-06	262.52	75.786	60.909	18.335	1.9239e-06	24.758	358.081	154.180	408.099	81.354	307.903	254.211	81.443	89.148	116.351	401.117	88.504	95.586	95.849	102.763	168.049	102.123	-8191	255	
6947.951	1	1	0	0	0.17684	0.088764	0.086109	0.055828	0.24516	0.19017	0.16886	0.21272	0.20741	0.055621	0.074895	0.25029	0.28207	0.045279	0.32217	0.24723	-1.9271	-2.4604	-2.9083	-2.3708	-2.4	-2.9688	-2.3937	-2.8479	-2.6833	-2.4229	-3.0396	-2.4	-2.4188	-3.0417	-2.3021	-2.7042	137.774	424.860	305.279	332.373	101.756	81.088	332.402	316.337	397.406	168.192	334.809	346.027	314.093	277.267	261.258	156.384	0.00080625	0.00040656	0.00011004	1071.2	2.9275e-06	5.445e-06	1153	226.62	2.8513e-06	1.1919e-06	286.14	80.339	62.79	18.665	2.1443e-06	25.724	0.00020009	0.00018269	4.6898e-05	999.8	2.1435e-06	1.9072e-06	1083.7	215.43	2.0705e-06	1.8578e-06	259.81	75.152	59.775	17.962	1.6679e-06	24.52	366.917	117.967	142.813	81.571	162.499	183.502	81.255	88.852	314.250	333.797	88.527	95.494	95.653	102.792	101.607	101.685	-8191	255	
6948.047	1	1	0	0	0.19529	0.17755	0.051544	0.18341	0.17473	0.31156	0.14557	0.14521	0.072577	0.07733	0.27884	0.37549	0.063468	0.12203	0.27288	0.18638	-2.2646	-2.0979	-2.8417	-2.4792	-2.45	-2.5833	-2.2375	-2.7771	-2.6562	-2.3229	-2.9562	-2.4125	-2.2417	-2.9271	-2.0854	-2.6979	373.382	411.241	115.392	404.045	112.381	426.392	76.656	372.387	148.571	277.449	282.257	382.086	264.626	109.146	287.311	322.155	0.00036264	0.00038391	6.7774e-05	1057.8	3.8497e-06	2.2244e-07	1141.8	222.56	5.1107e-06	3.3754e-07	281.58	79.113	62.084	18.146	4.6913e-06	25.355	0.00017159	0.00015208	3.9434e-05	986.4	1.7572e-06	1.5788e-06	1066.2	210.74	1.678e-06	1.5334e-06	253.5	73.813	58.128	17.381	1.454e-06	23.999	355.666	195.305	140.912	81.166	297.166	89.441	81.255	89.277	263.591	265.045	88.807	95.569	95.719	102.527	201.627	102.085	-8191	255	
#DATA ENDS
