BOXY.EXE: ISS Imagent and Oximeter Data Acquisition Program Version 0.80
Ascii Record File

#ACQ INFORMATION
2  Detector Channels 
16  External MUX Channels 
1  Auxiliary Channels 
5000  Waveform (CCF) Frequency (Hz)
1  Waveforms Skipped 
30  Waveforms Averaged 
1  Cycles Averaged 
16  Acquisitions per Waveform 
10.0806  Updata Rate (Hz) 

#FILE INFORMATION
TRUE -- External MUX Channel results are PARSED.
FALSE -- AC DC and Phase are NOT grouped.
TRUE -- Companion Program Settings File CREATED.
FALSE -- AC data not excluded
FALSE -- DC data not excluded
FALSE -- Phase data not excluded
FALSE -- Auxillary Chn. data not excluded
Tab delimiters

#CALIBRATION STATE
TRUE -- Waveform Calibration Values APPLIED.


#AUX CALIBRATION VALUES
Val Type	aux-1	

Term	1.0000e+00	
Factor	0.0000e+00	


#WF CALIBRATION VALUES
A = Detector Channel
Val Type	A-AC1	A-AC2	A-AC3	A-AC4	A-AC5	A-AC6	A-AC7	A-AC8	A-AC9	A-AC10	A-AC11	A-AC12	A-AC13	A-AC14	A-AC15	A-AC16	A-DC1	A-DC2	A-DC3	A-DC4	A-DC5	A-DC6	A-DC7	A-DC8	A-DC9	A-DC10	A-DC11	A-DC12	A-DC13	A-DC14	A-DC15	A-DC16	A-Ph1	A-Ph2	A-Ph3	A-Ph4	A-Ph5	A-Ph6	A-Ph7	A-Ph8	A-Ph9	A-Ph10	A-Ph11	A-Ph12	A-Ph13	A-Ph14	A-Ph15	A-Ph16	

Term	0.00000e+00	0.00000e+00	0.00000e+00	0.00000e+00	0.00000e+00	0.00000e+00	0.00000e+00	0.00000e+00	0.00000e+00	0.00000e+00	0.00000e+00	0.00000e+00	0.00000e+00	0.00000e+00	0.00000e+00	0.00000e+00	0.00000e+00	0.00000e+00	0.00000e+00	0.00000e+00	0.00000e+00	0.00000e+00	0.00000e+00	0.00000e+00	0.00000e+00	0.00000e+00	0.00000e+00	0.00000e+00	0.00000e+00	0.00000e+00	0.00000e+00	0.00000e+00	0.00000e+00	0.00000e+00	0.00000e+00	0.00000e+00	0.00000e+00	0.00000e+00	0.00000e+00	0.00000e+00	0.00000e+00	0.00000e+00	0.00000e+00	0.00000e+00	0.00000e+00	0.00000e+00	0.00000e+00	0.00000e+00	
Factor	1.00000e+00	1.00000e+00	1.00000e+00	1.00000e+00	1.00000e+00	1.00000e+00	1.00000e+00	1.00000e+00	1.00000e+00	1.00000e+00	1.00000e+00	1.00000e+00	1.00000e+00	1.00000e+00	1.00000e+00	1.00000e+00	1.00000e+00	1.00000e+00	1.00000e+00	1.00000e+00	1.00000e+00	1.00000e+00	1.00000e+00	1.00000e+00	1.00000e+00	1.00000e+00	1.00000e+00	1.00000e+00	1.00000e+00	1.00000e+00	1.00000e+00	1.00000e+00	X	X	X	X	X	X	X	X	X	X	X	X	X	X	X	X	

B = Detector Channel
Val Type	B-AC1	B-AC2	B-AC3	B-AC4	B-AC5	B-AC6	B-AC7	B-AC8	B-AC9	B-AC10	B-AC11	B-AC12	B-AC13	B-AC14	B-AC15	B-AC16	B-DC1	B-DC2	B-DC3	B-DC4	B-DC5	B-DC6	B-DC7	B-DC8	B-DC9	B-DC10	B-DC11	B-DC12	B-DC13	B-DC14	B-DC15	B-DC16	B-Ph1	B-Ph2	B-Ph3	B-Ph4	B-Ph5	B-Ph6	B-Ph7	B-Ph8	B-Ph9	B-Ph10	B-Ph11	B-Ph12	B-Ph13	B-Ph14	B-Ph15	B-Ph16	

Term	0.00000e+00	0.00000e+00	0.00000e+00	0.00000e+00	0.00000e+00	0.00000e+00	0.00000e+00	0.00000e+00	0.00000e+00	0.00000e+00	0.00000e+00	0.00000e+00	0.00000e+00	0.00000e+00	0.00000e+00	0.00000e+00	0.00000e+00	0.00000e+00	0.00000e+00	0.00000e+00	0.00000e+00	0.00000e+00	0.00000e+00	0.00000e+00	0.00000e+00	0.00000e+00	0.00000e+00	0.00000e+00	0.00000e+00	0.00000e+00	0.00000e+00	0.00000e+00	-1.45959e+02	-1.30980e+02	-1.25157e+02	-1.82080e+02	-7.17741e+01	-6.95097e+01	-1.55766e+02	-1.62015e+02	-7.74156e+01	-6.88670e+01	-1.70942e+02	-1.70432e+02	-1.82993e+02	-1.76724e+02	-6.90137e+01	-1.49404e+02	
Factor	2.03209e-05	1.41488e-04	3.74525e-05	1.74853e-01	1.18439e-06	1.57894e-06	1.53863e-01	4.53265e-02	1.13898e-06	1.62005e-06	7.65132e-02	2.71161e-02	3.40376e-02	8.44743e-03	1.33393e-06	1.21964e-02	1.36066e-05	2.52670e-05	7.14622e-06	9.33528e-02	2.52174e-07	2.86787e-07	7.71164e-02	2.43145e-02	2.45725e-07	2.86025e-07	3.96700e-02	1.41238e-02	1.84396e-02	4.57171e-03	2.63143e-07	6.37821e-03	X	X	X	X	X	X	X	X	X	X	X	X	X	X	X	X	



#DISTANCE SETTINGS
A = Detector Channel
A-1	A-2	A-3	A-4	A-5	A-6	A-7	A-8	A-9	A-10	A-11	A-12	A-13	A-14	A-15	A-16	

2.5000e+00	3.0000e+00	2.5000e+00	3.0000e+00	2.0000e+00	3.0000e+00	1.5000e+00	3.0000e+00	3.0000e+00	3.0000e+00	3.0000e+00	3.0000e+00	3.0000e+00	3.0000e+00	1.5000e+00	3.0000e+00	

B = Detector Channel
B-1	B-2	B-3	B-4	B-5	B-6	B-7	B-8	B-9	B-10	B-11	B-12	B-13	B-14	B-15	B-16	

1.0000e+01	1.0000e+01	1.0000e+01	1.4400e+00	1.0000e+01	1.0000e+01	1.5100e+00	1.9400e+00	1.0000e+01	1.0000e+01	1.9900e+00	2.4900e+00	2.4100e+00	2.9000e+00	1.0000e+01	2.9800e+00	




#DATA BEGINS
time	group	step	mark	flag	A-AC1	A-AC2	A-AC3	A-AC4	A-AC5	A-AC6	A-AC7	A-AC8	A-AC9	A-AC10	A-AC11	A-AC12	A-AC13	A-AC14	A-AC15	A-AC16	A-DC1	A-DC2	A-DC3	A-DC4	A-DC5	A-DC6	A-DC7	A-DC8	A-DC9	A-DC10	A-DC11	A-DC12	A-DC13	A-DC14	A-DC15	A-DC16	A-Ph1	A-Ph2	A-Ph3	A-Ph4	A-Ph5	A-Ph6	A-Ph7	A-Ph8	A-Ph9	A-Ph10	A-Ph11	A-Ph12	A-Ph13	A-Ph14	A-Ph15	A-Ph16	B-AC1	B-AC2	B-AC3	B-AC4	B-AC5	B-AC6	B-AC7	B-AC8	B-AC9	B-AC10	B-AC11	B-AC12	B-AC13	B-AC14	B-AC15	B-AC16	B-DC1	B-DC2	B-DC3	B-DC4	B-DC5	B-DC6	B-DC7	B-DC8	B-DC9	B-DC10	B-DC11	B-DC12	B-DC13	B-DC14	B-DC15	B-DC16	B-Ph1	B-Ph2	B-Ph3	B-Ph4	B-Ph5	B-Ph6	B-Ph7	B-Ph8	B-Ph9	B-Ph10	B-Ph11	B-Ph12	B-Ph13	B-Ph14	B-Ph15	B-Ph16	aux-1	digaux	

1437.665	1	1	0	512	0.10787	0.15377	0.19679	0.20629	0.070437	0.21408	0.28524	0.20057	0.25265	0.28431	0.14114	0.26507	0.23395	0.33541	0.16156	0.2306	-0.58542	-1.9188	-1.4188	-1.5146	-1.9333	-0.99167	-1.7292	-1.8333	-0.94792	-2.1625	-1.6146	-1.3083	-1.8979	-1.2854	-1.7021	-1.8625	213.309	237.294	239.025	326.491	182.572	149.645	324.300	356.490	180.005	229.469	393.209	295.842	350.309	51.623	254.000	366.730	0.00055236	0.00052207	0.00015083	580.32	4.9283e-06	4.2636e-06	786.29	225.67	2.7954e-06	8.4461e-06	337.87	151.1	99.4	37.934	1.7389e-06	68.954	0.0011974	0.0016618	0.0004712	553.37	1.6649e-05	1.8728e-05	747.4	215.51	1.6708e-05	1.8585e-05	324.33	146.05	97.037	37.141	1.807e-05	66.725	136.961	99.829	131.006	51.005	167.063	176.980	50.256	55.930	186.897	202.515	54.002	57.565	59.714	63.838	178.495	61.845	-8191	255	
1437.761	1	1	0	0	0.085889	0.32386	0.34395	0.039285	0.30601	0.37919	0.075175	0.22379	0.15977	0.071543	0.22719	0.21	0.1148	0.045591	0.21482	0.21281	-0.52083	-1.6729	-1.4667	-1.1688	-1.9375	-1.1083	-1.6333	-1.6125	-1.0063	-1.7917	-1.6146	-1.4438	-1.9583	-1.3479	-1.5063	-2.0375	123.621	390.577	187.969	327.629	346.559	211.893	152.528	374.402	117.473	204.624	392.262	390.834	318.198	197.603	107.661	365.110	0.00051756	0.00049911	0.00013642	574.08	4.7274e-06	4.8799e-06	768.21	223.51	5.1262e-06	4.0705e-06	336.29	151.42	100.26	38.276	5.5974e-06	68.874	0.0012061	0.0016075	0.00044862	552.05	1.6234e-05	1.8788e-05	742.15	214.77	1.6735e-05	1.854e-05	323.99	146.08	96.84	37.232	1.7812e-05	66.733	134.803	117.478	143.646	51.151	177.135	190.967	49.851	55.683	215.032	158.150	53.934	57.782	60.234	64.062	187.938	61.875	-8191	255	
1437.881	1	1	0	0	0.23314	0.25297	0.14324	0.31182	0.22417	0.25172	0.22733	0.19367	0.11905	0.17038	0.43921	0.11574	0.26964	0.14959	0.12908	0.18208	-0.71667	-1.9083	-1.6313	-1.0625	-1.875	-1.3438	-1.4854	-1.9292	-1.1083	-1.9354	-1.7458	-1.1187	-2.0708	-1.2833	-1.4312	-2.2812	162.809	345.052	132.570	318.176	309.144	76.270	300.144	326.286	221.627	180.259	307.034	334.999	80.574	340.997	68.384	235.035	0.00060302	0.00050152	6.9264e-05	571.41	4.16e-06	9.1627e-06	787.9	227.3	5.3286e-06	7.058e-06	341.42	152.68	101.36	38.982	3.7669e-06	70.404	0.0012148	0.0016716	0.00046291	550.92	1.6603e-05	1.8719e-05	748.29	215.78	1.6346e-05	1.8629e-05	326.6	146.66	97.311	37.59	1.8059e-05	67.679	132.021	120.809	164.051	51.482	209.549	180.397	50.634	56.228	219.259	181.375	53.974	58.325	60.739	64.453	199.746	62.222	-8191	255	
1437.977	1	1	0	0	0.22488	0.062252	0.092112	0.1956	0.22052	0.066931	0.21337	0.15251	0.11931	0.16909	0.24442	0.11276	0.42884	0.32012	0.061543	0.18873	-0.61667	-1.6458	-1.6625	-1.1604	-1.9146	-1.2458	-1.5354	-1.9125	-1.225	-1.5521	-2.0312	-1.125	-1.8312	-1.6375	-1.2229	-2.0125	244.413	348.261	274.622	316.121	103.827	313.448	303.140	63.748	261.103	132.680	342.807	289.883	40.330	326.989	377.592	321.185	0.00054485	0.00054028	9.6555e-05	589.45	2.8428e-06	5.8245e-06	794.67	226.1	3.6814e-06	3.9471e-06	342.38	153.04	100.76	39.099	4.4084e-06	69.747	0.0012009	0.0016462	0.00046613	559.5	1.6557e-05	1.891e-05	753.72	215.83	1.6453e-05	1.8321e-05	325.7	146.01	96.868	37.534	1.7387e-05	67.041	132.217	174.703	166.678	51.547	189.689	192.003	50.647	56.149	254.559	168.438	54.248	58.021	60.085	64.314	171.278	62.289	-8191	255	
1438.049	1	1	0	0	0.1621	0.16113	0.089698	0.17388	0.17728	0.21193	0.39086	0.043743	0.047783	0.24717	0.14225	0.11822	0.12979	0.011388	0.18663	0.26077	-0.85208	-1.3958	-1.7771	-1.075	-1.7542	-1.4521	-1.2125	-2.1396	-1.2812	-1.3396	-1.9354	-1.15	-1.6792	-1.7188	-1.125	-1.9271	169.845	39.738	254.931	336.477	297.604	138.648	374.836	156.686	357.826	140.640	283.373	232.705	362.487	335.787	300.808	353.785	0.00056431	0.00066005	0.00016834	584.4	3.2543e-06	6.7042e-06	783.61	223.25	7.0408e-06	3.5317e-06	336.21	148.4	99.156	38.481	5.6215e-06	68.423	0.0011837	0.001645	0.00044987	552.84	1.6353e-05	1.7756e-05	742.33	213.13	1.5861e-05	1.7787e-05	318.54	142.2	95.112	36.974	1.6527e-05	65.655	135.637	104.200	155.826	51.329	187.606	182.670	50.640	56.220	195.261	187.886	54.466	58.231	60.633	64.547	201.531	62.295	-8191	255	
1438.170	1	1	0	0	0.079197	0.12982	0.25844	0.35723	0.23221	0.26628	0.44307	0.32911	0.26542	0.25529	0.14566	0.23365	0.1834	0.28804	0.14471	0.076527	-0.75625	-1.5542	-1.8312	-1.1479	-1.5896	-1.5875	-1.0688	-2.0542	-1.3333	-1.325	-2.1667	-1.2396	-1.7896	-1.9333	-1.0667	-2.0708	341.678	287.669	199.395	335.113	43.210	186.231	376.566	305.141	364.526	297.621	268.686	73.674	112.158	86.509	123.817	47.475	0.00054252	0.00050041	0.00010666	577.43	4.2499e-06	6.7269e-06	777.27	222.18	4.7756e-06	7.6201e-06	332.27	148.09	98.797	38.875	5.514e-06	69.178	0.0011499	0.0015696	0.00043014	548.19	1.5878e-05	1.7755e-05	734.5	211.93	1.5726e-05	1.7832e-05	317.42	141.83	94.787	37.28	1.6143e-05	66.277	132.776	119.446	81.773	51.390	179.216	182.411	50.475	56.328	172.697	203.906	54.190	58.003	60.660	64.699	174.369	62.538	-8191	255	
1438.266	1	1	0	0	0.12877	0.076761	0.12152	0.20734	0.13287	0.14779	0.11431	0.11496	0.25338	0.05053	0.16286	0.1203	0.13545	0.30915	0.20942	0.33823	-1.1729	-1.2687	-2.0375	-1.2625	-1.6063	-1.7854	-1.1604	-1.9396	-1.4854	-1.3563	-2.0312	-1.3625	-1.7083	-1.8167	-1.1375	-1.9521	340.290	217.348	42.081	338.681	281.660	91.385	318.915	116.053	70.250	182.212	127.684	320.384	238.978	324.784	142.032	302.709	0.00058434	0.00034595	0.00012839	582.4	5.3781e-06	6.0588e-06	778.78	222.45	2.5704e-06	6.2171e-06	331.59	147.41	98.67	38.606	3.0407e-06	67.955	0.0011439	0.0015756	0.00044042	549.88	1.5562e-05	1.6982e-05	732.97	211.56	1.5199e-05	1.7664e-05	315.48	140.6	94.301	37.018	1.6075e-05	65.404	130.504	130.537	112.388	51.242	195.882	174.961	50.589	56.061	220.709	178.077	54.626	58.228	60.597	64.642	144.154	62.335	-8191	255	
1438.362	1	1	0	0	0.18612	0.042036	0.13453	0.18479	0.080961	0.43794	0.38445	0.19307	0.23331	0.14634	0.34798	0.28876	0.14402	0.034359	0.069064	0.12458	-1.2917	-1.0063	-2.0333	-1.2062	-1.5417	-2.0229	-1.3729	-1.8521	-1.5875	-1.0312	-1.9458	-1.3583	-1.5438	-1.9333	-1.1167	-1.7938	301.552	304.868	114.651	305.959	105.106	268.009	342.383	349.389	264.730	261.506	382.628	363.941	330.923	148.254	352.077	295.691	0.0005374	0.00075806	0.00013524	576.81	3.3697e-06	3.2719e-06	775.74	220.05	1.5826e-06	3.6175e-06	329.13	145.2	97.023	38.283	6.1225e-06	67.66	0.0010959	0.0015014	0.00042185	547.39	1.4868e-05	1.6478e-05	733.63	209.33	1.4644e-05	1.6327e-05	312.97	138.93	93.086	36.626	1.5494e-05	64.797	135.219	145.656	143.445	51.495	199.126	223.101	50.556	56.166	171.653	167.394	54.115	58.519	60.728	64.671	200.435	62.668	-8191	255	
1438.458	1	1	0	0	0.19902	0.24638	0.13394	0.11278	0.23848	0.18115	0.094077	0.33658	0.074844	0.27351	0.25185	0.26932	0.16679	0.17527	0.21109	0.084077	-1.3333	-1.1229	-1.9583	-1.3708	-1.3312	-1.9167	-1.1146	-1.7708	-1.8083	-0.99792	-2.0875	-1.4104	-1.3958	-2.0979	-1.1104	-1.75	255.061	275.569	107.825	125.519	353.665	386.392	104.499	315.754	260.160	100.618	330.220	337.180	376.429	342.761	290.781	284.286	0.00051767	0.00025908	0.00017383	575.59	7.4627e-06	4.4402e-06	770.02	221.4	6.635e-06	5.3133e-06	324.51	142.86	96.039	37.76	4.519e-06	65.99	0.0010498	0.0014879	0.00041043	545.7	1.5124e-05	1.5869e-05	724.76	209.86	1.4718e-05	1.6389e-05	308.36	136.32	91.96	36.136	1.5315e-05	63.097	132.756	190.684	134.352	51.246	203.625	198.654	50.845	56.256	163.285	169.470	54.445	58.147	60.949	64.468	216.477	62.115	-8191	255	
1438.579	1	1	0	0	0.40343	0.13611	0.19552	0.16594	0.28901	0.11514	0.29869	0.36139	0.12307	0.2428	0.12003	0.21235	0.14315	0.11376	0.13648	0.12222	-1.3625	-1.05	-1.8354	-1.375	-1.1167	-2.1604	-1.3646	-1.5667	-1.9271	-0.99792	-1.8771	-1.8521	-1.0042	-2.1333	-1.0854	-1.5229	365.638	115.948	363.447	367.445	299.581	44.023	376.844	329.405	308.138	392.462	354.911	343.798	96.670	86.467	202.070	271.341	0.00053299	0.00063121	9.8964e-05	570.08	4.4879e-06	5.7076e-06	752.51	214.54	6.3586e-06	5.8307e-06	315.94	139.6	93.213	36.019	1.7269e-06	64.648	0.0010663	0.0014116	0.00040978	540.3	1.4561e-05	1.6076e-05	711.01	205.39	1.4246e-05	1.5762e-05	302.13	134.05	90.284	35.06	1.4908e-05	62.059	130.573	122.066	156.740	51.184	200.920	182.365	50.371	56.019	183.871	215.576	54.181	58.437	60.578	64.255	201.411	62.698	-8191	255	
1438.651	1	1	0	0	0.19419	0.055796	0.19799	0.10227	0.21681	0.29294	0.1603	0.14491	0.21463	0.13433	0.22512	0.12633	0.075614	0.089075	0.1769	0.328	-1.5604	-0.95417	-1.9271	-1.8146	-1.2333	-1.8375	-1.3625	-1.4438	-1.9625	-1.2771	-1.7104	-1.7604	-1.0875	-2.0833	-1.2729	-1.3896	388.382	98.466	64.212	383.707	257.704	267.690	341.641	302.367	174.821	273.350	377.805	317.276	57.807	370.675	319.219	61.869	0.00055588	0.00069884	0.00014322	566.29	5.4652e-06	4.7769e-06	751.28	215.07	3.4685e-06	5.7591e-06	313.39	136.73	91.323	35.028	3.1328e-06	62.263	0.0010674	0.0014771	0.00040022	537.04	1.4631e-05	1.5955e-05	710.14	204.81	1.4322e-05	1.6583e-05	300.3	132.38	89.219	34.405	1.5237e-05	60.578	127.852	116.111	115.861	51.475	178.575	173.508	50.171	56.302	171.676	179.480	53.975	57.528	60.479	64.038	254.693	62.282	-8191	255	
1438.769	1	1	0	0	0.21286	0.2158	0.12027	0.22312	0.15922	0.13994	0.11387	0.27139	0.067883	0.03521	0.30323	0.25682	0.21181	0.3006	0.3305	0.28662	-1.5438	-0.95208	-1.5833	-1.7437	-1.0667	-1.7917	-1.5625	-1.3	-1.9646	-1.3583	-1.8146	-2.0042	-1.1479	-1.9208	-1.4583	-1.2938	323.690	250.936	232.446	297.380	211.720	185.903	306.388	378.705	322.519	157.351	278.095	118.026	290.860	58.056	231.753	328.926	0.00050106	0.00047901	0.0001195	552.44	4.211e-06	2.9198e-06	728.24	208.04	4.2926e-06	2.0674e-06	311.52	137.74	92.029	35.217	5.3985e-06	62.444	0.0010288	0.0014485	0.00040556	533.93	1.4695e-05	1.5567e-05	700.4	200.59	1.3948e-05	1.6176e-05	295.86	131.3	88.323	33.873	1.5175e-05	59.731	137.756	137.085	144.978	50.863	134.336	162.442	49.914	55.818	156.105	118.027	54.235	58.083	61.432	64.516	176.952	62.552	-8191	255	
1438.866	1	1	0	0	0.10798	0.264	0.094413	0.13926	0.30188	0.03609	0.08792	0.2137	0.099907	0.084342	0.24917	0.1621	0.031448	0.13663	0.32877	0.42046	-1.525	-1.0292	-1.6875	-2.0312	-1.1562	-1.6375	-1.8	-1.175	-2.0042	-1.2333	-1.3458	-1.9312	-1.2125	-1.8771	-1.5771	-1.0438	56.415	335.570	50.994	287.840	188.291	296.490	249.068	193.187	330.563	253.745	282.206	340.803	338.751	375.046	213.318	321.997	0.00050634	0.00084085	0.00015713	560.55	3.3751e-06	8.5909e-06	727.97	209.28	2.7444e-06	5.9001e-06	304.09	133.43	90.846	34.703	6.2134e-06	60.851	0.0010204	0.0014287	0.00038712	531.92	1.4563e-05	1.5469e-05	689.12	199.14	1.3441e-05	1.5379e-05	289.09	128.08	87.058	33.278	1.4945e-05	58.318	135.230	138.315	119.571	51.462	169.546	188.416	50.165	56.064	182.788	188.833	54.327	58.152	60.819	64.891	208.626	62.513	-8191	255	
1438.962	1	1	0	0	0.21103	0.18834	0.051794	0.14556	0.2118	0.19119	0.25028	0.068282	0.17163	0.21666	0.40778	0.062643	0.28911	0.13764	0.14526	0.19718	-1.5583	-1.2812	-1.2208	-2.0021	-1.3542	-1.7833	-1.8667	-1.0542	-1.8667	-1.375	-1.25	-2.225	-1.0187	-1.7417	-1.7437	-1.1896	227.540	241.511	364.301	158.328	122.091	125.050	52.655	279.690	259.332	217.072	373.260	174.109	359.579	337.342	347.491	390.665	0.00048905	0.00052087	0.00010195	555.46	4.3314e-06	1.3653e-06	702.55	202.35	3.9901e-06	4.033e-06	293.71	129.8	88.48	33.57	3.8342e-06	59.119	0.00099833	0.0013945	0.00038923	528.45	1.3894e-05	1.532e-05	676.97	196.07	1.3678e-05	1.5869e-05	284.75	126.24	85.887	32.773	1.4576e-05	57.403	133.423	96.851	134.233	51.214	197.869	180.359	49.832	55.575	167.833	174.261	54.022	57.798	59.789	64.105	183.623	62.010	-8191	255	
1439.058	1	1	0	0	0.17595	0.15373	0.1608	0.41349	0.23556	0.11783	0.1767	0.40931	0.22415	0.049838	0.20172	0.23241	0.053574	0.054435	0.09107	0.11533	-1.5542	-1.5208	-1.3146	-2.1958	-1.0896	-1.5833	-1.9958	-1.1625	-1.725	-1.2938	-1.3396	-2.1021	-1.1729	-1.5083	-1.6792	-1.3375	339.389	252.032	51.401	153.479	203.655	166.762	312.415	60.973	84.347	298.027	327.412	314.634	137.054	227.768	203.684	360.411	0.00048248	0.00066076	0.00010322	540.28	3.5457e-06	4.1837e-06	704.23	201.87	4.2605e-06	3.953e-06	296.71	131.46	88.226	33.853	7.0813e-06	60.15	0.001003	0.0013865	0.00039121	522.65	1.4153e-05	1.5943e-05	677.99	195.4	1.3462e-05	1.5503e-05	286.94	127.15	86.139	32.937	1.4665e-05	58.305	137.230	137.317	133.195	51.015	210.320	215.369	49.859	55.956	166.360	213.343	53.922	57.620	59.945	64.134	180.740	61.853	-8191	255	
1439.178	1	1	0	0	0.22677	0.11094	0.27513	0.26497	0.23056	0.28722	0.21785	0.31854	0.2588	0.15642	0.076635	0.38026	0.12332	0.19501	0.073202	0.20245	-1.3646	-1.5333	-1.1354	-1.9458	-1.1333	-1.3854	-2.0583	-1.0542	-1.6562	-1.6583	-1.1146	-2.1271	-1.4333	-1.4271	-2.0292	-0.99167	87.442	44.037	197.262	313.454	328.872	294.446	339.111	51.184	281.578	349.438	209.381	353.271	294.369	341.862	295.561	72.755	0.00046232	0.00034263	7.9051e-05	544.66	3.9443e-06	6.6036e-06	708.17	202.11	3.9704e-06	4.1604e-06	298.08	131.57	87.999	33.387	4.2944e-06	59.073	0.00099759	0.0013968	0.00038889	524.9	1.4063e-05	1.5708e-05	682.5	195.47	1.3501e-05	1.5429e-05	286.84	127.35	85.782	32.648	1.4569e-05	57.643	134.163	181.167	139.483	51.005	184.371	172.236	49.856	55.994	202.643	177.773	53.723	57.764	60.042	63.870	207.650	62.012	-8191	255	
1439.250	1	1	0	0	0.33992	0.053938	0.21008	0.15049	0.26342	0.17764	0.28941	0.04066	0.22786	0.16759	0.21237	0.068966	0.26779	0.27874	0.14396	0.26343	-1.1958	-1.7875	-0.98958	-1.875	-1.4062	-1.2271	-2.0417	-1.1437	-1.5917	-1.5417	-1.1	-2.0062	-1.3417	-1.3042	-1.7708	-1.0583	306.698	256.279	236.560	53.435	151.474	160.473	365.092	327.042	314.475	354.719	307.061	63.027	357.396	314.592	272.925	39.048	0.00046507	0.0006096	3.9863e-05	545.1	2.3022e-06	5.356e-06	707.65	201.92	3.042e-06	5.9081e-06	294.13	130.53	87.449	33.315	6.7572e-06	58.78	0.0010071	0.0013575	0.00039237	524.27	1.4295e-05	1.5785e-05	677.81	194.51	1.3922e-05	1.5365e-05	283.34	125.72	85.373	32.45	1.5078e-05	57.107	134.357	140.765	128.322	50.934	114.553	220.065	49.761	55.550	237.277	189.624	53.803	57.847	59.963	64.306	204.310	62.083	-8191	255	
1439.346	1	1	0	0	0.14657	0.15482	0.16694	0.30723	0.13044	0.21324	0.24046	0.40054	0.13596	0.17694	0.063274	0.12744	0.10674	0.22566	0.090331	0.18008	-1.1854	-1.7625	-0.98542	-1.7104	-1.55	-1.2687	-2.0229	-1.3083	-1.4146	-1.8563	-1.15	-1.8229	-1.6313	-1.1958	-1.9937	-1.2854	354.698	110.450	89.155	363.464	155.305	219.614	314.717	65.100	264.995	336.404	381.232	391.684	210.835	273.788	323.958	115.609	0.00045602	0.00055668	0.00011634	543.05	3.0683e-06	5.9662e-06	703.74	200.21	4.535e-06	3.7531e-06	290.96	129.97	86.65	32.878	3.2239e-06	58.111	0.0010176	0.0014107	0.00039883	522.67	1.3925e-05	1.5622e-05	673.69	193.9	1.4166e-05	1.5578e-05	282.25	125.63	85.057	32.188	1.4561e-05	56.599	134.449	115.716	142.155	50.553	209.901	205.885	50.042	55.363	201.381	170.906	53.767	57.777	60.072	64.463	198.631	62.029	-8191	255	
1439.442	1	1	0	0	0.25349	0.086884	0.27832	0.22649	0.027562	0.06966	0.12363	0.17474	0.021558	0.18879	0.14501	0.23304	0.031509	0.17052	0.19344	0.20063	-0.90417	-1.8	-1.3104	-1.7521	-1.7437	-0.98958	-1.925	-1.3729	-1.4083	-1.8208	-1.1646	-1.9542	-1.775	-1.0354	-2.0771	-1.6417	366.479	230.451	375.629	39.297	291.776	125.792	280.813	375.371	211.328	241.793	47.003	377.201	190.009	93.431	128.734	291.476	0.00046135	0.00017322	0.00013869	537.3	3.4653e-06	5.4663e-06	699.27	200.7	4.2887e-06	4.44e-06	292.02	130.06	87.223	32.939	4.6815e-06	58.276	0.0010141	0.001308	0.00038369	518.96	1.3901e-05	1.5668e-05	672.2	193.31	1.3571e-05	1.5619e-05	282.52	125.78	84.921	32.096	1.4396e-05	56.746	131.572	77.428	159.698	50.735	217.909	191.044	50.062	55.870	196.159	198.654	53.630	57.842	60.487	64.437	156.214	62.237	-8191	255	
1439.561	1	1	0	0	0.22876	0.1016	0.06858	0.089409	0.11956	0.20394	0.12803	0.20166	0.12248	0.14114	0.18728	0.17878	0.072775	0.096334	0.12757	0.28706	-0.92917	-1.9854	-1.0958	-1.6562	-1.8875	-1.0354	-1.9292	-1.5938	-1.1125	-1.9896	-1.1146	-1.4896	-1.8583	-1.2333	-1.8083	-1.6354	302.174	343.359	210.559	299.663	315.191	110.394	363.152	382.718	246.481	291.330	345.667	128.286	266.984	344.543	233.803	359.481	0.00051232	0.00065953	5.9508e-05	541.43	4.8687e-06	2.6362e-06	701.07	199.32	3.339e-06	6.6228e-07	292.27	128.6	86.298	32.843	6.3725e-06	57.535	0.00098855	0.0013706	0.00037969	521.32	1.3777e-05	1.5358e-05	674.1	192.93	1.3533e-05	1.5207e-05	282.09	124.97	84.553	31.988	1.4489e-05	56.305	133.879	141.582	148.004	51.211	167.625	152.319	50.302	55.839	173.523	360.101	53.709	57.700	60.264	64.355	165.309	61.581	-8191	255	
1439.657	1	1	0	0	0.22628	0.10911	0.12137	0.1058	0.058048	0.16428	0.14943	0.152	0.21554	0.21294	0.34788	0.13114	0.20672	0.17404	0.12311	0.10091	-0.75625	-1.9083	-1.1229	-1.3729	-1.95	-1.0187	-1.8875	-1.6708	-1.0792	-2.025	-1.2271	-1.4542	-1.9021	-1.2604	-1.6125	-1.7563	344.641	301.836	244.365	330.028	127.372	81.696	302.748	319.812	69.891	54.794	72.534	301.998	371.448	53.284	386.186	334.684	0.00046826	0.00051696	8.8232e-05	540.76	3.0575e-06	5.1863e-06	689.46	198.35	4.4456e-06	5.3952e-06	287.88	127.56	86.434	32.888	2.5803e-06	57.745	0.00098736	0.0013015	0.00037885	518.65	1.3554e-05	1.5469e-05	665.09	191.6	1.3807e-05	1.4933e-05	277.98	123.26	83.902	31.966	1.4478e-05	55.901	137.021	122.424	92.587	51.103	210.182	174.496	50.182	55.497	183.664	146.078	53.905	58.002	60.334	64.612	208.469	61.982	-8191	255	
1439.754	1	1	0	0	0.31449	0.20173	0.082034	0.16719	0.078427	0.16366	0.1384	0.14703	0.13592	0.3528	0.15028	0.3624	0.2197	0.23407	0.048691	0.16713	-0.81667	-2.0187	-1.1458	-1.1437	-1.8417	-1.0375	-1.7021	-1.7875	-1.3646	-1.9771	-1.3896	-1.2896	-1.875	-1.2583	-1.6729	-1.7812	391.963	340.807	381.142	320.357	377.536	284.739	112.451	142.933	315.813	264.322	227.062	320.489	389.759	40.857	379.253	231.504	0.00050054	0.0004574	0.00011389	536.15	2.977e-06	6.906e-06	702.95	199.85	2.2301e-06	1.5864e-06	294.64	129.66	87.64	33.519	4.9591e-06	59.248	0.00099209	0.0013506	0.00037879	518.47	1.3405e-05	1.4815e-05	669.73	192.85	1.3731e-05	1.5121e-05	281.64	125.05	85.302	32.616	1.4655e-05	57.46	130.999	137.282	130.074	51.126	195.528	199.558	49.944	55.624	172.653	182.870	53.751	58.047	60.383	64.216	161.134	62.039	-8191	255	
1439.850	1	1	0	0	0.27005	0.31875	0.30881	0.051625	0.3931	0.3329	0.078295	0.33159	0.014482	0.17544	0.1459	0.27382	0.25609	0.15376	0.10893	0.26494	-0.62292	-1.7979	-1.4583	-1.1333	-1.725	-1.1125	-1.6375	-2.0938	-1.0896	-1.8729	-1.6479	-1.2354	-2.125	-1.3146	-1.4688	-1.9396	262.652	360.563	141.460	215.130	180.831	280.243	275.891	387.773	76.994	133.070	348.754	186.790	45.646	382.115	206.737	348.850	0.00043729	0.00043258	0.00016834	538.88	4.5626e-06	3.2208e-06	700.93	200.1	4.3005e-06	3.6978e-06	294.56	131.06	88.3	33.482	4.0797e-06	60.41	0.00097684	0.0013744	0.00039054	519.61	1.4132e-05	1.5372e-05	674.75	194.38	1.369e-05	1.5373e-05	285.34	126.97	86.137	32.964	1.4757e-05	58.558	132.535	142.145	115.957	51.394	181.188	206.305	50.138	55.619	152.408	176.457	53.638	57.534	60.119	63.911	192.644	61.361	-8191	255	
1439.946	1	1	0	0	0.036419	0.089276	0.12851	0.23119	0.06416	0.26742	0.27981	0.049169	0.3417	0.29002	0.15205	0.29177	0.092107	0.25065	0.22141	0.13376	-0.72083	-1.8396	-1.6417	-1.3792	-1.8771	-1.4667	-1.4833	-1.9708	-1.125	-1.7687	-1.7437	-1.3312	-1.8042	-1.3312	-1.3375	-2.1625	378.688	191.933	299.246	46.453	137.815	251.827	269.605	358.232	201.396	272.223	52.292	98.466	55.899	371.299	157.565	41.649	0.00048318	0.00045031	4.3054e-05	546.52	3.4598e-06	5.2043e-06	720.34	204.5	2.6744e-06	3.6198e-06	299.29	132.09	88.756	34.048	3.0144e-06	60.02	0.0010299	0.0013519	0.00039447	525.58	1.4105e-05	1.5645e-05	688.93	196.94	1.405e-05	1.5998e-05	288.64	128.09	86.455	33.29	1.461e-05	58.51	130.945	99.903	144.939	50.668	163.203	167.528	49.812	55.414	168.368	215.936	53.364	57.475	60.396	63.734	183.132	62.021	-8191	255	
1440.042	1	1	0	0	0.08256	0.093028	0.099941	0.073271	0.082904	0.14782	0.41528	0.012354	0.22727	0.2317	0.2092	0.13382	0.092814	0.1698	0.043062	0.32955	-0.47917	-1.525	-1.5938	-1.0646	-1.6812	-1.2333	-1.2875	-2.0854	-0.97083	-1.6187	-1.8729	-1.0042	-1.9146	-1.5187	-1.225	-2.0438	77.042	327.860	262.466	312.258	237.854	362.060	312.258	167.974	222.258	296.750	145.538	374.252	325.036	329.226	316.650	334.536	0.00047152	0.00034805	7.3493e-05	545.25	1.0372e-06	4.3248e-06	704.83	202.38	5.8221e-06	5.7031e-06	294.25	129.73	87.704	33.62	3.0558e-06	58.779	0.0010239	0.0014174	0.00039145	525.18	1.4207e-05	1.589e-05	680.26	195.65	1.3684e-05	1.5131e-05	284.88	126.26	85.822	32.957	1.4502e-05	57.64	137.420	140.957	151.379	50.827	252.054	145.415	50.189	55.511	163.034	187.621	53.654	57.726	60.057	63.832	174.274	61.584	-8191	255	
1440.138	1	1	0	0	0.21012	0.17591	0.13405	0.25911	0.093682	0.24309	0.22709	0.34666	0.22123	0.15692	0.16515	0.1113	0.15693	0.22289	0.076705	0.13647	-0.91458	-1.3646	-1.8125	-1.2021	-1.6208	-1.4021	-1.1437	-1.9833	-1.1417	-1.3188	-1.875	-1.2333	-1.8	-1.7292	-1.0229	-1.8937	358.764	90.659	300.472	320.880	330.797	111.636	351.586	337.521	235.881	275.883	99.269	320.355	42.586	327.340	356.846	88.272	0.0004813	0.00030807	6.9546e-05	541.02	5.5147e-06	2.9732e-06	703.07	202.25	6.3872e-06	3.0153e-06	294.75	130.46	87.902	33.719	7.3332e-06	59.245	0.00103	0.0014494	0.00039181	521.58	1.43e-05	1.5418e-05	678.76	195.86	1.3836e-05	1.507e-05	284.9	126.67	86.136	32.943	1.4809e-05	57.778	126.953	160.403	115.405	50.865	228.319	229.628	49.955	55.226	173.405	111.027	53.482	57.558	60.064	63.600	176.714	61.642	-8191	255	
1440.257	1	1	0	0	0.052045	0.073541	0.096792	0.23401	0.21133	0.20914	0.20133	0.21576	0.29447	0.048274	0.19641	0.21019	0.029345	0.21793	0.27298	0.16781	-0.90208	-1.1521	-1.9375	-1.0396	-1.6187	-1.95	-1.1938	-2.0229	-1.2875	-1.2021	-1.8104	-1.0562	-1.6083	-1.6042	-0.70625	-1.9917	323.725	131.981	362.376	235.395	388.261	198.767	331.373	39.958	378.267	171.020	370.059	39.266	285.209	364.377	305.066	286.739	0.00050049	0.00050992	8.8981e-05	546.6	2.9233e-06	2.2071e-06	707.14	203.6	1.075e-06	5.3921e-06	295.79	131.67	88.03	33.874	6.3266e-06	59.746	0.001053	0.0014309	0.00039209	524.31	1.4242e-05	1.6119e-05	680.88	196.21	1.396e-05	1.5823e-05	286.06	127.35	86.113	32.985	1.4971e-05	58.029	130.136	102.842	120.949	50.976	173.357	189.221	50.081	55.649	198.835	167.168	53.427	58.013	59.686	64.041	198.039	61.931	-8191	255	
1440.353	1	1	0	0	0.26515	0.17223	0.11248	0.11888	0.052385	0.18048	0.089509	0.15477	0.29558	0.20942	0.11942	0.19957	0.098214	0.31679	0.16622	0.22324	-0.9	-1.3083	-1.8813	-1.0812	-1.2792	-1.7875	-1.0688	-1.725	-1.3771	-1.2333	-2.0604	-1.2979	-1.3354	-2.0104	-1.0104	-1.7125	276.717	153.521	370.584	105.046	359.508	236.542	56.676	267.425	124.930	207.643	338.072	317.762	235.551	95.037	201.070	359.129	0.0004776	0.00032638	0.00012372	545.36	4.853e-06	4.7057e-06	705.68	202.69	4.9284e-06	3.411e-06	295.72	130.82	88.546	33.93	4.5923e-06	59.251	0.0010021	0.0013776	0.00039358	526.47	1.4263e-05	1.5265e-05	682.41	196.5	1.3955e-05	1.526e-05	286.79	127.27	86.421	33.111	1.5096e-05	57.921	126.992	141.480	146.250	50.362	209.008	182.401	49.816	55.528	191.506	157.387	53.256	57.311	60.454	63.797	208.522	61.437	-8191	255	
1440.449	1	1	0	0	0.1813	0.29839	0.15423	0.1234	0.22762	0.055665	0.19668	0.044951	0.13968	0.016877	0.14104	0.20503	0.18834	0.17547	0.046487	0.028283	-1.1521	-0.89583	-1.8646	-1.4021	-1.3896	-1.9625	-1.0187	-1.9875	-1.7042	-1.1083	-2.0896	-1.375	-1.3083	-1.9729	-1.2792	-1.7167	301.085	231.272	135.738	369.013	291.123	67.621	294.710	54.884	61.432	385.665	247.090	97.991	346.246	356.293	270.311	64.691	0.00047755	0.00032987	0.00023199	544.66	3.1776e-06	4.4841e-06	701.29	202.8	2.4738e-06	4.7941e-06	293.74	129.92	88.148	33.576	5.0993e-06	58.881	0.0010107	0.0014143	0.0003898	524.12	1.3819e-05	1.5172e-05	677.25	195.95	1.3753e-05	1.5921e-05	283.67	125.89	85.834	32.798	1.4902e-05	57.374	131.785	116.969	125.286	50.315	195.981	177.769	49.921	55.509	198.982	139.866	53.587	57.806	60.141	63.921	167.824	61.983	-8191	255	
1440.546	1	1	0	0	0.058065	0.072964	0.11832	0.30363	0.12134	0.18508	0.21439	0.15207	0.013371	0.063189	0.10166	0.062056	0.10244	0.09056	0.12799	0.27026	-1.1917	-1.2167	-2.025	-1.5021	-1.2188	-1.9312	-1.1313	-1.6854	-1.575	-0.95208	-2.0042	-1.4438	-1.2125	-2.0125	-1.1833	-1.5688	191.795	336.810	272.381	386.263	118.820	189.018	320.993	71.109	237.908	382.436	135.155	351.160	58.008	111.667	52.200	338.405	0.00046517	0.00055657	0.00015133	545.64	5.6288e-06	5.7304e-06	703.52	202.34	4.6082e-06	5.7591e-06	296.65	130.78	88.451	33.635	1.9032e-06	59.447	0.00099691	0.0013812	0.00038651	523.34	1.422e-05	1.5479e-05	677.4	195.86	1.3427e-05	1.5171e-05	285.81	126.52	86.253	33.003	1.4506e-05	57.759	129.310	100.067	114.886	50.978	172.583	201.133	49.920	55.811	166.692	175.332	53.349	57.363	60.493	64.072	193.032	61.784	-8191	255	
1440.642	1	1	0	0	0.20422	0.39126	0.38509	0.092746	0.053409	0.38109	0.23458	0.14012	0.080871	0.14743	0.076456	0.1812	0.42769	0.26398	0.11652	0.38306	-1.4104	-0.9	-1.7812	-1.3854	-1.3521	-1.9521	-1.2271	-1.4083	-1.7687	-1.0604	-2.1333	-1.5833	-1.2417	-2.0187	-1.1417	-1.55	378.800	97.037	69.949	303.628	344.801	380.811	61.776	266.089	243.802	52.552	49.046	368.884	352.451	361.515	241.728	378.796	0.00051383	0.00040734	0.00019161	549.82	3.279e-06	4.3471e-06	712.86	203.49	4.1014e-06	4.3869e-06	301.32	133.03	88.958	34.198	4.8956e-06	60.345	0.00099187	0.0014232	0.00040358	525.1	1.418e-05	1.5563e-05	684.75	197.15	1.381e-05	1.6078e-05	290	128.71	87.058	33.312	1.503e-05	58.885	139.188	118.150	84.842	50.981	203.817	240.385	49.903	55.810	187.666	188.265	53.762	57.578	60.130	64.139	191.910	61.632	-8191	255	
1440.738	1	1	0	0	0.11532	0.040595	0.14924	0.20077	0.28663	0.16273	0.0527	0.28637	0.34899	0.27482	0.40562	0.21998	0.10473	0.16038	0.17721	0.20757	-1.4729	-1.2208	-1.6292	-1.8104	-0.95833	-1.9958	-1.4479	-1.4438	-1.8604	-1.0333	-1.7042	-1.8	-0.94167	-1.9646	-1.3646	-1.3354	131.794	130.423	313.780	351.046	264.232	41.077	262.413	360.247	129.883	98.667	41.250	396.893	336.882	53.978	104.311	353.024	0.00047105	0.00083492	0.00013131	545.97	3.6077e-06	5.1848e-06	723.74	205.76	3.8565e-06	3.9686e-06	305.04	134.18	90.14	34.588	6.0411e-06	60.906	0.0010239	0.0013964	0.00040425	528.11	1.4769e-05	1.618e-05	692.61	198.85	1.4004e-05	1.6012e-05	293.88	130.07	87.839	33.676	1.5841e-05	59.24	132.974	104.908	179.131	50.815	189.643	216.036	49.976	55.382	165.962	163.851	53.553	57.685	60.117	64.299	186.755	61.955	-8191	255	
1440.858	1	1	0	0	0.10564	0.29989	0.17043	0.1792	0.19026	0.058397	0.31273	0.23688	0.054507	0.15461	0.19723	0.22615	0.15314	0.28751	0.16855	0.33762	-1.425	-0.95208	-1.5979	-1.8062	-0.99583	-1.9229	-1.5187	-1.1167	-1.9271	-1.0229	-1.5083	-1.9292	-0.9125	-1.6417	-1.3875	-1.0688	311.990	280.520	329.075	204.747	395.651	209.649	343.814	258.260	321.899	366.069	60.817	290.364	143.437	365.197	184.947	352.280	0.00053202	0.00041916	0.00016489	547.72	3.222e-06	2.9628e-06	721.95	208.3	6.0177e-06	4.9365e-06	301.63	134.05	91.365	34.811	3.8413e-06	61.036	0.0010595	0.0014467	0.00042006	530.54	1.4654e-05	1.6354e-05	692.5	200.58	1.4493e-05	1.6706e-05	292.23	130.55	88.68	33.879	1.5512e-05	59.363	139.062	118.345	103.443	50.937	192.836	191.548	49.914	55.714	187.258	181.391	53.459	57.459	60.138	63.736	198.132	62.046	-8191	255	
1440.953	1	1	0	0	0.19556	0.31052	0.038525	0.13459	0.1008	0.055158	0.43993	0.092252	0.12697	0.058507	0.20388	0.1737	0.16319	0.19798	0.08207	0.22132	-1.6187	-1.2417	-1.225	-2.0312	-0.98958	-1.7125	-1.5208	-1.2333	-1.8563	-1.3188	-1.4438	-2.1604	-1.2604	-1.7792	-1.6375	-1.125	170.302	120.754	217.248	348.774	88.009	259.064	320.684	374.511	356.705	216.921	72.399	310.237	71.371	371.770	42.687	210.879	0.00047122	0.00033909	0.00020784	556.2	4.0409e-06	3.6058e-06	727.79	209.16	3.4534e-06	4.5803e-06	307.01	136.61	92.426	34.825	5.1192e-06	61.879	0.0010623	0.0014573	0.00042943	534.82	1.4773e-05	1.6437e-05	697.53	201.61	1.4832e-05	1.6513e-05	297.2	132.94	89.952	34.055	1.6533e-05	60.245	134.152	104.800	124.171	51.157	197.048	157.298	50.306	55.650	150.117	188.389	53.841	57.752	60.323	64.361	189.634	61.901	-8191	255	
1441.049	1	1	0	0	0.10595	0.12176	0.13169	0.2331	0.058656	0.034355	0.21544	0.35466	0.13987	0.29145	0.31331	0.25769	0.21642	0.22791	0.10883	0.27054	-1.6479	-1.3083	-1.2125	-1.9542	-1.0688	-1.3646	-1.8813	-1.1125	-1.9333	-1.2771	-1.2021	-2.0125	-1.0625	-1.7208	-1.7188	-1.2125	139.725	327.000	166.207	396.159	114.024	314.442	251.691	288.865	236.088	174.949	303.892	48.541	86.058	299.696	63.875	378.365	0.00051609	0.00037828	0.0001296	552.22	6.0569e-06	6.8409e-06	738.43	211.24	4.6122e-06	9.8289e-06	316.62	140.43	93.818	35.478	3.972e-06	63.44	0.0010973	0.0015568	0.00044564	537.42	1.5509e-05	1.7251e-05	709.09	204.49	1.5173e-05	1.753e-05	304.85	136.42	91.906	34.684	1.6379e-05	61.734	136.172	131.898	133.614	50.601	185.421	195.839	50.106	55.673	211.538	171.033	53.655	57.547	60.218	64.158	225.343	61.955	-8191	255	
1441.145	1	1	0	0	0.16035	0.22616	0.16189	0.089836	0.10692	0.11578	0.498	0.33825	0.035165	0.21529	0.12403	0.35457	0.39265	0.15067	0.1332	0.29965	-1.4021	-1.2104	-1.0896	-2.075	-1.0354	-1.3917	-1.7854	-0.99583	-1.6771	-1.4479	-1.1146	-2.0687	-1.3521	-1.5812	-1.8083	-1.1604	50.337	257.775	232.455	134.831	333.622	291.847	299.591	343.520	193.246	162.312	166.555	119.555	270.661	363.170	374.042	263.742	0.00053665	0.0002984	0.00011536	560.07	4.5934e-06	7.0721e-06	750.48	214.6	2.9611e-06	5.7778e-06	319.31	141.99	94.642	35.745	4.313e-06	63.255	0.0011219	0.0015024	0.00044347	541.71	1.5819e-05	1.7585e-05	718.48	207.09	1.5276e-05	1.753e-05	308.2	137.77	92.568	34.845	1.6296e-05	61.859	136.908	86.084	114.840	50.941	205.557	153.873	50.127	55.614	163.649	216.670	53.860	57.094	59.863	63.945	211.458	61.680	-8191	255	
1441.219	1	1	0	0	0.11788	0.206	0.1133	0.11417	0.21406	0.075629	0.23516	0.049382	0.077718	0.26981	0.15805	0.099152	0.20541	0.17324	0.16332	0.29429	-1.3896	-1.5854	-1.0104	-1.8208	-1.0625	-1.2708	-2.1583	-0.85208	-1.5583	-1.5958	-1.1812	-2.0875	-1.1271	-1.2729	-1.775	-1.0604	158.424	198.999	48.907	65.318	215.755	96.820	334.129	70.365	92.365	375.419	340.810	337.331	373.101	289.333	54.933	352.147	0.00047714	0.00042005	0.00015245	563.28	5.4423e-06	2.7988e-06	732.47	213.7	4.8761e-06	7.2148e-06	316.47	140.44	94.816	35.557	6.0407e-06	63.084	0.0010835	0.001567	0.00043647	543.23	1.585e-05	1.7442e-05	711.07	207.07	1.5497e-05	1.7617e-05	306.06	136.9	92.718	34.902	1.6188e-05	61.66	134.550	105.324	150.783	50.705	185.006	256.514	49.584	55.451	183.998	180.567	53.544	57.156	59.533	64.184	166.909	61.336	-8191	255	
1441.337	1	1	0	0	0.14656	0.1831	0.35686	0.11761	0.18239	0.16106	0.099878	0.2828	0.060652	0.064577	0.2307	0.19773	0.088635	0.27713	0.25667	0.16874	-1.1333	-1.7354	-0.90417	-1.8375	-1.3563	-1.4083	-1.9229	-1.2792	-1.3917	-1.7521	-1.1792	-1.8479	-1.6104	-1.1313	-1.9083	-1.3083	96.870	154.305	192.553	280.294	251.899	323.154	295.664	384.605	306.059	390.384	382.750	341.293	348.043	372.727	182.115	260.158	0.00052546	0.00054066	0.00011916	563.72	3.9253e-06	4.0432e-06	740.47	212.93	2.9031e-06	1.8653e-06	316.2	141.4	94.73	35.883	6.1834e-06	63.349	0.0011172	0.0015591	0.00045038	541.68	1.5331e-05	1.757e-05	715.49	206.81	1.5806e-05	1.7453e-05	307.23	137.43	92.438	35.021	1.6279e-05	61.811	132.110	119.079	175.228	50.959	208.185	143.010	49.993	55.626	167.377	207.573	53.573	57.147	60.052	64.032	185.889	61.008	-8191	255	
1441.434	1	1	0	0	0.18988	0.20453	0.11531	0.20936	0.32169	0.27375	0.13624	0.2991	0.056033	0.066703	0.19529	0.19854	0.34177	0.20463	0.070575	0.091053	-0.9875	-1.7354	-0.95417	-1.5604	-1.5917	-1.0292	-2.0812	-1.225	-1.4062	-1.7812	-1.0979	-1.8104	-1.6083	-1.2375	-1.9375	-1.525	210.781	271.066	388.540	378.479	52.854	358.143	290.535	120.062	120.348	377.300	365.925	303.519	389.186	88.010	297.626	213.726	0.00046188	0.00076411	0.00017793	563.18	8.3811e-06	4.4852e-06	751.47	214.75	4.2734e-06	7.3628e-06	323.06	141.93	95.099	35.805	5.6037e-06	63.27	0.0011185	0.001578	0.00044707	544.17	1.5685e-05	1.7975e-05	722.28	207.66	1.5636e-05	1.7459e-05	310.29	138.26	92.701	35.045	1.6858e-05	62.161	135.281	145.537	121.966	51.196	192.787	187.666	49.733	55.437	186.096	194.304	53.610	57.626	59.929	63.895	167.451	61.333	-8191	255	
1441.530	1	1	0	0	0.32601	0.13649	0.21857	0.28274	0.11216	0.36931	0.33217	0.051082	0.3359	0.048333	0.19757	0.20262	0.090676	0.12783	0.25944	0.049981	-0.76667	-1.9333	-0.88542	-1.8708	-1.6625	-1.0833	-2.0479	-1.5167	-1.1375	-1.9896	-1.2083	-1.7521	-1.7979	-1.2708	-1.8417	-1.2771	244.988	373.205	348.285	349.880	51.841	42.579	396.675	333.205	133.604	337.279	285.110	367.013	92.540	219.319	279.169	152.532	0.00054674	0.00043845	0.00015142	564.63	3.4976e-06	8.4462e-06	746.4	213.74	1.4436e-06	5.9124e-06	318.52	142.19	95.065	35.296	6.9884e-06	63.31	0.0011256	0.0015663	0.000444	546.84	1.6209e-05	1.8082e-05	723.2	207.74	1.556e-05	1.742e-05	309.66	138.59	93.048	34.698	1.6602e-05	61.88	131.306	157.341	131.356	50.761	168.129	215.310	49.634	55.193	88.113	181.219	53.344	57.293	59.829	63.986	192.440	61.471	-8191	255	
1441.650	1	1	0	0	0.33863	0.15539	0.33539	0.010524	0.15966	0.045645	0.10657	0.1355	0.039304	0.14021	0.26482	0.14551	0.089077	0.051195	0.18731	0.18722	-0.75833	-1.8542	-1.1146	-1.4771	-1.7687	-1.0146	-1.9125	-1.4583	-1.1375	-1.7667	-1.5979	-1.4792	-1.8396	-0.95	-1.6542	-1.7542	303.579	176.502	68.824	190.396	376.811	280.747	68.621	113.085	227.291	240.801	258.383	323.764	184.367	335.580	188.765	49.543	0.00046824	0.00061042	4.6363e-05	563.87	3.6371e-06	4.6529e-06	741.97	214.02	2.9736e-06	4.857e-06	316.91	140.94	94.542	35.396	6.9812e-06	62.781	0.0011326	0.0015484	0.00043296	545.65	1.5705e-05	1.8042e-05	716.9	207.02	1.5635e-05	1.7319e-05	306.82	137.52	92.489	34.545	1.6832e-05	61.361	129.485	129.416	77.614	51.048	173.438	193.482	50.240	55.420	170.009	235.933	53.393	57.740	59.855	64.073	186.043	61.613	-8191	255	
1441.747	1	1	0	0	0.30397	0.045601	0.088781	0.19042	0.16807	0.092704	0.13971	0.1254	0.29501	0.16579	0.26475	0.18698	0.095091	0.1329	0.19786	0.072087	-0.86667	-1.7188	-1.25	-1.3646	-1.8896	-0.92292	-1.8375	-1.7875	-1.1083	-2.0729	-1.4396	-1.3146	-1.9771	-1.0208	-1.5229	-1.8438	333.677	242.517	196.186	345.031	258.129	102.090	372.613	188.508	353.309	355.071	353.793	363.080	329.210	63.157	80.851	143.329	0.00053145	0.00071635	0.00014058	558.86	3.779e-06	3.9335e-06	737.34	212.09	3.1814e-06	4.176e-06	316.35	141.06	93.966	34.735	5.5752e-06	62.391	0.0011292	0.0015464	0.00043592	543.64	1.5736e-05	1.7576e-05	714.71	206.29	1.5669e-05	1.7404e-05	307.62	137.45	92.078	34.388	1.6787e-05	61.254	131.581	143.845	197.876	50.726	168.228	173.709	49.778	55.362	212.092	185.026	53.422	57.498	59.956	64.125	185.153	61.620	-8191	255	
1441.818	1	1	0	0	0.306	0.2043	0.25788	0.13216	0.30428	0.020508	0.13026	0.21127	0.13016	0.31575	0.18426	0.079516	0.3477	0.12728	0.165	0.27948	-0.57708	-1.8458	-1.275	-1.2354	-1.8271	-0.91042	-1.6396	-2.0187	-1.0438	-1.9396	-1.4625	-1.1229	-1.9146	-1.2188	-1.4771	-1.8271	275.614	101.037	87.065	70.492	242.601	299.787	176.203	319.156	348.071	278.949	311.120	352.477	311.910	233.823	379.579	355.600	0.00050501	0.00052083	6.6343e-05	559.99	4.0183e-06	7.1897e-06	754.11	214.5	5.3304e-06	6.0497e-06	323.04	142.3	95.22	35.501	3.0856e-06	63.798	0.0011169	0.0015609	0.00044342	543.49	1.5326e-05	1.8256e-05	723.77	207.37	1.5248e-05	1.7733e-05	310.46	138.36	92.712	34.645	1.686e-05	61.956	132.484	171.010	123.141	51.330	178.943	212.068	50.005	55.512	219.990	176.240	53.631	57.630	60.001	64.379	218.108	61.544	-8191	255	
1441.939	1	1	0	0	0.24325	0.21317	0.19849	0.39592	0.24521	0.30164	0.33455	0.33512	0.14394	0.19621	0.31146	0.28065	0.066346	0.26908	0.14003	0.10494	-0.61458	-1.7958	-1.4021	-1.0667	-1.9771	-1.0667	-1.5688	-2.025	-0.90208	-1.775	-1.6833	-1.1479	-1.8333	-1.1604	-1.425	-1.9479	320.978	279.781	70.518	86.127	362.185	317.948	339.221	60.313	359.299	129.694	159.402	377.781	226.053	362.128	261.833	51.719	0.00052381	0.00076471	0.00014285	561.44	5.824e-06	4.5719e-06	753.42	214.34	4.2652e-06	4.4773e-06	319.73	141.5	93.689	35.277	5.693e-06	62.665	0.0011455	0.001582	0.00043717	546.25	1.6632e-05	1.8448e-05	726.46	208.24	1.6003e-05	1.7305e-05	309.56	137.73	92.084	34.59	1.7301e-05	61.429	137.368	112.984	148.433	51.292	178.438	185.743	50.116	55.627	184.430	201.400	53.715	57.706	59.740	63.865	196.661	61.589	-8191	255	
1442.033	1	1	0	0	0.21944	0.20645	0.012036	0.093558	0.25293	0.22059	0.029842	0.15687	0.14562	0.055572	0.17927	0.15847	0.19929	0.19859	0.091065	0.14814	-0.72708	-1.5854	-1.5812	-1.0333	-1.6646	-1.1854	-1.4562	-1.875	-0.88542	-1.6271	-1.7083	-1.2313	-1.8396	-1.4146	-1.2646	-1.8417	79.270	185.551	127.269	302.605	314.193	85.809	138.747	245.551	374.701	80.932	280.586	60.324	328.542	135.224	164.753	259.977	0.00054199	0.00049202	4.7844e-05	566.24	3.8656e-06	3.3436e-06	741.96	213.13	2.7354e-06	3.9046e-06	317.14	140.81	94.486	35.532	3.1129e-06	63.234	0.0011196	0.0015708	0.00043605	545.27	1.6454e-05	1.7394e-05	716.27	206.67	1.5187e-05	1.7435e-05	306.43	136.47	91.9	34.6	1.6495e-05	61.332	136.110	116.888	179.395	50.618	176.800	214.700	49.736	55.340	226.517	199.737	53.682	57.732	60.429	64.363	202.448	61.829	-8191	255	
1442.131	1	1	0	0	0.11403	0.053365	0.25014	0.20127	0.086117	0.22272	0.18098	0.13182	0.10186	0.10919	0.10347	0.072534	0.13348	0.18105	0.082737	0.17429	-0.76875	-1.6417	-1.6458	-1.0958	-1.8	-1.4083	-1.0771	-1.9813	-0.9375	-1.475	-1.8667	-1.0875	-1.7458	-1.4854	-1.0063	-1.8042	347.533	174.385	104.691	397.046	71.494	216.126	366.872	343.969	210.733	69.754	297.577	215.157	181.018	339.045	170.260	175.119	0.00051281	0.0003902	0.00013537	567.06	4.5513e-06	7.4513e-06	751.22	212.94	4.6837e-06	6.8777e-06	316.91	140.37	93.181	34.847	6.3216e-06	63.281	0.0011124	0.0015771	0.00044034	543.89	1.5907e-05	1.8215e-05	719.1	206.43	1.5703e-05	1.7843e-05	307.3	136.79	91.711	34.379	1.6915e-05	61.284	133.941	93.514	129.757	51.378	183.077	203.921	50.169	55.814	203.732	184.253	53.810	57.861	60.305	63.940	187.303	62.118	-8191	255	
1442.250	1	1	0	0	0.28208	0.2085	0.16287	0.27	0.17962	0.30972	0.23027	0.14943	0.063938	0.17805	0.29435	0.15045	0.3897	0.10026	0.26268	0.098466	-1.0312	-1.2437	-1.8667	-0.87083	-1.7313	-1.65	-1.4188	-1.9521	-1.1958	-1.2646	-1.9083	-1.2	-1.6771	-1.5771	-1.0458	-2.1042	205.314	38.843	232.785	245.684	297.232	75.041	56.507	320.435	329.898	237.738	377.808	369.269	291.352	221.763	123.855	125.401	0.00048809	0.00020821	5.0057e-05	567.3	3.7023e-06	6.9356e-06	748.67	214.07	3.2977e-06	6.3203e-06	320.33	142.17	93.953	35.087	2.2002e-06	62.8	0.00111	0.0015999	0.00044329	545.45	1.5744e-05	1.7305e-05	720.19	206.85	1.5737e-05	1.7831e-05	308.27	136.75	91.533	34.488	1.6926e-05	61.468	131.528	121.993	127.023	51.164	237.633	176.157	50.192	55.735	187.196	212.125	54.103	58.087	60.523	64.215	188.812	61.832	-8191	255	
1442.346	1	1	0	0	0.057449	0.1334	0.17899	0.086882	0.29031	0.03226	0.23658	0.068168	0.14503	0.15065	0.13234	0.23883	0.078302	0.15498	0.12649	0.1795	-0.93125	-1.1917	-2.0625	-1.0604	-1.3604	-1.9125	-1.0104	-1.8354	-1.3312	-1.0271	-2.1979	-1.2687	-1.6083	-1.7667	-1.1125	-1.7729	373.665	340.708	390.224	282.270	281.621	319.007	330.120	387.251	217.919	178.196	157.184	38.800	395.874	338.259	128.721	382.278	0.0005364	0.00038849	0.00010441	568.01	4.4948e-06	2.0018e-06	751.05	215.5	2.4066e-06	4.8687e-06	316.04	139.19	93.459	35.351	2.1489e-06	62.094	0.0011111	0.0015514	0.0004312	544.84	1.5672e-05	1.7049e-05	718.32	206.77	1.4889e-05	1.7325e-05	304.07	134.21	90.661	34.348	1.6017e-05	60.467	129.209	119.536	117.429	50.996	159.904	186.016	50.299	55.726	211.138	102.915	54.205	57.945	60.396	64.328	184.746	62.331	-8191	255	
1442.418	1	1	0	0	0.26966	0.20115	0.094873	0.16374	0.30992	0.10386	0.21436	0.24841	0.18155	0.16243	0.2648	0.41312	0.26185	0.22312	0.16736	0.19328	-1.1125	-1.1354	-1.7	-1.1396	-1.3958	-1.7417	-1.2354	-1.7083	-1.6833	-1.0375	-2.1104	-1.3	-1.3125	-1.9396	-0.92917	-1.9479	167.493	38.796	236.254	83.600	304.330	314.216	328.720	337.819	73.460	295.823	275.481	366.983	294.632	365.287	143.674	325.378	0.00053891	0.00030356	0.00018057	564.36	4.737e-06	3.2169e-06	740.03	212.41	2.4194e-06	7.4908e-06	311.24	136.74	92.284	35.298	2.3186e-06	62.327	0.001074	0.0015109	0.00042624	540.58	1.528e-05	1.6486e-05	706.87	203.86	1.4563e-05	1.6665e-05	298.91	131.81	89.466	34.251	1.5958e-05	60.316	131.662	145.298	126.107	50.958	166.112	199.475	49.951	55.983	144.493	195.492	54.154	57.997	60.549	64.403	191.058	62.510	-8191	255	
1442.538	1	1	0	0	0.29497	0.11405	0.062472	0.149	0.1818	0.17202	0.1359	0.11296	0.20069	0.20915	0.054342	0.10421	0.11229	0.27228	0.062577	0.2082	-1.1833	-1.0125	-1.8875	-1.1562	-1.2125	-1.8396	-1.1979	-1.8896	-1.7875	-0.9625	-1.9771	-1.3083	-1.2437	-1.8062	-1.0021	-1.7646	327.673	208.144	340.150	148.623	153.105	311.804	348.358	284.683	383.656	142.390	334.993	384.493	244.607	258.868	234.893	289.438	0.00053824	0.00033397	0.00011714	562.93	6.2464e-06	1.1618e-06	733.19	210.7	3.152e-06	5.4035e-06	310.25	135.38	92.177	35.441	3.5472e-06	62.603	0.0010785	0.0014523	0.0004207	537.56	1.5223e-05	1.6349e-05	702.64	202.5	1.4432e-05	1.6399e-05	297.79	130.9	88.88	34.412	1.5032e-05	60.549	132.521	92.376	143.816	51.099	167.398	274.238	50.280	56.438	144.569	167.805	54.320	57.794	60.395	64.721	191.079	62.111	-8191	255	
1442.635	1	1	0	0	0.14073	0.33051	0.017047	0.13715	0.2412	0.14004	0.24034	0.14705	0.29658	0.17211	0.21777	0.38277	0.18396	0.11573	0.27875	0.1077	-1.3813	-0.88333	-1.8917	-1.5312	-1.15	-1.9	-1.0688	-1.4792	-1.6104	-0.89375	-2.1437	-1.4208	-1.1479	-2.1604	-0.93125	-1.4604	117.981	290.327	153.224	375.272	149.289	82.173	278.808	340.403	40.573	245.958	251.863	358.220	333.958	373.019	291.984	301.651	0.00051555	0.00064665	0.0001153	564.77	2.6556e-06	7.9221e-06	742.73	210.84	6.2249e-06	6.237e-06	311.9	136.43	92.105	35.728	2.4488e-06	63.328	0.0010579	0.0014636	0.00041065	539.96	1.5045e-05	1.5969e-05	708.7	203.21	1.4274e-05	1.6722e-05	299.52	131.78	89.037	34.688	1.5981e-05	61.172	135.611	97.293	151.757	50.996	214.760	176.301	50.301	56.099	190.485	202.420	54.124	58.029	60.912	64.282	163.726	62.581	-8191	255	
1442.731	1	1	0	0	0.13759	0.14339	0.57113	0.24845	0.37306	0.12634	0.107	0.17107	0.18973	0.23367	0.36734	0.48408	0.29222	0.22191	0.071223	0.21044	-1.4042	-0.96875	-1.8438	-1.6208	-0.99583	-1.9146	-1.2771	-1.2771	-1.9021	-1.0729	-1.7375	-1.7125	-0.99375	-1.7604	-1.375	-1.4271	194.991	125.008	131.902	355.630	262.256	53.763	281.106	358.509	55.200	109.697	379.886	367.341	336.302	41.006	61.297	42.701	0.00052266	0.00041364	0.00010706	565.85	3.4326e-06	3.6429e-06	740.48	212.39	2.1546e-06	4.3911e-06	312.9	136.31	91.554	35.795	2.1193e-06	62.922	0.0010508	0.0014802	0.00039997	539.92	1.4258e-05	1.6455e-05	709.45	203.72	1.4385e-05	1.6623e-05	299.16	131.56	88.892	34.573	1.5603e-05	60.633	134.568	93.116	136.738	51.137	195.886	153.921	50.093	56.200	184.696	187.890	54.013	57.702	60.457	64.561	230.439	62.349	-8191	255	
1442.827	1	1	0	0	0.17468	0.12924	0.066298	0.098198	0.23232	0.054634	0.37983	0.087098	0.048482	0.25212	0.36895	0.23343	0.24452	0.22271	0.14654	0.22028	-1.55	-1.1063	-1.6083	-1.8917	-1.1104	-1.9792	-1.4625	-1.2708	-1.8438	-1.1604	-1.7292	-1.65	-1.175	-1.7563	-1.4521	-1.2375	204.753	97.668	147.070	376.492	276.672	206.204	337.506	383.521	198.930	379.250	310.731	51.675	371.315	369.834	303.352	395.582	0.00050885	0.00037104	0.00015067	562.1	3.2164e-06	5.6213e-07	729.59	209.64	7.5033e-06	3.1628e-06	305.95	132.91	89.996	34.746	3.5664e-06	60.525	0.0010485	0.0014837	0.00040674	538.29	1.476e-05	1.5993e-05	697.28	200.99	1.3851e-05	1.6489e-05	292.09	128.13	87.228	33.525	1.5637e-05	58.616	130.047	81.314	148.370	51.522	155.312	159.208	50.037	55.826	163.311	184.166	54.247	58.141	60.461	64.624	130.921	62.347	-8191	255	
1442.923	1	1	0	0	0.34521	0.20788	0.28947	0.14099	0.18753	0.30396	0.3004	0.079088	0.13316	0.13901	0.17021	0.45701	0.038326	0.027003	0.13252	0.2577	-1.5063	-1.0979	-1.4042	-1.9479	-1.0333	-1.9229	-1.5271	-1.3312	-1.8563	-1.2687	-1.4875	-1.8833	-1.1938	-1.9771	-1.4729	-1.0938	340.847	358.571	352.337	382.662	45.276	186.490	261.815	302.726	381.393	210.751	373.646	382.287	392.867	103.594	387.967	327.309	0.00045293	0.00076581	0.00013928	554.6	5.4325e-06	1.2288e-06	723.74	205.99	5.5222e-06	3.6721e-06	297.89	130.75	88.534	34.133	4.6385e-06	59.808	0.0010393	0.0014849	0.0004075	530.83	1.4983e-05	1.5941e-05	689.99	198.26	1.4492e-05	1.6611e-05	288.6	126.62	86.168	33.007	1.5199e-05	57.815	129.451	121.776	153.335	51.154	203.800	182.457	50.127	56.050	164.079	209.443	54.132	58.080	60.815	64.649	237.284	62.240	-8191	255	
1443.042	1	1	0	0	0.22337	0.13496	0.23371	0.19963	0.15469	0.22246	0.023572	0.21138	0.16711	0.14641	0.097062	0.19859	0.069842	0.24314	0.10227	0.41727	-1.6458	-1.1479	-1.1875	-1.9646	-0.97917	-1.7146	-1.8563	-0.94167	-1.9312	-1.3417	-1.3	-1.6812	-1.1917	-1.6208	-1.7521	-1.1729	221.323	349.616	251.491	50.155	145.406	89.754	165.209	384.127	177.509	125.425	62.918	38.007	316.915	328.678	273.360	38.449	0.00044973	0.00040645	8.0083e-05	554.4	5.477e-06	5.5463e-06	723.02	205.04	5.8664e-06	3.5265e-06	298.96	131.69	89.217	33.589	3.9411e-06	58.998	0.0010132	0.001481	0.00039729	531.89	1.4909e-05	1.5714e-05	691.52	196.63	1.3867e-05	1.6539e-05	287.54	126.25	85.629	32.527	1.4967e-05	57.235	131.297	147.835	85.075	51.346	191.333	206.042	50.580	55.845	196.504	213.374	54.126	58.210	60.480	64.626	189.518	62.044	-8191	255	
1443.114	1	1	0	0	0.27809	0.019851	0.11094	0.26535	0.31478	0.26022	0.17647	0.21108	0.17466	0.2699	0.14636	0.43392	0.074419	0.27772	0.11278	0.14899	-1.3687	-1.2062	-0.94583	-2.0979	-1.0292	-1.5312	-1.7938	-1.0438	-1.9312	-1.5354	-1.1896	-2.025	-1.1187	-1.3125	-1.9208	-1.0083	239.372	124.559	220.488	383.117	69.416	228.189	368.546	385.423	150.728	108.136	314.139	357.597	76.018	368.703	367.775	332.268	0.00050499	0.00058533	0.00010116	553.19	3.9953e-06	5.6874e-06	717.65	202.99	6.0421e-06	4.5594e-06	294.9	127.22	86.363	33.06	6.196e-06	57.541	0.0010184	0.0013925	0.00040993	529.05	1.387e-05	1.5988e-05	683.01	195.22	1.3898e-05	1.5507e-05	282.67	123.4	84.003	31.866	1.3983e-05	55.68	133.410	150.715	150.447	51.226	184.430	199.186	49.986	56.168	174.431	190.139	54.236	58.171	60.323	64.576	198.679	62.271	-8191	255	
1443.212	1	1	0	0	0.13346	0.11306	0.13979	0.046063	0.15791	0.12475	0.18213	0.20627	0.060937	0.11	0.070221	0.080012	0.16377	0.23608	0.23578	0.18772	-1.4562	-1.4125	-1.0438	-1.8729	-1.1396	-1.4062	-2.0729	-1.1667	-1.7	-1.6292	-1.1229	-2.1125	-1.2125	-1.425	-1.8417	-1.2667	233.158	369.673	363.250	330.700	106.044	100.475	366.954	161.969	331.396	162.038	355.871	337.307	95.700	235.512	368.203	46.016	0.00043957	0.00042521	0.00014046	548.46	4.7825e-06	3.934e-06	694.5	199.58	4.3357e-06	5.6891e-06	285.41	124.2	85.098	32.184	8.5166e-06	56.514	0.00097962	0.0013105	0.00038703	522.96	1.3683e-05	1.5192e-05	665.45	190.86	1.3258e-05	1.5361e-05	273.53	119.95	82.339	31.161	1.4021e-05	54.493	136.076	114.711	82.222	51.125	165.838	198.870	49.982	55.995	207.409	210.027	54.005	58.107	60.463	64.794	206.959	62.196	-8191	255	
1443.330	1	1	0	0	0.18281	0.21435	0.17582	0.058203	0.10268	0.080982	0.17529	0.15475	0.092813	0.14953	0.3613	0.11866	0.24148	0.26238	0.1717	0.1634	-1.0812	-1.4958	-0.85625	-1.9937	-1.2583	-1.35	-2.0979	-1.1479	-1.5438	-1.6375	-1.0417	-2	-1.2771	-1.2146	-1.8583	-1.2875	259.948	79.013	228.437	353.183	363.127	252.433	267.668	293.959	230.458	346.482	48.061	318.455	260.433	57.989	358.618	350.264	0.00046875	0.00046796	0.00015493	542.1	5.2602e-06	5.2004e-06	694.08	198.18	2.6085e-06	6.6096e-06	289.05	125.09	85.447	32.402	6.5004e-06	56.552	0.00094637	0.0013163	0.00037777	518.01	1.3544e-05	1.4988e-05	664.28	189.86	1.3264e-05	1.5196e-05	275.51	120.78	82.422	31.347	1.4358e-05	54.813	127.715	148.474	92.708	51.335	164.534	185.471	50.052	56.014	182.897	196.695	53.815	58.099	60.078	64.724	197.413	62.250	-8191	255	
1443.427	1	1	0	0	0.014125	0.2601	0.041485	0.3223	0.13099	0.14965	0.07296	0.09294	0.19979	0.12249	0.0076345	0.3082	0.26775	0.10412	0.18706	0.21142	-1.0312	-1.7104	-1.0125	-2.0438	-1.525	-0.97708	-2.0354	-1.2354	-1.3708	-1.7521	-1.0396	-1.8271	-1.45	-1.2333	-1.9292	-1.4625	397.264	337.464	51.858	353.609	188.536	137.961	351.535	76.233	147.406	280.680	129.686	303.695	381.442	327.728	134.254	363.748	0.00044551	0.00074915	0.00016563	541.03	3.8452e-06	3.1777e-06	700.86	197.94	4.8132e-06	7.0891e-06	289.65	126.15	84.666	32.697	4.4364e-06	57.738	0.0009589	0.0013547	0.00037838	521.08	1.3763e-05	1.5373e-05	669.31	190.19	1.3378e-05	1.5016e-05	278.28	121.81	82.379	31.602	1.4637e-05	55.857	134.342	141.461	107.909	51.418	164.744	209.398	50.592	55.883	178.077	182.729	54.138	58.176	60.851	64.713	151.264	62.250	-8191	255	
1443.523	1	1	0	0	0.29459	0.22725	0.22892	0.21078	0.069207	0.23629	0.16459	0.23179	0.20816	0.12211	0.35738	0.23945	0.18025	0.18664	0.10164	0.1742	-0.9125	-1.8167	-1.1667	-1.775	-1.6313	-1.0667	-2.0208	-1.3729	-1.2604	-1.9146	-1.1708	-1.7479	-1.6125	-1.2083	-2.075	-1.2896	378.520	162.646	265.979	310.205	324.683	227.417	233.246	251.584	166.044	197.982	361.677	383.963	63.451	331.561	146.095	313.177	0.0004846	0.00051826	0.00015517	547.45	4.5216e-06	6.3556e-06	714.65	199.83	6.7941e-06	6.2237e-06	292.09	127.31	86.621	33.121	4.6696e-06	57.611	0.0010021	0.0013766	0.0003937	523.67	1.3915e-05	1.5719e-05	678.37	192.17	1.3587e-05	1.5461e-05	280.53	123.01	83.68	31.991	1.4875e-05	55.969	137.151	93.491	140.769	51.311	168.902	171.399	50.477	55.832	176.598	119.784	54.175	57.880	60.430	64.485	221.241	62.059	-8191	255	
1443.619	1	1	0	0	0.306	0.029266	0.15017	0.11443	0.16131	0.17024	0.12336	0.34893	0.090108	0.19091	0.20871	0.20204	0.049931	0.20989	0.23174	0.31909	-0.73542	-1.9813	-1.0604	-1.5479	-1.7229	-0.94792	-1.9813	-1.4604	-1.0688	-2.0687	-1.3646	-1.5354	-1.8042	-0.98333	-1.8292	-1.5771	283.182	390.881	371.335	98.037	129.043	255.286	340.617	368.839	56.641	201.766	354.158	353.571	44.039	100.296	159.152	317.157	0.00046694	0.00065439	0.00015754	547.51	3.7969e-06	5.6715e-06	702.86	198.55	3.5723e-06	3.273e-06	290.33	127.76	86.313	32.891	3.8996e-06	57.352	0.0010016	0.0014108	0.00038932	524.26	1.3821e-05	1.5756e-05	671.27	191.3	1.4284e-05	1.5625e-05	279.32	122.73	83.293	31.716	1.4471e-05	55.598	132.767	107.963	122.833	51.174	184.176	206.254	50.337	56.070	189.145	157.538	54.061	58.173	60.218	64.489	180.175	61.987	-8191	255	
1443.715	1	1	0	0	0.077448	0.12777	0.24899	0.30646	0.086408	0.089781	0.25442	0.1049	0.22104	0.26098	0.41351	0.2757	0.25964	0.26612	0.23094	0.35237	-0.725	-1.8979	-1.0312	-1.4146	-1.9792	-0.91042	-1.9062	-1.9292	-0.88125	-1.85	-1.3583	-1.3958	-1.9104	-1.1417	-1.725	-1.6313	219.073	264.798	299.816	320.892	255.771	204.022	275.597	361.554	104.752	301.657	337.924	365.987	291.209	369.815	275.780	396.324	0.00039546	0.00035982	0.00010236	546.67	3.348e-06	3.9627e-06	703.35	199.05	4.3791e-06	8.1535e-06	291.61	127.81	85.716	32.618	4.5804e-06	57.29	0.00098969	0.0013602	0.00040384	523.36	1.342e-05	1.5835e-05	672.44	192.04	1.4057e-05	1.5818e-05	279.09	123.22	83.541	31.544	1.4814e-05	55.569	140.407	129.628	135.412	51.441	139.991	171.326	50.471	55.955	159.652	203.336	53.956	57.867	60.553	64.652	195.362	62.202	-8191	255	
1443.811	1	1	0	0	0.076415	0.03976	0.2117	0.29563	0.062193	0.14868	0.18399	0.052189	0.059421	0.218	0.11109	0.23156	0.2021	0.2734	0.059653	0.21845	-0.80833	-1.8417	-1.3708	-1.1917	-1.875	-1.1271	-1.6042	-1.6938	-1.2042	-2.0583	-1.2875	-1.3167	-1.7812	-1.0646	-1.4583	-1.9125	127.756	355.174	163.391	267.123	286.071	305.601	300.801	294.786	331.678	275.293	333.368	367.776	236.698	381.146	67.876	334.062	0.00049967	0.00042153	0.000102	548.75	1.038e-06	6.5598e-06	708.53	199.44	3.5506e-06	3.7536e-06	290.95	128.02	86.457	32.353	7.2174e-06	57.094	0.0010088	0.0013701	0.00039904	523.29	1.4144e-05	1.6156e-05	677.74	192.09	1.4062e-05	1.5134e-05	280.42	123.43	83.422	31.446	1.4582e-05	55.604	138.312	114.027	124.156	51.353	171.212	202.807	50.386	55.792	193.013	160.949	53.925	58.201	61.099	64.866	156.028	62.236	-8191	255	
1443.932	1	1	0	0	0.16871	0.21501	0.34849	0.23066	0.26401	0.20147	0.16965	0.10579	0.10194	0.18294	0.23368	0.13993	0.26125	0.013208	0.067074	0.12747	-0.52292	-1.8729	-1.3292	-1.1625	-1.7646	-1.1771	-1.4625	-1.6313	-0.95208	-1.5667	-1.4229	-1.3438	-1.8646	-1.0896	-1.3125	-1.7563	60.070	225.475	83.587	310.027	272.631	124.087	100.731	346.262	213.958	367.078	363.147	376.392	358.196	391.351	179.559	61.466	0.00050307	0.00052589	0.00012945	544.88	4.6584e-06	4.8083e-06	704.94	198.41	4.5897e-06	1.4748e-06	290.02	125.81	85.251	31.933	3.7444e-06	56.285	0.0010079	0.0013661	0.00039334	524.81	1.3847e-05	1.5538e-05	672.05	191.26	1.3453e-05	1.4963e-05	277.16	121.63	82.491	31.109	1.4705e-05	54.696	129.694	102.751	115.987	51.251	157.059	222.807	50.553	55.912	199.193	169.330	54.127	58.291	60.672	64.422	165.865	62.182	-8191	255	
1444.026	1	1	0	0	0.23327	0.40518	0.13042	0.056542	0.036848	0.065189	0.05755	0.34939	0.19732	0.10014	0.23728	0.20493	0.31726	0.30998	0.20317	0.45734	-0.49792	-1.825	-1.4604	-1.2354	-1.9271	-1.3104	-1.4896	-1.9958	-0.99375	-1.6042	-1.7167	-1.2229	-1.8396	-1.3667	-1.1125	-1.9521	81.996	328.600	350.381	79.599	191.097	330.301	344.710	314.351	277.163	243.177	332.536	390.371	58.764	308.501	342.146	363.131	0.00044681	0.0005602	0.00010274	538.41	2.6511e-06	5.1936e-06	685.54	195.62	2.3644e-06	1.0646e-05	281.99	123.37	83.216	31.567	5.5074e-06	55.711	0.000989	0.0013409	0.00037338	516.62	1.3914e-05	1.513e-05	657.54	188.03	1.3386e-05	1.511e-05	271.34	118.75	80.933	30.501	1.4189e-05	53.719	135.955	164.822	196.684	51.539	177.848	172.688	50.696	55.897	204.271	207.542	53.808	58.237	60.515	64.480	196.745	61.982	-8191	255	
1444.122	1	1	0	0	0.25444	0.26215	0.3573	0.10955	0.062287	0.080726	0.11059	0.21536	0.2158	0.15747	0.18777	0.30637	0.13165	0.11518	0.086168	0.26036	-0.71042	-1.5333	-1.7375	-0.87917	-1.8542	-1.3292	-1.2062	-2.0896	-0.92917	-1.5333	-1.9188	-1.1625	-1.8542	-1.55	-1.1396	-2.0146	161.597	283.632	249.585	45.761	93.763	274.644	266.566	118.964	322.938	46.352	153.914	214.060	265.923	90.276	273.567	389.409	0.00044441	0.00032946	0.00010104	534.78	3.0049e-06	4.8105e-06	687.67	194.46	4.296e-06	2.0387e-06	284.92	123.84	82.983	31.337	2.7498e-06	55.428	0.00097384	0.0013126	0.0003656	513.43	1.3134e-05	1.5043e-05	657.68	187.34	1.3345e-05	1.5016e-05	271.89	119.19	80.757	30.418	1.4006e-05	53.615	134.838	68.009	126.296	51.086	214.300	214.247	50.339	55.755	180.999	196.323	53.558	58.294	60.346	64.879	192.656	62.259	-8191	255	
1444.218	1	1	0	0	0.14521	0.16206	0.16819	0.48555	0.23158	0.21325	0.23951	0.18265	0.18824	0.074247	0.18322	0.29608	0.24256	0.17105	0.25699	0.23075	-0.6125	-1.5104	-1.7125	-1.0667	-1.8979	-1.3521	-1.2542	-1.9292	-1.2	-1.5458	-2.0687	-1.0979	-1.6021	-1.7729	-0.97083	-2.0646	120.990	302.284	176.652	361.188	343.081	65.682	397.194	391.539	214.263	242.069	303.021	334.229	380.149	108.733	287.515	321.266	0.00046644	0.00043308	0.0001651	540.19	4.2571e-06	4.9491e-06	685.17	193.74	4.0939e-06	5.8165e-06	280.14	122.36	81.438	30.406	6.8794e-06	54.12	0.00096885	0.0012945	0.00037622	514.73	1.3063e-05	1.4351e-05	654.91	185.62	1.2746e-05	1.4448e-05	268.03	117.55	79.503	29.568	1.363e-05	52.313	131.831	144.721	105.473	51.173	167.789	231.081	50.240	56.149	187.730	214.197	54.004	58.225	60.386	64.456	201.450	62.123	-8191	255	
1444.339	1	1	0	0	0.25881	0.16635	0.34943	0.41449	0.13988	0.3873	0.32195	0.073819	0.053455	0.20298	0.14321	0.24297	0.14414	0.22499	0.14994	0.19978	-0.7625	-1.3687	-1.7479	-1.0979	-1.8625	-1.6479	-1.1458	-2.0521	-1.1417	-1.0875	-1.9125	-1.1583	-1.6104	-1.9021	-1.3083	-1.9271	285.914	208.197	191.060	372.062	83.622	188.284	322.547	77.534	370.828	168.888	333.973	328.543	314.941	373.558	239.265	349.880	0.0004105	0.00025224	0.00015904	531.81	2.1124e-06	1.7478e-06	676.59	190.47	4.488e-06	1.0811e-05	272.87	118.3	80.696	29.946	2.5535e-06	53.028	0.00094569	0.0012761	0.00034737	510.15	1.2839e-05	1.3901e-05	646.2	182.79	1.243e-05	1.4243e-05	262.02	114.24	78.297	29.052	1.294e-05	51.136	135.349	90.987	121.478	51.106	168.431	160.937	50.237	56.196	156.886	205.909	53.732	58.001	60.778	64.607	212.963	62.372	-8191	255	
1444.411	1	1	0	0	0.10304	0.074347	0.25587	0.16897	0.17649	0.12988	0.09702	0.27333	0.069016	0.097798	0.37503	0.20144	0.17991	0.33356	0.12068	0.24241	-0.99375	-1.0333	-2	-1.0688	-1.5458	-1.775	-1.0104	-1.6833	-1.4542	-1.1771	-1.975	-1.3896	-1.3792	-1.8937	-0.99167	-1.8333	391.937	324.342	368.970	369.694	219.221	380.255	202.870	353.571	326.647	155.866	338.573	333.168	360.537	337.364	300.404	330.499	0.0004077	0.00045548	0.00010932	525.27	7.346e-07	5.2609e-06	663.87	188.32	2.6253e-06	1.792e-06	270.47	117.69	80.318	29.875	3.3058e-06	52.706	0.00089237	0.0012455	0.00034166	504.19	1.2244e-05	1.3848e-05	633.82	181.3	1.2745e-05	1.3854e-05	259.71	113.23	77.894	29.042	1.304e-05	51.079	134.643	149.659	132.492	51.307	160.569	238.710	50.333	56.029	160.803	142.588	53.719	58.237	60.826	64.024	233.019	62.530	-8191	255	
1444.507	1	1	0	0	0.11253	0.018641	0.25531	0.18392	0.16792	0.14769	0.17875	0.081572	0.050167	0.26864	0.24021	0.13774	0.12455	0.3148	0.39102	0.18852	-1.2104	-1.0729	-1.8979	-1.1042	-1.3937	-1.9146	-1.1625	-1.9521	-1.5271	-1.0333	-1.9604	-1.325	-1.2542	-1.8563	-0.97708	-1.7708	351.895	102.181	228.439	267.138	357.448	77.905	352.630	53.949	110.629	121.881	66.916	381.017	122.084	361.589	244.560	263.130	0.00045686	0.00048336	0.00015357	526.83	3.4979e-06	6.5662e-06	664.81	189.09	2.4739e-06	6.2404e-06	274.4	119.38	81.395	30.341	2.8885e-06	54.171	0.00090836	0.001242	0.00033812	503.68	1.2785e-05	1.3833e-05	636.93	181.99	1.2363e-05	1.3828e-05	261.87	114.54	78.526	29.372	1.3637e-05	52.145	135.937	130.510	132.848	50.795	204.838	190.203	50.217	56.344	160.731	196.909	54.394	58.140	60.950	64.769	229.808	62.580	-8191	255	
1444.603	1	1	0	0	0.011329	0.15073	0.14871	0.35893	0.14386	0.075431	0.21964	0.20557	0.2696	0.2286	0.024358	0.26743	0.098187	0.16466	0.12025	0.26873	-1.4417	-0.95417	-1.9083	-1.5	-1.3667	-1.7854	-1.1667	-1.5292	-1.9	-0.81042	-2.0479	-1.4021	-1.2396	-1.9562	-1.2104	-1.4833	343.531	375.624	104.261	90.676	127.592	370.469	361.320	271.531	153.818	254.702	329.715	75.971	280.310	307.786	229.123	258.338	0.0004285	0.0005279	0.00013451	529.24	4.2069e-06	3.0381e-06	677.37	189.92	4.0129e-06	4.5187e-06	278.56	121.58	82.352	31.044	5.3667e-06	55.332	0.00089362	0.0012723	0.00035374	507.08	1.2569e-05	1.4385e-05	646.08	183.44	1.2657e-05	1.4715e-05	267.4	117.1	79.692	29.967	1.3783e-05	53.454	134.940	133.240	120.869	51.157	142.572	216.990	50.512	56.085	171.243	165.194	53.970	58.084	61.038	64.675	171.533	62.346	-8191	255	
1444.724	1	1	0	0	0.22496	0.067491	0.081999	0.15274	0.21306	0.26665	0.11872	0.49391	0.13247	0.35635	0.11516	0.10888	0.069536	0.087879	0.26148	0.2099	-1.4813	-0.975	-1.8125	-1.5521	-1.1292	-2.0479	-1.2979	-1.4958	-1.8937	-0.98333	-1.775	-1.6625	-1.0875	-1.9438	-1.2313	-1.5583	195.663	190.933	303.307	357.103	120.384	150.541	96.697	330.676	76.978	113.595	342.965	361.979	254.293	383.725	143.433	225.708	0.00043232	0.00048212	9.1962e-05	535.02	2.6053e-06	4.2818e-06	687.91	194.33	2.9282e-06	6.0968e-06	282.31	123	83.704	31.615	6.987e-06	55.447	0.00094002	0.0013394	0.00037573	511.89	1.3362e-05	1.441e-05	654.74	185.96	1.2823e-05	1.4765e-05	269.67	118.22	80.629	30.566	1.4048e-05	53.937	129.512	104.402	154.927	51.601	243.315	162.268	49.961	55.953	201.373	220.459	54.334	58.130	60.384	64.507	185.710	62.568	-8191	255	
1444.820	1	1	0	0	0.043679	0.15291	0.12976	0.1321	0.26957	0.10394	0.15616	0.27239	0.32423	0.1486	0.15894	0.16301	0.089948	0.24464	0.2464	0.2409	-1.3854	-0.92083	-1.5562	-1.6292	-0.93958	-1.7104	-1.3062	-1.2146	-1.9208	-1.0875	-1.6229	-1.6458	-1.0521	-1.9688	-1.3563	-1.3167	195.470	277.137	319.424	387.037	64.151	146.286	185.255	355.964	232.346	141.193	328.989	88.657	374.961	48.727	375.064	387.392	0.0004267	0.00039769	7.0336e-05	534.61	3.0898e-06	5.0685e-06	687.85	196.66	5.7563e-06	3.8411e-06	284.67	126.6	85.53	32.256	2.2588e-06	57.301	0.00095649	0.0013488	0.00037918	514.08	1.3759e-05	1.4928e-05	657.73	188.41	1.3479e-05	1.557e-05	274.25	121.47	82.575	31.223	1.4523e-05	55.38	134.871	92.141	168.824	51.195	197.298	189.132	50.284	55.950	169.518	197.387	54.459	58.359	60.272	64.791	181.376	62.555	-8191	255	
1444.916	1	1	0	0	0.1975	0.11597	0.1818	0.17993	0.11219	0.059099	0.12851	0.19126	0.035441	0.2396	0.26556	0.15858	0.22462	0.052544	0.23817	0.16648	-1.3813	-0.85625	-1.6625	-1.7313	-1.0667	-1.8188	-1.4667	-1.2333	-1.8229	-1.1417	-1.3833	-1.9271	-0.91458	-1.8667	-1.4208	-1.05	355.888	182.357	252.380	362.659	359.385	238.762	340.844	322.251	296.269	264.399	279.075	255.613	317.918	122.350	115.711	322.868	0.00046022	0.00041828	0.00013474	539.1	2.8923e-06	5.1994e-06	697.75	198.86	2.5495e-06	1.1898e-06	290.57	128.06	87.118	32.468	4.9214e-06	57.853	0.0010083	0.0013906	0.00037531	517.92	1.4212e-05	1.5327e-05	667	191.02	1.378e-05	1.5672e-05	279.72	123.27	83.748	31.511	1.4979e-05	56.195	134.703	179.202	115.545	51.512	199.424	201.050	50.202	56.355	179.172	212.709	54.392	57.797	60.558	64.639	210.544	62.561	-8191	255	
1445.012	1	1	0	0	0.24445	0.17872	0.40717	0.13975	0.13697	0.16844	0.22903	0.1924	0.074278	0.25512	0.019064	0.14327	0.14327	0.15533	0.16248	0.41715	-1.7021	-1.2208	-1.4438	-1.8687	-1.0187	-1.8438	-1.6562	-0.98542	-1.75	-1.1875	-1.2604	-1.825	-0.96667	-1.8083	-1.5229	-1.1646	44.598	127.691	225.080	319.953	71.874	42.960	304.834	381.591	213.176	227.623	243.083	362.552	392.925	51.468	245.368	302.507	0.00046732	0.00015565	0.00016868	547.15	4.0925e-06	5.6252e-06	710.34	201.31	3.3456e-06	3.5529e-06	296.69	129.87	87.102	32.763	3.4643e-06	58.735	0.0010169	0.0014333	0.00039852	523.41	1.4491e-05	1.5697e-05	677.13	193.3	1.4346e-05	1.5737e-05	284	125.4	84.159	31.828	1.5063e-05	56.86	135.992	96.697	142.596	51.048	221.460	188.129	50.196	56.375	160.022	201.555	54.312	57.880	60.645	64.495	258.508	62.269	-8191	255	
1445.107	1	1	0	0	0.081962	0.18011	0.15467	0.35653	0.087338	0.13024	0.28397	0.26583	0.069377	0.30104	0.034931	0.26075	0.075484	0.1658	0.15154	0.037449	-1.5417	-1.1688	-1.2854	-1.7313	-0.93125	-1.625	-1.6208	-1.1229	-1.7583	-1.2792	-1.3854	-2.0292	-1.0375	-1.6333	-1.6562	-0.99167	350.830	257.303	356.651	368.132	236.962	305.207	97.900	367.479	350.348	309.729	65.849	261.537	265.862	392.123	174.390	392.276	0.00045367	0.00051571	0.00016401	549.33	3.0107e-06	1.4929e-06	710.23	201.91	4.1719e-06	8.0214e-06	292.76	128.81	86.746	32.537	7.1149e-06	57.689	0.0010086	0.0013931	0.00040086	524.59	1.3999e-05	1.622e-05	677.9	193.55	1.3973e-05	1.5143e-05	281.69	124.34	84.21	31.559	1.4947e-05	55.941	127.177	156.420	170.782	51.174	171.719	202.041	50.309	55.860	178.216	196.194	53.831	57.662	60.422	64.681	178.598	62.067	-8191	255	
1445.203	1	1	0	0	0.21141	0.27514	0.19366	0.29386	0.20863	0.11241	0.2127	0.069137	0.16858	0.18032	0.13764	0.18534	0.21091	0.24974	0.27007	0.084942	-1.4833	-1.3292	-1.1708	-1.9688	-1.1854	-1.4813	-1.9562	-0.775	-1.7854	-1.3792	-1.0208	-1.9479	-1.2021	-1.4958	-1.6938	-1.1146	381.226	51.107	185.259	361.942	314.794	128.192	316.621	350.990	124.489	331.089	59.388	312.119	361.269	349.704	340.838	380.834	0.00044872	0.00060608	0.0001276	547.77	3.2652e-06	5.274e-06	705.22	200.53	4.2706e-06	3.0966e-06	292.35	127.88	86.441	32.459	5.3177e-06	58.449	0.00099575	0.0014137	0.00038457	521.74	1.4454e-05	1.5056e-05	671.26	192.18	1.3612e-05	1.5662e-05	280.64	123.65	83.776	31.559	1.4664e-05	56.294	127.665	102.437	153.051	50.706	153.823	194.945	50.034	56.044	156.877	212.828	53.939	57.771	60.261	64.394	189.102	62.098	-8191	255	
1445.301	1	1	0	0	0.1717	0.21603	0.18609	0.09216	0.24789	0.26822	0.22705	0.30623	0.14576	0.28406	0.24721	0.23521	0.26322	0.044485	0.16192	0.070843	-1.4958	-1.5979	-1.0854	-1.8958	-1.2875	-1.3479	-2.1042	-1.0854	-1.8958	-1.6292	-1.0146	-2.0938	-1.4021	-1.1958	-1.7333	-1.2833	389.920	327.099	262.053	220.416	382.348	126.273	351.762	81.414	228.071	124.849	341.457	265.733	188.215	344.154	362.980	231.679	0.00051171	0.00065727	0.00010666	548.14	4.635e-06	3.3848e-06	708.07	200.88	5.7779e-06	3.5658e-06	294.77	128.48	86.753	32.59	4.559e-06	58.477	0.0010238	0.0013979	0.00039909	522.15	1.4168e-05	1.5518e-05	672.79	192.42	1.4088e-05	1.5448e-05	282.67	124.3	83.804	31.603	1.4828e-05	56.471	133.621	103.907	112.683	50.911	159.608	227.568	50.331	55.934	157.732	174.372	54.010	58.015	60.707	64.726	206.508	61.893	-8191	255	
1445.419	1	1	0	0	0.13745	0.15429	0.25549	0.065672	0.17918	0.023777	0.12043	0.16135	0.11204	0.19795	0.076686	0.20421	0.27197	0.28697	0.23659	0.26552	-1.4333	-1.725	-1.0104	-2.1479	-1.4479	-1.0729	-2.1292	-1.2167	-1.5042	-1.8875	-1.1958	-2.0021	-1.6083	-1.1458	-1.8771	-1.1063	204.448	137.068	213.241	45.015	110.740	154.108	379.536	43.598	115.178	137.851	374.971	389.523	132.323	348.335	180.550	343.567	0.00051822	0.0003728	0.00015787	549.1	5.547e-06	4.7061e-06	713.58	200.75	2.6072e-06	4.3292e-06	295.59	131.08	86.863	32.989	5.4697e-06	58.735	0.00099717	0.0013699	0.00040701	523.29	1.3822e-05	1.5914e-05	680.66	192.99	1.3665e-05	1.5625e-05	284.1	125.86	84.349	31.861	1.5122e-05	56.864	135.698	163.168	120.910	51.290	203.070	158.808	50.429	55.721	153.825	163.352	54.100	58.396	60.831	64.629	191.028	62.348	-8191	255	
1445.516	1	1	0	0	0.14201	0.19779	0.20241	0.15365	0.26435	0.10075	0.1217	0.30249	0.162	0.076444	0.030227	0.25104	0.14349	0.30645	0.26346	0.11999	-1.0583	-1.9062	-1.0771	-1.7625	-1.55	-1.1833	-1.8271	-1.275	-1.5667	-1.9958	-1.1417	-1.8229	-1.5833	-0.9875	-1.9771	-1.2375	110.895	359.954	227.303	196.099	374.665	207.616	324.718	50.713	111.768	227.982	182.186	305.567	237.194	332.030	66.789	358.986	0.00048233	0.0004337	0.00015625	550.02	4.3901e-06	4.0263e-06	708.94	200.64	4.4168e-06	8.1327e-06	292.3	128.69	86.571	32.571	4.3477e-06	58.291	0.0010074	0.0013503	0.00040192	525.73	1.4266e-05	1.6131e-05	678.57	192.91	1.3552e-05	1.5697e-05	282.11	124.68	84.012	31.774	1.4783e-05	56.473	137.189	166.648	99.120	51.154	169.069	134.855	50.075	55.967	217.459	195.704	54.057	58.032	60.498	64.574	217.011	62.220	-8191	255	
1445.612	1	1	0	0	0.040432	0.15733	0.24727	0.268	0.22755	0.25304	0.029598	0.25271	0.12348	0.098384	0.1337	0.14793	0.089378	0.21415	0.19255	0.34962	-1.0521	-1.9354	-1.1354	-1.65	-1.7167	-1.0396	-2.0167	-1.3625	-1.2667	-1.9562	-1.2313	-1.9312	-1.6896	-0.9625	-1.8875	-1.4917	325.061	58.549	326.323	322.254	229.074	92.869	352.177	73.076	135.136	167.962	360.292	326.322	249.454	270.818	320.029	289.535	0.00044266	0.00032247	8.1677e-05	549.3	5.8586e-06	5.4002e-06	698.4	199.74	3.2117e-06	7.6536e-06	291.28	128.12	86.527	32.526	5.7457e-06	58.125	0.0010052	0.0013922	0.00038771	523.08	1.384e-05	1.5072e-05	669.09	191.56	1.3763e-05	1.5239e-05	280.33	123.64	83.533	31.483	1.5075e-05	56.155	139.778	173.426	151.018	51.665	200.090	182.842	50.197	55.830	203.160	180.247	54.070	58.188	60.852	64.510	178.786	62.512	-8191	255	
1445.708	1	1	0	0	0.18989	0.29526	0.19761	0.032678	0.17451	0.16978	0.24063	0.24437	0.083353	0.11145	0.16698	0.18266	0.10944	0.24385	0.23745	0.2072	-0.78542	-2.0604	-1.0354	-1.6792	-1.9708	-1.1458	-1.9729	-1.4021	-0.87292	-1.8833	-1.3125	-1.6063	-2.0729	-1.2062	-1.7292	-1.7583	50.687	283.464	245.915	387.188	373.018	328.459	252.751	355.471	148.440	207.716	66.430	305.761	52.904	320.445	285.390	333.831	0.00043815	0.00062129	0.00025248	550.84	3.2136e-06	5.9886e-06	702.73	200.61	6.0403e-06	4.5073e-06	292.65	128.77	86.295	32.484	4.9601e-06	58.307	0.00098923	0.0013392	0.00040588	522.07	1.3566e-05	1.605e-05	671.97	191.84	1.3822e-05	1.5213e-05	280.8	124.44	83.827	31.581	1.4619e-05	56.401	136.360	127.827	123.038	51.438	180.962	180.004	50.693	55.860	189.236	235.059	53.808	58.155	60.468	64.811	171.759	61.801	-8191	255	
1445.804	1	1	0	0	0.1532	0.085164	0.12504	0.16517	0.25949	0.14784	0.28131	0.12187	0.25185	0.17	0.34182	0.029804	0.18603	0.28487	0.16954	0.18119	-0.69583	-1.8604	-1.4188	-1.4896	-2.0417	-1.1542	-1.8604	-1.85	-1.3333	-1.9646	-1.4917	-1.4479	-1.9688	-1.1333	-1.7208	-2.025	64.547	288.908	379.356	359.616	63.139	90.561	347.434	373.568	192.232	211.787	313.549	80.701	68.446	374.601	311.601	357.602	0.00043946	0.00033213	0.0002569	545.03	5.8443e-06	1.668e-06	707.61	199.5	1.923e-06	1.8536e-06	293.58	129.92	86.044	32.428	2.6992e-06	57.951	0.001021	0.001353	0.00039687	523.01	1.3683e-05	1.5843e-05	676.47	192.19	1.3654e-05	1.5581e-05	282.47	125.06	83.501	31.406	1.4379e-05	56.139	133.334	125.760	132.960	51.391	205.635	219.685	50.315	55.912	181.536	159.299	54.151	58.076	60.740	64.563	223.972	61.908	-8191	255	
1445.900	1	1	0	0	0.10673	0.085624	0.22883	0.36568	0.25561	0.226	0.50427	0.28551	0.21775	0.22091	0.1234	0.12549	0.037214	0.21118	0.1644	0.20928	-0.60833	-2.0375	-1.2604	-1.4562	-1.9958	-1.0771	-1.7792	-1.9896	-0.96042	-1.8875	-1.3042	-1.2917	-2.0771	-1.3542	-1.4813	-2.0229	377.124	297.496	43.893	374.035	272.583	233.301	338.090	308.251	329.435	153.408	43.051	47.723	209.466	383.743	189.394	336.953	0.0004768	0.00069118	0.00011433	548.44	2.4647e-06	6.6256e-06	701.27	199.88	5.7054e-06	5.3071e-06	291.09	127.68	85.519	31.812	3.1001e-06	57.08	0.001019	0.0013844	0.00038859	522.68	1.3764e-05	1.586e-05	670.45	191.74	1.3485e-05	1.5632e-05	278.63	122.85	83.142	30.981	1.3805e-05	55.182	131.229	127.645	112.967	51.219	235.917	143.227	50.351	55.762	155.263	175.534	54.273	58.307	60.386	64.454	200.912	62.105	-8191	255	
1446.021	1	1	0	0	0.23067	0.26538	0.043039	0.23796	0.252	0.30806	0.16975	0.3278	0.051744	0.1806	0.037231	0.22859	0.22533	0.19482	0.23798	0.30703	-0.50625	-1.7333	-1.5167	-1	-1.8542	-1.1917	-1.5417	-1.9562	-0.88542	-1.8021	-1.5812	-1.4167	-1.9479	-1.1958	-1.2208	-2.0104	263.026	392.825	391.906	368.645	211.653	330.929	106.567	382.075	198.492	327.514	190.471	97.154	259.825	52.428	252.357	313.130	0.00046251	0.00018568	9.5416e-05	546.49	4.9574e-06	1.9865e-06	696.7	197.33	4.149e-06	3.5142e-06	287.86	127.26	84.858	31.978	3.5931e-06	57.451	0.00097764	0.0013158	0.00038497	519.01	1.3686e-05	1.5571e-05	664.82	190.19	1.4113e-05	1.5112e-05	276.37	122.52	82.879	30.975	1.4263e-05	55.232	132.069	110.647	144.522	51.450	208.508	172.876	50.374	55.593	235.853	216.528	53.791	58.626	60.559	64.881	224.020	62.424	-8191	255	
1446.115	1	1	0	0	0.16476	0.21408	0.15247	0.22972	0.22975	0.08216	0.099362	0.21966	0.10434	0.26545	0.23101	0.14863	0.073809	0.23994	0.032618	0.15644	-0.7	-1.5875	-1.5729	-0.98542	-1.825	-1.1792	-1.375	-2.0312	-0.97708	-1.6854	-1.9125	-1.1063	-2.0625	-1.2583	-1.3229	-2.1625	387.151	166.301	365.601	269.249	173.155	87.631	274.231	78.345	249.592	393.949	44.503	237.008	357.436	103.420	338.601	260.731	0.00045519	0.00027901	3.8294e-05	543.12	2.7213e-06	6.1236e-06	696.84	198.25	4.4216e-06	1.1449e-06	290.91	127.3	85.801	31.74	7.2191e-06	57.18	0.00097392	0.0013861	0.0003895	518.4	1.3586e-05	1.5061e-05	667.68	190.54	1.3624e-05	1.5278e-05	278.24	123.1	82.959	30.857	1.4089e-05	55.436	132.126	120.404	97.825	51.407	247.659	182.929	50.729	55.982	175.226	181.827	53.563	58.194	60.559	64.371	166.171	62.206	-8191	255	
1446.211	1	1	0	0	0.29722	0.033327	0.14876	0.27139	0.13037	0.11547	0.3016	0.1623	0.058801	0.23497	0.15641	0.12754	0.2686	0.11711	0.21449	0.1577	-0.54375	-1.3875	-1.6604	-1.1333	-1.775	-1.3625	-1.3125	-2.0708	-1.1313	-1.4979	-1.9042	-1.3	-1.8979	-1.4438	-1.0729	-2.2021	395.376	215.412	297.395	385.708	268.814	319.553	384.569	392.588	278.250	117.468	263.558	369.746	375.091	266.072	308.284	338.643	0.000487	0.00015219	0.00014027	546.84	3.9074e-06	3.1029e-06	706.33	198.18	4.0199e-06	8.1251e-06	291.47	128.04	85.641	31.934	5.9755e-06	57.177	0.00097611	0.0013709	0.00039529	521.91	1.4027e-05	1.5653e-05	675.16	191.33	1.3659e-05	1.5348e-05	280.79	123.43	82.915	30.961	1.4602e-05	55.478	134.117	95.671	113.674	50.764	177.605	198.412	50.666	55.722	207.881	169.288	54.350	58.072	60.642	64.415	181.721	62.322	-8191	255	
1446.283	1	1	0	0	0.18404	0.088656	0.17955	0.17131	0.21158	0.15153	0.08999	0.36932	0.1274	0.2229	0.13458	0.061878	0.25483	0.19197	0.14727	0.20873	-0.7625	-1.4208	-1.7875	-0.93542	-1.7521	-1.6521	-1.3229	-2.0563	-1.2479	-1.3042	-1.8146	-1.0292	-1.6354	-1.8687	-0.94167	-1.9458	315.798	379.307	144.069	250.851	310.388	347.342	177.049	324.109	57.301	283.156	91.743	366.177	385.985	330.723	115.116	392.032	0.00044568	0.00043859	0.00018561	546.5	6.2425e-06	4.3725e-06	697.05	197.44	2.5738e-06	2.075e-06	287.62	125.55	84.634	31.5	4.5631e-06	55.924	0.00099677	0.0013933	0.00038554	520.14	1.3261e-05	1.5083e-05	665.76	189.91	1.2976e-05	1.5148e-05	275.4	120.99	82.082	30.501	1.4843e-05	54.315	133.748	79.180	136.846	51.154	216.717	178.581	49.897	56.260	149.720	180.865	53.927	57.812	60.208	64.501	178.853	62.310	-8191	255	
1446.404	1	1	0	0	0.35706	0.096911	0.020906	0.13984	0.14815	0.35178	0.18875	0.058999	0.082998	0.26159	0.16868	0.14566	0.23288	0.1027	0.1905	0.36666	-0.9125	-0.96667	-1.8604	-1.175	-1.6229	-1.6167	-1.0479	-1.9458	-1.2812	-1.1354	-2.125	-1.3813	-1.5354	-1.9458	-0.93125	-2	197.466	323.968	111.998	154.668	129.019	299.099	223.107	333.510	261.485	263.015	266.785	91.340	371.221	348.654	341.630	394.382	0.00041858	0.00042136	9.0559e-05	539.36	1.7437e-06	4.4266e-06	684.78	195.99	2.7591e-06	6.4375e-06	284.76	124.69	84.292	31.269	4.9695e-06	55.878	0.00097945	0.0013313	0.00037753	515.83	1.3526e-05	1.5304e-05	657.31	188.5	1.293e-05	1.5378e-05	273.1	120.28	81.559	30.424	1.4194e-05	54.169	131.062	124.567	94.677	51.189	203.119	205.080	50.129	55.897	203.664	172.209	54.033	57.901	60.355	64.491	192.785	62.270	-8191	255	
1446.500	1	1	0	0	0.3065	0.29262	0.094704	0.028355	0.14566	0.14492	0.28425	0.23864	0.27724	0.11719	0.29516	0.077716	0.36334	0.23594	0.16883	0.29861	-1.0646	-1.0021	-1.9896	-1.225	-1.4542	-2.0396	-0.97917	-1.8563	-1.4375	-1.2625	-2.0146	-1.3417	-1.5271	-2.1021	-1.0042	-1.7146	272.300	109.169	362.545	174.116	99.942	283.318	338.168	334.455	330.222	245.479	340.926	311.231	161.256	392.338	97.304	273.030	0.00045729	0.00025082	0.00017735	538.47	3.8456e-06	4.0078e-06	688.26	195.7	2.461e-06	4.073e-06	284.47	124.56	83.793	31.603	2.3409e-06	56.299	0.00096312	0.0013044	0.00037784	514.01	1.3813e-05	1.5041e-05	657.41	188.03	1.3259e-05	1.5095e-05	272.87	119.86	81.337	30.53	1.4262e-05	54.432	131.245	157.131	114.598	51.010	177.711	164.124	50.319	56.180	226.130	186.601	54.040	58.016	60.491	64.689	237.195	62.452	-8191	255	
1446.596	1	1	0	0	0.30648	0.08452	0.26012	0.22911	0.14135	0.17671	0.20198	0.22216	0.29976	0.011335	0.037492	0.23787	0.21923	0.068088	0.077712	0.33493	-1.0542	-1.2104	-1.6979	-1.2188	-1.5	-1.9354	-1.0417	-1.7167	-1.5688	-1.0604	-1.8083	-1.5125	-1.1292	-1.9062	-0.9875	-1.5312	218.220	164.338	229.155	137.869	375.566	233.265	373.715	59.345	218.803	38.486	71.945	100.328	84.387	372.889	342.714	316.097	0.00049638	0.00061617	0.00016055	538.84	8.5105e-07	1.2349e-06	692.49	196.82	3.8884e-06	4.701e-06	285.86	124.37	84.074	31.459	4.8611e-06	56.241	0.000975	0.001308	0.00037565	517.2	1.3338e-05	1.5375e-05	661.27	188.67	1.2929e-05	1.4719e-05	274.03	119.76	81.137	30.469	1.4362e-05	54.213	129.887	85.419	147.225	51.471	223.745	165.920	50.388	56.039	200.272	212.375	54.290	58.305	60.429	64.774	208.309	62.525	-8191	255	
1446.692	1	1	0	0	0.098784	0.12691	0.15192	0.21034	0.21309	0.21545	0.20893	0.069627	0.16074	0.20071	0.066164	0.18208	0.16502	0.16449	0.25877	0.10099	-1.3708	-0.94792	-1.8646	-1.4917	-1.0833	-1.8521	-1.0187	-1.4	-1.8354	-1.0646	-1.825	-1.5125	-1.0458	-1.8438	-1.0833	-1.5458	51.886	227.770	272.325	252.470	329.714	267.987	123.640	248.550	129.113	166.772	346.911	375.657	57.087	43.118	152.791	293.559	0.00040354	0.00051552	0.0001156	534.56	2.3131e-06	5.6221e-06	688.09	194.47	3.424e-06	3.3919e-06	280.99	122.39	82.304	31.148	4.4731e-06	55.07	0.00092466	0.0013093	0.00036803	514.1	1.2912e-05	1.4129e-05	654.3	187.09	1.3e-05	1.437e-05	269.72	117.91	80.437	30.166	1.3999e-05	53.458	127.216	140.045	121.931	51.358	155.032	197.677	50.354	56.208	184.510	204.659	53.912	58.185	60.238	64.690	183.822	62.617	-8191	255	
1446.813	1	1	0	0	0.06984	0.22742	0.1413	0.18647	0.068101	0.27309	0.13525	0.18324	0.22187	0.20549	0.28564	0.19877	0.059329	0.078225	0.29142	0.028947	-1.4958	-0.72917	-1.6917	-1.6083	-1.0771	-1.8292	-1.2854	-1.4896	-2.0625	-1.0792	-1.8354	-1.6083	-1.1854	-1.9333	-1.2229	-1.3312	160.851	175.652	181.492	101.544	161.422	68.589	89.479	192.784	77.804	169.863	383.719	353.500	355.160	219.386	165.225	139.871	0.00046863	0.00010083	0.00011517	537.86	6.5035e-06	3.4698e-06	682.56	196.18	1.0351e-06	6.8419e-06	283.16	122.55	82.804	31.111	5.4775e-06	55.619	0.00093835	0.0013203	0.00037673	511.1	1.3347e-05	1.5103e-05	651.14	187.24	1.3081e-05	1.4939e-05	270.91	118.44	80.659	30.127	1.3851e-05	53.758	131.559	218.023	109.525	51.459	187.491	207.935	50.540	56.343	125.111	191.218	54.423	58.035	60.602	64.801	175.714	62.524	-8191	255	
1446.884	1	1	0	0	0.1502	0.052208	0.13058	0.14296	0.048294	0.096978	0.23011	0.27628	0.22927	0.098066	0.084613	0.1595	0.11877	0.22516	0.10549	0.16281	-1.4771	-0.96875	-1.7229	-1.6729	-1.0063	-2.0333	-1.5229	-1.3208	-2.0062	-1.0292	-1.6688	-1.7021	-1.0583	-1.9125	-1.4583	-1.3708	107.565	316.367	78.907	386.532	386.419	96.109	308.461	316.559	239.815	206.966	349.306	199.231	347.804	304.043	397.998	363.133	0.0004453	0.00031012	9.329e-05	538.39	3.1344e-06	2.241e-06	686.13	195.33	3.7115e-06	7.201e-06	284.58	124.7	83.993	31.281	5.0041e-06	56.203	0.00095499	0.0013585	0.00037553	513.16	1.3535e-05	1.4934e-05	656.31	187.76	1.301e-05	1.4938e-05	272.95	119.62	81.269	30.359	1.4448e-05	54.43	130.361	129.565	107.247	51.257	203.699	196.440	50.352	56.341	198.557	143.680	54.424	58.169	60.619	64.524	196.315	62.557	-8191	255	
1446.981	1	1	0	0	0.17117	0.10073	0.0049209	0.27385	0.30816	0.16535	0.26053	0.28274	0.26679	0.11486	0.038454	0.095557	0.11695	0.22929	0.18018	0.44325	-1.6271	-1.1313	-1.4333	-1.8417	-0.91667	-1.8125	-1.6521	-1.1167	-1.8917	-1.25	-1.4271	-1.9312	-1.1354	-1.9125	-1.4917	-1.1979	370.733	194.586	178.058	69.880	216.489	346.709	324.876	386.990	153.893	290.178	288.525	355.131	365.920	51.112	117.798	363.906	0.0004574	0.00040879	0.00014058	540.06	1.6962e-06	7.2373e-06	700.67	197.18	1.402e-06	7.4249e-06	287.18	125.1	84.514	31.382	4.9249e-06	56.372	0.00095193	0.0013505	0.00036985	516.88	1.3653e-05	1.4948e-05	664.2	188.7	1.2997e-05	1.5186e-05	275.47	120.51	81.563	30.448	1.4597e-05	54.343	139.364	153.941	94.374	50.899	231.961	178.366	50.636	56.138	237.964	232.706	54.202	57.895	60.670	64.998	220.539	62.558	-8191	255	
1447.101	1	1	0	0	0.037887	0.11191	0.16384	0.10816	0.050565	0.23907	0.13847	0.23818	0.22097	0.24376	0.16531	0.17031	0.28591	0.13054	0.13626	0.12468	-1.6292	-1.0896	-1.1833	-2.0625	-1.1437	-1.7313	-1.85	-1.0312	-1.8167	-1.2812	-1.2792	-1.9354	-1.1354	-1.4625	-1.7125	-1.0271	248.828	71.089	243.268	125.617	254.925	269.267	365.595	360.639	394.140	342.962	96.967	323.523	46.578	309.180	225.526	57.573	0.00052337	0.00028502	0.00016181	541.38	4.746e-06	6.431e-06	683.37	195.62	2.3341e-06	4.3286e-06	283.33	123.01	82.865	30.962	5.2215e-06	54.64	0.00093985	0.0013524	0.0003623	515.38	1.3223e-05	1.5128e-05	655.13	187.51	1.3373e-05	1.4648e-05	271.02	118.72	80.397	29.995	1.3877e-05	53.307	131.924	111.291	133.191	51.468	182.811	192.978	50.315	55.940	162.654	190.744	54.526	58.274	60.269	64.612	177.913	62.112	-8191	255	
1447.196	1	1	0	0	0.11267	0.0045061	0.09923	0.095395	0.20083	0.28787	0.12001	0.19409	0.3392	0.23262	0.28782	0.15599	0.15255	0.11371	0.052991	0.24773	-1.4438	-1.2854	-1.1875	-1.9208	-1.0104	-1.5479	-1.7146	-1.0417	-1.9604	-1.4542	-1.2021	-2.1333	-1.0604	-1.5938	-1.7604	-1.1333	229.831	239.003	339.426	396.151	220.111	363.431	346.012	48.757	52.391	353.961	374.271	252.821	307.844	366.133	40.282	369.889	0.00045899	0.00031455	0.00012478	537.59	1.5238e-06	6.1406e-06	683.21	195.08	3.8901e-06	6.5446e-06	281.83	123.44	83.675	31.011	3.9218e-06	55.156	0.00095397	0.0013678	0.00037092	513.44	1.356e-05	1.5064e-05	653.68	187.03	1.3108e-05	1.5769e-05	270.84	119.21	81.047	29.946	1.371e-05	53.456	134.184	138.982	121.369	51.331	164.755	169.824	50.507	56.083	169.754	164.968	54.655	57.926	60.740	64.445	173.875	62.686	-8191	255	
1447.292	1	1	0	0	0.12204	0.060701	0.28348	0.20171	0.22771	0.11227	0.098548	0.18372	0.14844	0.46491	0.29519	0.28834	0.071973	0.096216	0.28836	0.35035	-1.3312	-1.4875	-1.1896	-2.0521	-1.2313	-1.275	-1.8542	-1.1979	-1.7208	-1.65	-1.175	-2.1729	-1.1708	-1.4	-1.9042	-1.0896	144.331	265.671	155.909	332.418	334.855	392.446	67.129	308.266	158.052	75.482	93.335	311.132	232.400	156.751	304.828	335.354	0.00038638	0.00054422	0.00011773	536.72	5.1766e-06	5.5985e-06	689.93	196.77	3.9402e-06	3.7213e-06	286.37	125.94	84.839	31.19	3.8984e-06	56.345	0.0009483	0.0013262	0.00037826	514.46	1.3566e-05	1.4954e-05	660.39	188.21	1.3667e-05	1.5116e-05	274.77	121.05	81.915	30.232	1.404e-05	54.345	140.205	98.920	137.962	51.360	199.461	138.094	50.419	55.909	165.768	155.577	54.384	58.019	60.498	64.543	180.087	62.275	-8191	255	
1447.412	1	1	0	0	0.014631	0.2711	0.36214	0.16478	0.18467	0.26656	0.27516	0.11636	0.057184	0.11456	0.022657	0.20069	0.23405	0.039346	0.20827	0.24684	-1.0458	-1.3958	-0.98542	-2.0417	-1.2646	-1.3042	-2.0062	-1.0667	-1.5396	-1.6979	-1.2146	-2.0438	-1.3604	-1.25	-1.8937	-1.2563	161.397	86.134	170.139	250.963	199.709	286.477	107.745	342.705	243.047	227.149	72.355	338.355	397.061	384.836	88.634	354.757	0.00044447	0.00057417	0.00010393	542.88	4.423e-06	2.8958e-06	696.34	195.83	2.066e-06	3.4326e-06	288.97	126.32	84.424	30.888	5.0069e-06	55.819	0.00096636	0.001319	0.00039595	518.87	1.3821e-05	1.5161e-05	667.6	188.73	1.3318e-05	1.5502e-05	276.04	121.31	81.522	30.008	1.4109e-05	54.054	133.849	127.626	142.897	51.148	148.039	164.664	50.274	55.980	192.707	201.834	53.967	58.348	60.756	64.861	220.909	62.491	-8191	255	
1447.509	1	1	0	0	0.1294	0.28345	0.37674	0.12335	0.031375	0.085832	0.14024	0.25527	0.31826	0.13758	0.33457	0.16995	0.18561	0.16701	0.10075	0.33946	-1.2563	-1.5083	-1.0104	-2.0146	-1.4667	-1.1729	-2.0021	-1.0312	-1.6063	-1.7604	-0.99583	-1.9062	-1.5708	-1.1896	-1.8854	-1.4771	193.032	141.787	290.791	382.174	381.527	318.432	176.996	358.041	385.111	308.802	378.336	49.350	114.003	277.283	109.019	327.233	0.0004387	0.00064933	8.3993e-05	539.03	3.8558e-06	4.4413e-06	692.08	196.56	3.4337e-06	6.4473e-06	284.89	124.78	84.357	30.947	2.9423e-06	55.812	0.00097225	0.0014067	0.00039018	516.66	1.4054e-05	1.5172e-05	661.98	188.29	1.3685e-05	1.4961e-05	273.32	120.3	81.579	29.985	1.4245e-05	53.826	134.631	136.001	149.259	51.198	187.447	225.444	50.149	55.812	154.348	170.148	54.125	58.461	60.580	64.625	212.310	62.798	-8191	255	
#DATA ENDS
