BOXY.EXE: ISS Imagent and Oximeter Data Acquisition Program Version 0.80
Ascii Record File

#ACQ INFORMATION
2  Detector Channels 
16  External MUX Channels 
1  Auxiliary Channels 
5000  Waveform (CCF) Frequency (Hz)
1  Waveforms Skipped 
30  Waveforms Averaged 
1  Cycles Averaged 
16  Acquisitions per Waveform 
10.0806  Updata Rate (Hz) 

#FILE INFORMATION
TRUE -- External MUX Channel results are PARSED.
FALSE -- AC DC and Phase are NOT grouped.
TRUE -- Companion Program Settings File CREATED.
FALSE -- AC data not excluded
FALSE -- DC data not excluded
FALSE -- Phase data not excluded
FALSE -- Auxillary Chn. data not excluded
Tab delimiters

#CALIBRATION STATE
TRUE -- Waveform Calibration Values APPLIED.


#AUX CALIBRATION VALUES
Val Type	aux-1	

Term	1.0000e+00	
Factor	0.0000e+00	


#WF CALIBRATION VALUES
A = Detector Channel
Val Type	A-AC1	A-AC2	A-AC3	A-AC4	A-AC5	A-AC6	A-AC7	A-AC8	A-AC9	A-AC10	A-AC11	A-AC12	A-AC13	A-AC14	A-AC15	A-AC16	A-DC1	A-DC2	A-DC3	A-DC4	A-DC5	A-DC6	A-DC7	A-DC8	A-DC9	A-DC10	A-DC11	A-DC12	A-DC13	A-DC14	A-DC15	A-DC16	A-Ph1	A-Ph2	A-Ph3	A-Ph4	A-Ph5	A-Ph6	A-Ph7	A-Ph8	A-Ph9	A-Ph10	A-Ph11	A-Ph12	A-Ph13	A-Ph14	A-Ph15	A-Ph16	

Term	0.00000e+00	0.00000e+00	0.00000e+00	0.00000e+00	0.00000e+00	0.00000e+00	0.00000e+00	0.00000e+00	0.00000e+00	0.00000e+00	0.00000e+00	0.00000e+00	0.00000e+00	0.00000e+00	0.00000e+00	0.00000e+00	0.00000e+00	0.00000e+00	0.00000e+00	0.00000e+00	0.00000e+00	0.00000e+00	0.00000e+00	0.00000e+00	0.00000e+00	0.00000e+00	0.00000e+00	0.00000e+00	0.00000e+00	0.00000e+00	0.00000e+00	0.00000e+00	0.00000e+00	0.00000e+00	0.00000e+00	0.00000e+00	0.00000e+00	0.00000e+00	0.00000e+00	0.00000e+00	0.00000e+00	0.00000e+00	0.00000e+00	0.00000e+00	0.00000e+00	0.00000e+00	0.00000e+00	0.00000e+00	
Factor	1.00000e+00	1.00000e+00	1.00000e+00	1.00000e+00	1.00000e+00	1.00000e+00	1.00000e+00	1.00000e+00	1.00000e+00	1.00000e+00	1.00000e+00	1.00000e+00	1.00000e+00	1.00000e+00	1.00000e+00	1.00000e+00	1.00000e+00	1.00000e+00	1.00000e+00	1.00000e+00	1.00000e+00	1.00000e+00	1.00000e+00	1.00000e+00	1.00000e+00	1.00000e+00	1.00000e+00	1.00000e+00	1.00000e+00	1.00000e+00	1.00000e+00	1.00000e+00	X	X	X	X	X	X	X	X	X	X	X	X	X	X	X	X	

B = Detector Channel
Val Type	B-AC1	B-AC2	B-AC3	B-AC4	B-AC5	B-AC6	B-AC7	B-AC8	B-AC9	B-AC10	B-AC11	B-AC12	B-AC13	B-AC14	B-AC15	B-AC16	B-DC1	B-DC2	B-DC3	B-DC4	B-DC5	B-DC6	B-DC7	B-DC8	B-DC9	B-DC10	B-DC11	B-DC12	B-DC13	B-DC14	B-DC15	B-DC16	B-Ph1	B-Ph2	B-Ph3	B-Ph4	B-Ph5	B-Ph6	B-Ph7	B-Ph8	B-Ph9	B-Ph10	B-Ph11	B-Ph12	B-Ph13	B-Ph14	B-Ph15	B-Ph16	

Term	0.00000e+00	0.00000e+00	0.00000e+00	0.00000e+00	0.00000e+00	0.00000e+00	0.00000e+00	0.00000e+00	0.00000e+00	0.00000e+00	0.00000e+00	0.00000e+00	0.00000e+00	0.00000e+00	0.00000e+00	0.00000e+00	0.00000e+00	0.00000e+00	0.00000e+00	0.00000e+00	0.00000e+00	0.00000e+00	0.00000e+00	0.00000e+00	0.00000e+00	0.00000e+00	0.00000e+00	0.00000e+00	0.00000e+00	0.00000e+00	0.00000e+00	0.00000e+00	-1.45959e+02	-1.30980e+02	-1.25157e+02	-1.82080e+02	-7.17741e+01	-6.95097e+01	-1.55766e+02	-1.62015e+02	-7.74156e+01	-6.88670e+01	-1.70942e+02	-1.70432e+02	-1.82993e+02	-1.76724e+02	-6.90137e+01	-1.49404e+02	
Factor	2.03209e-05	1.41488e-04	3.74525e-05	1.74853e-01	1.18439e-06	1.57894e-06	1.53863e-01	4.53265e-02	1.13898e-06	1.62005e-06	7.65132e-02	2.71161e-02	3.40376e-02	8.44743e-03	1.33393e-06	1.21964e-02	1.36066e-05	2.52670e-05	7.14622e-06	9.33528e-02	2.52174e-07	2.86787e-07	7.71164e-02	2.43145e-02	2.45725e-07	2.86025e-07	3.96700e-02	1.41238e-02	1.84396e-02	4.57171e-03	2.63143e-07	6.37821e-03	X	X	X	X	X	X	X	X	X	X	X	X	X	X	X	X	



#DISTANCE SETTINGS
A = Detector Channel
A-1	A-2	A-3	A-4	A-5	A-6	A-7	A-8	A-9	A-10	A-11	A-12	A-13	A-14	A-15	A-16	

2.5000e+00	3.0000e+00	2.5000e+00	3.0000e+00	2.0000e+00	3.0000e+00	1.5000e+00	3.0000e+00	3.0000e+00	3.0000e+00	3.0000e+00	3.0000e+00	3.0000e+00	3.0000e+00	1.5000e+00	3.0000e+00	

B = Detector Channel
B-1	B-2	B-3	B-4	B-5	B-6	B-7	B-8	B-9	B-10	B-11	B-12	B-13	B-14	B-15	B-16	

1.0000e+01	1.0000e+01	1.0000e+01	1.4400e+00	1.0000e+01	1.0000e+01	1.5100e+00	1.9400e+00	1.0000e+01	1.0000e+01	1.9900e+00	2.4900e+00	2.4100e+00	2.9000e+00	1.0000e+01	2.9800e+00	




#DATA BEGINS
time	group	step	mark	flag	A-AC1	A-AC2	A-AC3	A-AC4	A-AC5	A-AC6	A-AC7	A-AC8	A-AC9	A-AC10	A-AC11	A-AC12	A-AC13	A-AC14	A-AC15	A-AC16	A-DC1	A-DC2	A-DC3	A-DC4	A-DC5	A-DC6	A-DC7	A-DC8	A-DC9	A-DC10	A-DC11	A-DC12	A-DC13	A-DC14	A-DC15	A-DC16	A-Ph1	A-Ph2	A-Ph3	A-Ph4	A-Ph5	A-Ph6	A-Ph7	A-Ph8	A-Ph9	A-Ph10	A-Ph11	A-Ph12	A-Ph13	A-Ph14	A-Ph15	A-Ph16	B-AC1	B-AC2	B-AC3	B-AC4	B-AC5	B-AC6	B-AC7	B-AC8	B-AC9	B-AC10	B-AC11	B-AC12	B-AC13	B-AC14	B-AC15	B-AC16	B-DC1	B-DC2	B-DC3	B-DC4	B-DC5	B-DC6	B-DC7	B-DC8	B-DC9	B-DC10	B-DC11	B-DC12	B-DC13	B-DC14	B-DC15	B-DC16	B-Ph1	B-Ph2	B-Ph3	B-Ph4	B-Ph5	B-Ph6	B-Ph7	B-Ph8	B-Ph9	B-Ph10	B-Ph11	B-Ph12	B-Ph13	B-Ph14	B-Ph15	B-Ph16	aux-1	digaux	

1312.157	1	1	0	512	0.23577	0.11125	0.3342	0.16014	0.12167	0.1786	0.49016	0.13703	0.26025	0.26883	0.15936	0.13274	0.26593	0.063353	0.32489	0.37364	-1.6	-1.3729	-1.4583	-2.0458	-1.1229	-1.8104	-1.7729	-1.4188	-1.9688	-1.3875	-1.5438	-2.2083	-1.3563	-1.8	-1.9375	-1.2271	263.981	112.456	253.941	350.226	210.028	316.875	339.161	87.158	418.182	301.042	336.668	343.983	81.084	382.959	333.258	369.342	0.00092794	0.0006329	0.00027626	397.98	2.8861e-06	9.0381e-06	608.63	181.99	3.5761e-06	8.1699e-06	313.63	166.55	95.867	54.753	1.2712e-05	101.57	0.0039859	0.0065546	0.0018512	397.31	6.5316e-05	7.3775e-05	590.38	177.98	6.4337e-05	7.335e-05	304.28	161.29	95.229	53.458	6.7476e-05	98.518	143.415	375.142	213.925	82.814	225.906	221.215	81.903	87.771	253.522	227.026	85.718	89.437	91.670	95.247	190.070	92.048	-8191	255	
1312.278	1	1	0	0	0.17664	0.10659	0.042856	0.17478	0.17217	0.10716	0.19323	0.31009	0.070191	0.32946	0.14074	0.32285	0.26918	0.33126	0.12375	0.20559	-1.5458	-1.4958	-1.3125	-2.1396	-1.1063	-1.7292	-1.9417	-1.2271	-1.9125	-1.6	-1.3875	-2.1771	-1.3771	-1.6042	-1.8354	-1.3896	129.836	152.021	296.127	100.479	188.334	379.039	408.686	115.822	188.617	381.881	406.689	427.412	397.692	74.256	256.903	424.969	0.00092106	0.0013976	0.00029505	398.08	3.0497e-06	7.1086e-06	606.25	181.29	4.8258e-07	5.1479e-06	314.49	166.56	97.159	55.128	6.3381e-06	102.14	0.0039717	0.0064637	0.0018524	396.47	6.5185e-05	7.4127e-05	589.33	177.26	6.3691e-05	7.4107e-05	305	161.75	95.875	53.509	6.8325e-05	98.757	140.426	207.393	143.118	83.071	198.395	180.469	81.816	87.604	417.304	231.233	85.871	89.669	91.989	94.794	249.829	92.108	-8191	255	
1312.372	1	1	0	0	0.25593	0.15734	0.20142	0.065297	0.28168	0.33704	0.3814	0.21915	0.22108	0.23629	0.14171	0.14656	0.19254	0.20064	0.1329	0.18169	-1.5792	-1.6458	-1.0021	-1.9521	-1.2521	-1.4625	-2.0583	-1.1063	-1.7875	-1.5729	-1.3125	-2.05	-1.3687	-1.4021	-1.8583	-1.3125	244.923	126.084	259.474	188.474	372.682	263.901	392.118	387.148	270.822	98.569	374.411	409.983	169.718	141.772	395.342	184.727	0.0010243	0.00037142	0.00012231	402.04	5.2299e-06	1.407e-05	612.35	183.19	4.8773e-06	1.1653e-05	313.55	167.72	97.557	55.24	7.0506e-06	103.38	0.0040301	0.0064827	0.0018491	397.39	6.5105e-05	7.3638e-05	592.38	178.41	6.3112e-05	7.3154e-05	307.25	163.29	96.329	53.772	6.7453e-05	99.878	146.720	105.499	134.630	83.423	237.962	181.582	82.676	87.991	195.559	242.050	86.153	89.542	91.549	95.072	190.167	92.326	-8191	255	
1312.468	1	1	0	0	0.27758	0.34708	0.097689	0.24331	0.1143	0.23301	0.16083	0.34703	0.088213	0.2304	0.14646	0.23656	0.26476	0.29709	0.024035	0.38013	-1.4417	-1.6437	-1.1625	-2	-1.2896	-1.3833	-2.0375	-1.1667	-1.6917	-1.8271	-1.2313	-2.0479	-1.6125	-1.3813	-2.0563	-1.4021	238.714	253.647	215.310	158.069	222.946	415.132	335.312	408.904	312.617	178.816	331.405	386.770	85.226	375.177	304.291	366.179	0.0010418	0.00033914	0.00022567	401.47	5.1762e-06	6.8063e-06	614.76	182.06	8.9496e-06	6.3464e-06	313.89	168.53	97.221	55.262	1.0533e-05	102.38	0.0039677	0.0065009	0.0018634	398.36	6.6362e-05	7.3965e-05	593.14	178.08	6.4604e-05	7.3581e-05	307.86	163.73	96.53	53.748	6.8926e-05	99.073	146.494	219.202	216.823	82.425	196.459	258.776	82.771	87.652	183.321	220.851	85.715	89.490	91.269	95.086	220.683	92.089	-8191	255	
1312.564	1	1	0	0	0.040437	0.12599	0.14291	0.20153	0.1948	0.13442	0.17864	0.059659	0.28474	0.12042	0.10015	0.24698	0.045802	0.38243	0.050053	0.23805	-1.2188	-1.7896	-1.1729	-2.1354	-1.4729	-1.0042	-2.1063	-1.3062	-1.5854	-1.9479	-1.1562	-2.0292	-1.7979	-1.2042	-1.9833	-1.4646	148.746	172.830	249.660	94.878	146.085	71.544	329.344	322.622	135.476	108.150	363.523	405.244	314.323	377.470	424.400	334.482	0.00097241	0.0010168	0.00028867	398.63	3.8409e-06	1.2373e-05	603.87	181.98	3.5187e-06	9.4631e-06	312.46	166.96	97.826	54.74	1.0209e-05	100.92	0.0040555	0.0065331	0.0018412	396.34	6.491e-05	7.4489e-05	587.37	177.48	6.3515e-05	7.2944e-05	304.55	161.86	96.436	53.194	6.741e-05	97.864	148.364	141.011	181.579	82.939	253.925	250.906	82.179	87.432	225.027	218.701	86.234	89.797	91.822	94.924	201.565	92.258	-8191	255	
1312.685	1	1	0	0	0.055453	0.27185	0.15325	0.15612	0.2203	0.12806	0.3851	0.095116	0.21872	0.039865	0.36969	0.31039	0.10742	0.17295	0.12261	0.2896	-1.0958	-1.9271	-1.1021	-1.8542	-1.7229	-1.0479	-1.9229	-1.3729	-1.3375	-2.0521	-1.1417	-1.8479	-1.6958	-1.3375	-2.1063	-1.6417	366.888	151.396	366.344	105.782	342.419	380.692	353.893	234.369	262.224	286.010	373.927	424.363	147.053	72.052	295.706	364.869	0.001032	0.0009533	7.3795e-05	402.19	3.6287e-06	5.6719e-06	605.03	180.87	8.838e-06	4.6742e-06	313.6	166.73	97.99	54.198	8.0486e-06	100.71	0.0039521	0.0064936	0.0018443	398.26	6.5202e-05	7.4934e-05	587.05	177.18	6.3984e-05	7.3928e-05	305.52	161.93	96.734	52.945	6.8061e-05	97.642	150.797	186.473	190.604	82.820	246.333	225.987	81.999	87.703	179.748	155.583	85.526	89.463	91.627	95.189	211.229	92.045	-8191	255	
1312.757	1	1	0	0	0.13945	0.11399	0.098941	0.24352	0.074123	0.045374	0.083625	0.06012	0.079695	0.24171	0.18386	0.19651	0.12536	0.18991	0.15398	0.18713	-0.8625	-2.0958	-1.0854	-1.6792	-1.7958	-1.1271	-2.0667	-1.5958	-1.1354	-1.9396	-1.4583	-1.7417	-1.8771	-1.2667	-2.0146	-1.6542	379.121	233.413	391.093	105.619	342.350	221.283	332.568	426.208	318.732	363.880	160.669	399.617	344.900	396.009	295.511	418.811	0.000941	0.0011303	0.00026619	394.87	9.5113e-06	6.0855e-06	608.25	180.22	4.4196e-06	4.9313e-06	313.91	168.25	97.694	54.348	5.315e-06	101.64	0.0039916	0.0065079	0.0018399	396.06	6.4617e-05	7.3308e-05	590.58	176.55	6.4131e-05	7.5085e-05	305.38	162.65	96.787	53.08	6.8462e-05	98.235	147.376	138.342	170.660	82.708	250.322	235.156	82.498	87.347	250.234	220.775	86.056	89.509	91.613	94.978	195.044	92.245	-8191	255	
1312.853	1	1	0	0	0.022487	0.091206	0.24844	0.22129	0.052776	0.21935	0.21848	0.2817	0.20699	0.103	0.2228	0.35469	0.21258	0.24868	0.13376	0.26831	-0.71667	-1.9188	-1.2437	-1.5958	-1.825	-1.1896	-2.0417	-1.6146	-1.0979	-2.1208	-1.4604	-1.4979	-2.1167	-1.1104	-1.8833	-1.9104	131.575	197.788	371.087	135.320	411.340	237.790	154.610	234.592	297.230	170.939	85.301	69.937	85.516	371.418	400.457	368.870	0.00098749	0.00078033	0.00025232	401.28	1.2079e-05	5.7673e-06	610.15	182.31	8.9745e-06	6.8434e-06	315.25	167.58	97.2	54.714	6.4343e-06	100.88	0.0040399	0.0065661	0.0018577	399.31	6.5269e-05	7.3655e-05	591.61	177.73	6.3992e-05	7.3083e-05	306.89	162.69	96.796	53.16	6.7993e-05	97.827	143.638	148.374	216.302	82.979	246.681	199.426	82.418	87.636	165.152	200.940	85.465	89.660	91.810	94.998	219.172	92.204	-8191	255	
1312.949	1	1	0	0	0.072715	0.047408	0.028897	0.2454	0.15774	0.12868	0.083653	0.086771	0.14281	0.12349	0.2403	0.26743	0.1688	0.26713	0.15882	0.15431	-0.85833	-2.0312	-1.3229	-1.2771	-1.9771	-1.1938	-1.9083	-1.9937	-1.0479	-2.0854	-1.5187	-1.6458	-2.0833	-1.2437	-1.7	-2.1188	277.866	369.450	428.851	210.901	318.713	216.194	349.561	76.660	391.606	269.057	86.831	72.754	95.283	348.586	261.507	354.126	0.001016	0.0007002	0.00022751	401.02	1.0064e-05	1.1489e-06	607.8	181.06	5.6694e-06	8.8492e-06	310.59	165.76	95.818	54.133	9.2359e-06	99.717	0.0040309	0.0065359	0.0018555	396.92	6.4726e-05	7.4222e-05	589.92	176.07	6.2738e-05	7.2804e-05	303.62	160.25	95.673	52.619	6.8304e-05	96.752	154.649	187.552	207.675	83.425	198.763	117.199	82.405	87.794	228.219	244.382	85.773	89.996	91.738	94.961	206.407	92.358	-8191	255	
1313.070	1	1	0	0	0.090396	0.18412	0.10876	0.15093	0.13939	0.12244	0.17224	0.35509	0.10468	0.12516	0.31272	0.22055	0.38863	0.28618	0.17277	0.12822	-0.62292	-1.9604	-1.3208	-1.2708	-1.9396	-0.97708	-1.5771	-1.9146	-1.05	-1.8917	-1.7687	-1.3292	-2.0604	-1.4333	-1.4562	-2.0771	151.650	297.537	325.269	415.331	203.035	308.131	330.191	392.223	298.563	210.527	400.256	396.691	407.212	413.898	159.693	304.989	0.00090425	0.0014979	8.8132e-05	395.72	7.5249e-06	5.2779e-06	605.07	181.05	4.5537e-06	9.2254e-06	310.74	165.12	96.896	54.247	7.1561e-06	99.582	0.0039949	0.0065558	0.0018371	394.9	6.5607e-05	7.4317e-05	586.24	176.56	6.3001e-05	7.3917e-05	302.94	160.34	96.184	52.686	6.8414e-05	96.817	146.869	145.264	188.900	83.170	210.696	212.783	82.472	87.682	143.248	245.848	85.888	89.610	91.773	94.934	248.835	92.424	-8191	255	
1313.166	1	1	0	0	0.094621	0.27429	0.15266	0.13882	0.12328	0.14633	0.31927	0.10572	0.13979	0.047524	0.23889	0.33169	0.14528	0.16582	0.15967	0.32074	-0.70417	-1.7521	-1.6417	-1.0875	-1.7708	-1.2167	-1.5688	-2.075	-1.1667	-1.9896	-1.7188	-1.3104	-1.9479	-1.5333	-1.4896	-2.1437	222.483	80.670	164.938	99.270	116.709	402.466	82.521	90.276	132.904	313.966	373.892	85.050	324.693	415.494	206.760	327.863	0.0009109	0.00085513	0.00018784	398.26	3.8479e-06	5.9752e-06	602.2	180.6	3.839e-06	7.3785e-06	312.07	166.85	96.326	54.14	4.3645e-06	100.26	0.0039816	0.006543	0.0018629	395.65	6.4995e-05	7.284e-05	587.04	176.25	6.3998e-05	7.293e-05	303.52	160.97	95.678	52.562	6.8764e-05	97.209	142.882	194.065	118.067	83.049	227.392	114.073	82.206	87.664	261.461	176.715	85.954	89.497	91.996	95.066	342.867	92.363	-8191	255	
1313.260	1	1	0	0	0.35959	0.31342	0.11722	0.092233	0.46094	0.19705	0.33136	0.12398	0.18958	0.11232	0.073089	0.18498	0.072881	0.10096	0.29379	0.33066	-0.74792	-1.6208	-1.6979	-1.1292	-1.9937	-1.5688	-1.3604	-2.1604	-1.2437	-1.525	-1.8333	-1.1896	-1.9708	-1.6771	-1.2583	-2.1437	313.570	324.086	206.204	405.695	180.493	334.327	95.846	172.876	185.073	358.953	254.116	356.057	83.954	122.015	297.988	399.241	0.00095249	0.00084159	0.00021888	397.56	7.6493e-06	4.9479e-06	610.35	180.49	4.6983e-06	2.1251e-06	312.9	165.64	96.663	53.609	7.2071e-06	99.656	0.0040241	0.0065446	0.0018484	397.43	6.6239e-05	7.3971e-05	590.69	175.82	6.4462e-05	7.4072e-05	304.29	160.68	95.864	52.283	6.7597e-05	96.54	151.189	145.118	134.705	83.067	250.781	208.790	81.882	87.799	218.414	412.243	86.007	89.530	91.848	94.890	285.287	92.499	-8191	255	
1313.358	1	1	0	0	0.16111	0.32484	0.1606	0.048441	0.17529	0.22447	0.25599	0.3786	0.24032	0.23148	0.2376	0.18949	0.20322	0.35402	0.13636	0.24575	-0.78542	-1.6167	-1.8792	-1.1167	-1.9146	-1.7729	-1.2292	-2.2229	-1.3188	-1.4188	-2.1083	-1.3146	-1.9229	-2.0479	-1.2542	-2.2062	414.246	236.446	419.067	391.486	158.427	306.460	237.291	307.252	160.939	257.125	121.510	78.153	324.533	426.305	100.245	106.052	0.00097802	0.00052366	0.00014114	396.02	3.7728e-06	9.1003e-06	602.78	178.83	6.0225e-06	7.9271e-06	309.59	162.86	95.788	53.53	3.4614e-06	98.469	0.0040862	0.0066	0.0018598	394.7	6.5741e-05	7.4964e-05	585.9	174.89	6.4519e-05	7.4683e-05	300.75	158.63	94.779	51.978	6.8431e-05	95.462	138.775	129.056	180.681	83.197	218.161	297.432	82.248	87.458	252.190	220.873	86.005	89.553	91.628	95.127	400.233	92.200	-8191	255	
1313.452	1	1	0	0	0.17723	0.12579	0.042482	0.10382	0.21538	0.18395	0.22085	0.094248	0.07745	0.044758	0.19493	0.24498	0.096251	0.20836	0.17796	0.17997	-1.0104	-1.6688	-2.0458	-1.2417	-1.8417	-1.7625	-1.1167	-2.2438	-1.3042	-1.3896	-2.1104	-1.4937	-1.6417	-1.9292	-1.1583	-2.1708	331.588	379.105	216.092	74.963	385.649	350.326	337.848	309.307	276.648	314.262	168.892	334.466	335.236	408.755	125.665	337.438	0.00096183	0.00073571	0.00028816	399.58	7.4618e-06	2.4168e-06	601.38	177.97	5.725e-06	8.8348e-06	307.03	162.91	95.033	53.135	2.2975e-06	98.849	0.0039975	0.0065862	0.0018415	396.73	6.5393e-05	7.314e-05	583.4	174.35	6.3346e-05	7.2383e-05	300.32	158.23	94.435	51.868	6.7973e-05	95.588	150.043	147.489	128.086	82.862	201.668	69.632	82.284	87.525	256.954	232.065	86.190	89.275	92.070	95.060	171.326	92.533	-8191	255	
1313.549	1	1	0	0	0.061332	0.41073	0.19733	0.055566	0.039921	0.040808	0.057245	0.13528	0.1648	0.48022	0.11017	0.082146	0.12185	0.13464	0.19059	0.42747	-1.0771	-1.2542	-1.9792	-1.2667	-1.6354	-1.9833	-1.225	-1.9917	-1.5479	-1.1896	-2.0438	-1.4792	-1.675	-2.1437	-1.2979	-1.9312	324.751	132.595	267.293	412.638	348.406	161.116	426.204	419.736	268.858	337.670	408.606	406.394	270.706	310.246	236.165	332.781	0.0010258	0.0011284	0.0002618	397.05	1.1052e-05	3.6251e-06	602.27	178.43	8.1529e-06	1.7218e-06	309.18	164	95.779	53.395	1.6689e-06	99.237	0.0040002	0.0065137	0.001829	396.87	6.5175e-05	7.4624e-05	587.09	174.77	6.401e-05	7.4151e-05	300.58	158.93	95.092	52.061	6.8924e-05	96.08	143.032	146.025	154.032	83.089	220.944	250.999	82.515	87.618	116.910	241.706	86.122	89.649	92.246	95.373	243.917	92.605	-8191	255	
1313.645	1	1	0	0	0.12461	0.24387	0.33221	0.17874	0.16567	0.28006	0.18701	0.2	0.13948	0.24838	0.1915	0.42697	0.27742	0.26742	0.28294	0.28141	-1.3979	-1.275	-1.9104	-1.325	-1.4833	-2.1229	-1.4333	-2.1063	-1.7854	-1.3771	-2.05	-1.4854	-1.7354	-2.1813	-1.2792	-1.9042	100.377	233.882	319.446	327.223	172.949	409.084	367.244	286.440	305.835	310.399	401.249	381.330	168.633	71.816	288.719	371.015	0.0010971	0.00044732	0.00027045	397.39	6.0062e-06	1.1712e-05	604.48	179.94	5.3674e-06	2.07e-05	308.49	164.06	95.752	53.581	4.004e-06	99.305	0.0040434	0.0065007	0.0018544	395.38	6.516e-05	7.3949e-05	585.82	175.26	6.3871e-05	7.3963e-05	301.83	159.51	95.293	52.198	6.8234e-05	96.156	143.903	353.431	172.745	83.096	206.212	204.841	82.509	88.222	253.522	170.598	86.123	89.490	91.800	95.027	170.455	92.650	-8191	255	
1313.765	1	1	0	0	0.11468	0.16665	0.071766	0.11067	0.087692	0.3147	0.18302	0.28567	0.056308	0.11388	0.32964	0.14664	0.12867	0.12496	0.18734	0.30227	-1.3563	-1.0729	-2.0312	-1.3542	-1.3479	-2.15	-1.2896	-1.8167	-1.9562	-1.2083	-1.9667	-1.7146	-1.4167	-2.2438	-1.1104	-1.6375	158.732	94.258	102.324	388.642	95.922	410.078	365.012	356.014	311.374	230.373	346.677	386.373	317.956	230.313	348.217	375.541	0.0010163	0.00077652	0.00031524	398.36	6.389e-06	5.5034e-06	601	178.1	3.5249e-06	2.0046e-05	306.89	163.17	94.534	53.16	4.6523e-06	98.467	0.0039586	0.0066194	0.0018515	396.16	6.5592e-05	7.2871e-05	584.68	174.36	6.3513e-05	7.3572e-05	298.88	157.63	94.415	51.869	6.8737e-05	95.055	148.060	182.176	186.392	83.005	174.710	216.537	82.578	87.595	202.354	186.692	85.684	89.615	91.854	95.181	164.934	92.592	-8191	255	
1313.861	1	1	0	0	0.14573	0.3261	0.19765	0.16396	0.12359	0.17804	0.21136	0.13356	0.068896	0.14029	0.090046	0.27111	0.36879	0.20826	0.1024	0.17486	-1.3563	-0.95	-1.9375	-1.5562	-1.2062	-1.8917	-1.3583	-1.6083	-1.8563	-1.0979	-1.9083	-1.7313	-1.2167	-2.2292	-1.1208	-1.4292	364.597	285.448	384.178	410.830	323.536	317.806	335.464	243.814	91.787	270.698	319.905	335.850	365.174	376.424	280.698	114.878	0.0010506	0.00052417	0.00010589	395.12	4.1737e-06	8.9588e-06	594.26	177.28	7.1038e-06	7.4092e-06	303.69	162.18	95.211	53.083	3.228e-06	97.442	0.0039739	0.006372	0.001816	391.65	6.5903e-05	7.3562e-05	579.4	173.56	6.2819e-05	7.3786e-05	296.86	156.64	94.009	51.682	6.7363e-05	94.504	143.523	142.084	382.715	82.654	177.819	218.485	82.613	87.849	212.734	282.961	86.088	89.501	91.971	95.084	193.820	92.286	-8191	255	
1313.958	1	1	0	0	0.2783	0.091607	0.18446	0.13293	0.10786	0.099181	0.032746	0.19927	0.10301	0.30729	0.03498	0.19053	0.19619	0.031736	0.078115	0.18736	-1.7771	-1.275	-1.7521	-1.6333	-1.0125	-2.1458	-1.5417	-1.4646	-1.9729	-1.2771	-1.8833	-1.7583	-1.1229	-2.1729	-1.4562	-1.3937	259.785	377.008	360.402	89.413	75.809	234.858	79.641	308.260	80.549	306.186	182.067	88.216	345.958	270.319	229.468	387.208	0.00083895	0.0010265	0.00020711	396.63	4.679e-06	8.7616e-06	600.02	177.07	4.7482e-06	1.0888e-05	304.01	162.33	94.203	53.124	4.4028e-06	97.724	0.0039792	0.0065089	0.001842	394	6.399e-05	7.2764e-05	580.78	172.6	6.2182e-05	7.2059e-05	297	157.08	94.067	51.629	6.8278e-05	94.602	137.590	122.165	188.234	83.174	235.807	231.052	82.398	87.967	257.336	200.873	86.359	89.587	91.992	95.169	235.033	92.624	-8191	255	
1314.054	1	1	0	0	0.098632	0.33707	0.21561	0.27884	0.29823	0.12936	0.11887	0.22568	0.066011	0.12031	0.42751	0.34351	0.15935	0.21605	0.01778	0.38665	-1.45	-1.3188	-1.6125	-1.9729	-1.0896	-1.9438	-1.625	-1.2	-2.0333	-1.3792	-1.6021	-1.9729	-1.2333	-1.9979	-1.5167	-1.4188	139.938	317.758	291.598	317.815	295.158	355.581	96.078	347.594	279.034	293.920	374.640	338.727	217.488	363.405	236.788	335.244	0.0009318	0.00017159	0.00034595	395.63	4.2481e-06	4.295e-06	602.15	177.15	5.1995e-06	1.4846e-06	306.51	162.67	94.783	52.9	3.6641e-06	98.105	0.0039876	0.0065588	0.001822	393.67	6.3101e-05	7.214e-05	584.07	172.91	6.3148e-05	7.2614e-05	298.85	157.84	94.229	51.714	6.7513e-05	94.857	145.646	247.100	142.868	83.002	215.308	240.296	82.456	88.079	209.660	297.013	85.788	89.692	92.079	95.261	197.802	92.681	-8191	255	
1314.150	1	1	0	0	0.26194	0.24887	0.18509	0.15987	0.1575	0.12771	0.24027	0.21559	0.089702	0.19522	0.38583	0.33262	0.16847	0.25084	0.1758	0.24835	-1.5958	-1.2271	-1.3354	-1.8979	-1.0771	-1.8333	-1.6875	-1.1667	-2.1562	-1.3104	-1.3625	-2.2333	-0.99375	-1.7792	-1.9062	-1.3208	229.378	408.112	179.937	360.281	287.698	189.107	358.792	212.524	161.930	272.975	382.993	394.762	312.934	401.747	202.595	375.043	0.00094042	0.00069063	0.00015556	394.57	4.6719e-06	7.8755e-06	602.08	176.47	6.971e-06	4.1103e-06	302.87	161.79	93.968	52.606	7.8929e-06	96.607	0.0039067	0.0064897	0.0018568	393.77	6.3594e-05	7.2197e-05	583.05	172.01	6.2977e-05	7.305e-05	295.44	155.94	93.293	51.239	6.6758e-05	93.579	149.046	121.706	106.306	82.832	245.935	185.910	82.234	88.219	140.522	190.060	85.868	89.526	91.797	95.444	215.146	92.924	-8191	255	
1314.246	1	1	0	0	0.073979	0.22023	0.17834	0.030649	0.095467	0.15574	0.27294	0.21177	0.36592	0.045171	0.0374	0.24817	0.06399	0.35469	0.26219	0.42156	-1.5667	-1.3625	-1.2687	-2.0938	-1.225	-1.9875	-2.0667	-1.1042	-1.9	-1.5688	-1.3521	-2.0125	-1.0938	-1.7958	-1.6854	-1.2875	183.144	426.864	255.981	333.442	84.336	388.144	385.851	366.702	357.318	218.053	153.065	337.867	419.942	388.038	422.226	378.753	0.00096699	0.00072943	0.00026109	388.22	7.2544e-06	6.0082e-06	592.92	175.95	7.0686e-06	3.665e-06	301.5	160.71	94.841	52.565	5.0932e-06	97.723	0.00391	0.0064129	0.0018103	389.62	6.4492e-05	7.2264e-05	578.47	171.7	6.2685e-05	7.2506e-05	294.51	155.66	93.556	51.306	6.6982e-05	94.164	141.278	169.085	113.505	83.093	220.567	209.236	82.264	87.739	217.774	339.004	86.050	89.797	91.952	95.224	230.613	92.362	-8191	255	
1314.365	1	1	0	0	0.24076	0.28385	0.096111	0.14446	0.14217	0.087794	0.064015	0.10332	0.10542	0.23907	0.18939	0.051226	0.07707	0.12323	0.17717	0.064922	-1.5187	-1.5542	-1.2854	-2.3229	-1.2333	-1.4333	-1.925	-1.1313	-1.8396	-1.7854	-1.1417	-2.1917	-1.3563	-1.6958	-1.8646	-1.1625	165.058	300.905	419.730	332.302	282.492	361.866	402.914	261.090	215.539	205.900	118.668	256.884	103.765	371.790	109.211	340.770	0.00095519	0.00063969	0.0001256	391.78	9.7799e-06	7.3196e-06	595.05	174.76	7.6229e-06	2.1651e-06	302.63	160.59	94.474	52.691	2.0241e-06	97.11	0.0039696	0.0063798	0.0018295	391.09	6.4555e-05	7.272e-05	577.45	171.71	6.3546e-05	7.2566e-05	294.75	156.27	93.562	51.509	6.8341e-05	94.064	140.600	178.172	120.244	83.164	158.349	222.809	82.075	88.108	240.345	281.234	86.019	89.575	92.232	95.060	235.882	92.493	-8191	255	
1314.461	1	1	0	0	0.13466	0.0056396	0.38377	0.20351	0.15316	0.1011	0.047623	0.25479	0.21638	0.15647	0.30313	0.10499	0.16415	0.32446	0.29714	0.39892	-1.4354	-1.7437	-1.2313	-2.0667	-1.3625	-1.275	-1.9479	-1.1167	-1.7771	-1.7437	-1.2354	-2.1583	-1.4625	-1.5083	-2.2687	-1.2896	208.305	129.610	353.933	335.275	167.020	97.467	289.127	415.197	358.222	186.749	339.496	179.311	179.037	334.160	393.040	385.856	0.00088531	0.00099659	0.00022922	390.41	1.0891e-05	5.1731e-06	600.66	175.47	4.7047e-06	7.0347e-06	302.96	160.35	94.087	52.743	1.0318e-05	97.913	0.003993	0.0064423	0.0018458	391.61	6.4909e-05	7.4096e-05	579.49	172.06	6.3674e-05	7.411e-05	295.85	156.34	93.667	51.497	6.7299e-05	94.32	143.695	106.632	116.998	83.173	202.894	232.811	82.035	87.944	131.565	152.799	85.960	89.960	91.687	95.366	210.955	92.482	-8191	255	
1314.557	1	1	0	0	0.11571	0.12016	0.080125	0.21746	0.22776	0.085612	0.13543	0.31947	0.24456	0.020851	0.12031	0.4958	0.13089	0.19139	0.11383	0.071392	-1.4312	-1.6146	-1.1417	-1.9458	-1.3458	-1.3687	-2.1229	-1.2521	-1.6021	-1.7979	-1.1667	-2.0583	-1.4771	-1.3146	-1.9417	-1.4396	362.225	278.005	113.527	236.827	320.374	317.848	124.784	400.530	283.704	210.372	425.397	387.401	388.196	380.877	147.662	199.130	0.00093918	0.0003022	3.5122e-05	395.74	8.772e-06	9.188e-06	592.95	175.49	1.5303e-05	3.0771e-06	300.95	161.04	93.3	52.415	7.381e-06	95.872	0.0039771	0.0065636	0.0018229	392.86	6.4535e-05	7.3588e-05	577.48	171.49	6.2595e-05	7.1912e-05	294.3	155.7	93.009	51.094	6.7239e-05	93.046	147.100	78.122	349.713	83.179	190.443	261.110	82.375	87.764	209.888	206.039	85.905	90.049	92.244	95.596	213.830	92.713	-8191	255	
1314.629	1	1	0	0	0.17134	0.085361	0.12776	0.16951	0.10239	0.13918	0.1517	0.12913	0.022624	0.19234	0.26125	0.19427	0.268	0.26114	0.30784	0.28375	-1.0333	-1.8479	-0.96667	-1.9021	-1.5958	-1.1958	-2.0938	-1.4833	-1.3375	-2.1021	-1.1604	-1.8396	-1.6875	-1.2146	-2.1104	-1.4417	306.003	174.119	285.392	343.760	299.075	181.189	343.035	317.434	188.770	156.622	119.482	383.585	354.400	352.259	283.705	420.563	0.00097513	0.00048185	0.00024885	391.3	5.6793e-06	9.9075e-06	591.05	174.95	6.9211e-06	8.878e-06	300.39	160.96	93.115	52.23	8.2712e-06	95.48	0.0039243	0.0062769	0.0018103	391.33	6.3232e-05	7.315e-05	574.01	170.87	6.2561e-05	7.2673e-05	292.88	154.94	92.518	50.928	6.6309e-05	92.704	144.169	176.294	160.168	83.015	269.087	183.087	82.701	88.063	212.232	218.652	85.901	89.819	92.204	95.547	243.064	92.895	-8191	255	
1314.750	1	1	0	0	0.17309	0.23638	0.2491	0.15956	0.25684	0.098562	0.106	0.22514	0.058273	0.099298	0.316	0.1116	0.10913	0.15345	0.10449	0.33433	-0.95208	-1.9875	-1.1875	-1.7917	-1.7896	-1.1938	-2.0708	-1.3625	-1.2667	-2.0125	-1.3354	-1.6417	-1.7938	-1.3104	-1.9417	-1.6854	336.239	258.727	76.945	254.932	428.441	136.291	328.769	382.392	126.727	293.075	153.112	117.065	287.554	74.980	218.523	378.213	0.00095325	0.00069932	0.00021644	394.38	4.5659e-06	4.4031e-06	595.31	175.73	4.4637e-06	6.2051e-06	298.68	159.44	93.805	52.097	1.1493e-05	95.547	0.0039039	0.0063958	0.0018205	391.52	6.4772e-05	7.3126e-05	576.93	171.06	6.2531e-05	7.2518e-05	291.83	154.6	92.804	50.923	6.7479e-05	92.808	145.728	171.759	215.086	83.313	176.471	298.525	82.578	88.178	245.283	174.597	86.109	89.841	92.147	95.633	191.624	92.416	-8191	255	
1314.846	1	1	0	0	0.21245	0.27056	0.1668	0.37149	0.12088	0.27156	0.22839	0.32774	0.11013	0.1944	0.31849	0.11083	0.17157	0.026226	0.046366	0.29917	-0.8375	-2.1688	-1.2375	-1.7208	-2.0375	-1.1375	-2.0396	-1.7812	-1.3062	-2.0604	-1.4208	-1.6708	-2.1229	-1.1896	-2.0729	-1.8354	334.055	143.238	187.656	278.483	215.477	134.617	421.724	375.290	369.718	343.047	390.410	403.864	344.542	132.809	387.144	307.125	0.00090128	0.00076731	0.00018426	392.21	6.1665e-07	7.0909e-06	595.33	174.65	4.606e-06	8.2822e-06	301.81	160.23	93.41	52.498	1.2014e-05	96.236	0.0039835	0.0066183	0.0018392	392.5	6.4833e-05	7.4064e-05	577.96	171.46	6.3685e-05	7.4559e-05	294.9	155.41	92.846	51.116	6.737e-05	93.35	147.944	154.583	118.171	83.185	405.024	160.076	82.850	88.255	188.260	183.804	86.572	90.220	92.912	95.626	213.066	92.726	-8191	255	
1314.942	1	1	0	0	0.17093	0.19475	0.19442	0.11094	0.18447	0.15749	0.23355	0.17557	0.13829	0.12217	0.3267	0.29798	0.20826	0.12212	0.27379	0.093989	-0.60417	-1.9625	-1.2271	-1.225	-1.9646	-1.0562	-1.7687	-1.7583	-1.0042	-1.8542	-1.6292	-1.5458	-2.1063	-1.125	-1.675	-2.1125	157.439	94.534	198.114	342.529	385.440	141.060	84.301	78.468	214.506	140.791	384.725	397.773	354.001	84.428	342.704	84.664	0.0010084	0.00077381	0.00015949	398.11	3.6509e-06	4.4555e-06	596.58	175.18	4.9685e-06	3.9402e-06	301.6	160.66	93.573	52.154	5.1362e-06	95.726	0.0039864	0.006404	0.0018026	393.32	6.37e-05	7.2657e-05	579.61	171.15	6.2007e-05	7.3482e-05	293.29	155.21	92.822	50.876	6.7998e-05	92.646	146.986	161.665	191.444	83.772	104.526	139.600	82.978	88.342	212.032	224.092	86.269	89.968	92.168	95.120	233.140	92.763	-8191	255	
1315.038	1	1	0	0	0.2129	0.10749	0.33739	0.12231	0.1789	0.20159	0.11988	0.14687	0.42228	0.17149	0.32067	0.074336	0.10833	0.038832	0.17095	0.063455	-0.65208	-2.0333	-1.4688	-1.3208	-1.9708	-1.1771	-1.7167	-1.9292	-1.0396	-2.0208	-1.4521	-1.325	-2.1813	-1.3729	-1.525	-1.95	158.299	388.809	337.634	201.756	132.291	220.592	169.025	398.650	184.797	217.172	358.342	391.286	349.290	126.890	84.160	410.869	0.0008934	0.00078072	0.00025184	394.5	4.2167e-06	5.8584e-06	591.48	174.42	6.3482e-06	6.2011e-06	300.01	158.52	92.821	52.411	1.9921e-06	95.716	0.0039654	0.0064431	0.0018138	391.84	6.394e-05	7.1773e-05	574.56	170.33	6.2239e-05	7.2877e-05	292.22	154.14	92.709	50.917	6.7238e-05	92.42	141.754	151.102	125.371	83.907	209.258	194.379	82.344	88.093	200.880	195.455	86.266	89.890	92.664	95.376	160.031	92.966	-8191	255	
1315.157	1	1	0	0	0.11367	0.18243	0.12822	0.088256	0.12478	0.062701	0.15419	0.18977	0.10337	0.23309	0.092948	0.059621	0.15168	0.20748	0.27388	0.13576	-0.5875	-1.775	-1.6917	-1.1187	-2.2083	-1.3229	-1.675	-2	-1.2417	-1.9	-1.7729	-1.2896	-2.1458	-1.3333	-1.5958	-2.0167	156.390	324.064	181.322	282.987	73.412	73.778	311.662	360.813	133.269	246.988	362.751	109.964	90.768	386.576	361.579	373.800	0.0010338	0.00066074	0.00013448	396.64	3.2396e-06	7.3084e-06	595.11	174.11	5.3724e-06	1.1204e-05	300.54	159.39	93.388	52.031	1.2212e-05	95.848	0.0039731	0.0065161	0.0017926	391.95	6.4279e-05	7.2933e-05	576.57	170.02	6.2697e-05	7.4259e-05	292.38	154.52	92.722	50.812	6.8253e-05	92.825	144.550	124.054	188.685	82.760	97.877	230.740	82.248	87.361	206.675	97.913	85.432	89.435	91.954	94.783	211.469	92.308	-8191	255	
1315.230	1	1	0	0	0.1222	0.067208	0.1576	0.1237	0.20085	0.29031	0.14353	0.35835	0.17318	0.096236	0.092769	0.16894	0.22005	0.32318	0.26483	0.23433	-0.74792	-1.725	-1.8917	-1.2625	-1.8563	-1.5958	-1.4792	-2.2104	-1.1646	-1.6437	-1.9	-1.2687	-1.9979	-1.6354	-1.0688	-2.1417	184.565	299.609	193.403	293.400	70.165	413.829	403.369	125.690	72.057	333.266	418.047	372.684	303.491	76.338	361.257	394.337	0.00086879	0.00074336	0.00031617	394.01	5.5016e-06	4.8102e-06	594.48	174.41	6.3908e-06	3.0385e-06	299.63	159.28	92.528	52.175	8.635e-06	96.333	0.0039447	0.0065712	0.00181	393.67	6.4516e-05	7.3781e-05	577.74	170.53	6.2665e-05	7.3208e-05	293.19	154.95	92.769	50.961	6.7208e-05	93.257	145.714	195.072	188.437	82.441	107.228	222.168	82.081	87.509	221.718	121.708	85.579	89.250	91.766	94.968	257.328	92.051	-8191	255	
1315.326	1	1	0	0	0.14398	0.11083	0.26759	0.30439	0.36843	0.20713	0.18473	0.26817	0.39642	0.15753	0.25706	0.14553	0.074868	0.37246	0.035402	0.39177	-0.63958	-1.5417	-1.8521	-1.1187	-1.8021	-1.6417	-1.3542	-2.0167	-1.3208	-1.7146	-2.0396	-1.3146	-2.0563	-1.7042	-1.2812	-2.175	190.248	416.484	349.176	93.896	340.565	291.708	293.091	390.655	126.307	88.230	426.980	123.202	336.836	104.070	96.978	400.646	0.00092931	0.00032509	0.00029697	394.38	2.9735e-06	1.4192e-05	597.14	174.78	8.1005e-06	5.6871e-06	300.74	159.19	93.292	52.236	7.3848e-06	96.088	0.0039624	0.0064807	0.0018139	392	6.3955e-05	7.2413e-05	579.58	171.55	6.3139e-05	7.3828e-05	293.6	154.83	92.986	50.815	6.8121e-05	92.91	145.501	70.011	156.017	82.737	190.711	170.480	82.112	87.569	224.110	186.195	85.654	89.226	91.398	94.520	251.485	92.262	-8191	255	
1315.445	1	1	0	0	0.050711	0.061972	0.3285	0.18368	0.13798	0.38897	0.096531	0.2396	0.29812	0.24706	0.1334	0.043926	0.12121	0.12335	0.11075	0.30504	-0.9375	-1.4271	-1.8229	-1.3229	-1.7687	-1.7083	-1.1458	-2.1292	-1.3687	-1.4854	-2.0542	-1.0896	-1.9312	-1.8687	-1.2292	-2.2917	79.921	391.532	325.880	228.430	349.413	392.954	411.970	114.468	215.565	384.506	113.060	84.642	400.922	382.051	202.315	361.230	0.00078004	0.00053999	0.00036358	389.49	8.908e-06	7.2402e-06	593.27	173.75	4.4144e-06	4.0746e-06	297.63	158.59	93.534	52.06	3.467e-06	95.59	0.0039517	0.0064635	0.0018092	391.06	6.3394e-05	7.2392e-05	574.84	170.07	6.1736e-05	7.329e-05	291.74	153.64	92.533	50.785	6.7021e-05	92.596	145.534	129.323	120.883	82.800	195.626	238.120	81.796	87.388	130.557	275.849	85.676	89.135	92.151	94.907	216.780	92.076	-8191	255	
1315.541	1	1	0	0	0.17006	0.20805	0.059554	0.068783	0.089242	0.020076	0.1338	0.13224	0.09422	0.13076	0.19018	0.24246	0.083692	0.15844	0.13846	0.20519	-0.7875	-1.2854	-1.8937	-1.0396	-1.5708	-1.7563	-1.1646	-1.9833	-1.4958	-1.225	-1.9771	-1.3104	-1.7104	-2.0958	-1.2062	-2.0208	216.241	296.695	327.036	300.539	346.998	161.521	122.720	211.249	221.232	214.901	272.717	418.505	245.268	355.953	91.546	354.998	0.00086542	0.00076178	0.0001482	392.62	6.0707e-06	4.1991e-06	594.47	175.32	6.0441e-06	4.245e-06	298.65	158.89	92.909	51.963	6.4059e-06	95.748	0.0039582	0.006465	0.0017947	390.13	6.454e-05	7.3191e-05	575.07	170.71	6.1731e-05	7.222e-05	291.64	154.35	92.705	50.739	6.8106e-05	92.619	145.541	125.659	181.648	82.385	162.065	177.021	82.259	87.355	176.469	210.493	85.479	89.459	91.811	94.658	173.054	92.226	-8191	255	
1315.638	1	1	0	0	0.22708	0.28615	0.040272	0.14859	0.046068	0.27058	0.064952	0.22159	0.18015	0.10516	0.32687	0.026066	0.20915	0.10336	0.15538	0.26619	-1.2354	-1.1542	-1.9688	-1.3104	-1.575	-1.9625	-0.98542	-1.7146	-1.5271	-1.1958	-2.0771	-1.3854	-1.3104	-2.0812	-1.2458	-2.0083	372.436	240.506	268.716	375.878	190.801	410.859	355.248	424.971	351.447	241.430	406.694	309.936	368.796	160.617	206.223	394.302	0.00094734	0.00094346	0.00011519	392.66	5.2045e-06	1.0798e-05	595.12	173.83	8.5284e-06	7.6952e-06	298.8	159.53	92.764	52.182	8.853e-06	95.975	0.0038832	0.0064124	0.0017917	392.08	6.3261e-05	7.2269e-05	577.3	170.27	6.2259e-05	7.2388e-05	292.76	154.33	92.298	50.699	6.6372e-05	92.805	145.451	70.265	193.921	82.853	198.831	178.598	81.707	87.682	238.931	169.011	85.320	89.247	92.004	94.743	174.890	92.194	-8191	255	
1315.758	1	1	0	0	0.4111	0.23646	0.18325	0.2889	0.21161	0.10188	0.090881	0.090656	0.2035	0.18258	0.16497	0.22541	0.48634	0.18601	0.1551	0.32717	-1.2313	-0.99375	-1.9271	-1.2896	-1.3583	-1.9937	-1.2146	-1.6646	-1.8542	-1.1375	-1.975	-1.3604	-1.4021	-2.1021	-1.2812	-1.8958	162.661	347.323	296.463	366.330	120.779	323.437	418.866	119.566	115.037	333.812	96.840	292.662	385.492	110.304	428.116	328.960	0.00086889	0.00075766	0.00018516	393.15	3.2288e-06	3.3206e-06	601.74	174.57	6.3751e-06	5.9215e-06	301.41	159.89	93.201	52.198	8.5914e-06	95.422	0.0038817	0.0064192	0.0018106	392.11	6.4116e-05	7.2294e-05	580.94	171.17	6.1364e-05	7.1682e-05	293.8	155.32	92.629	50.721	6.6743e-05	92.615	145.517	155.217	154.500	82.990	137.176	69.733	81.853	87.587	198.821	129.994	85.564	89.182	92.290	94.735	233.422	92.347	-8191	255	
1315.854	1	1	0	0	0.11534	0.18751	0.22107	0.13187	0.14439	0.077814	0.21939	0.16344	0.28049	0.15331	0.031866	0.15878	0.0047631	0.27928	0.28575	0.058344	-1.3563	-0.90833	-1.9958	-1.6083	-1.1437	-2.1708	-1.2812	-1.6458	-1.9562	-1.0583	-1.9667	-1.7917	-1.2854	-2.0792	-1.25	-1.6771	303.084	222.300	112.753	88.637	116.938	359.782	73.158	256.603	93.491	224.594	390.415	117.104	165.129	380.455	186.353	183.508	0.00092056	0.00047202	0.00016045	391.95	6.428e-06	5.0615e-06	597.26	174.2	8.786e-06	8.0056e-06	299.64	158.09	92.609	51.764	7.934e-06	94.964	0.0038778	0.0063299	0.0018087	390.54	6.3566e-05	7.1486e-05	577.42	170.59	6.0794e-05	7.1924e-05	291.67	153.52	91.828	50.455	6.5553e-05	91.809	146.387	131.052	118.323	82.258	195.017	203.121	82.072	87.485	166.926	242.987	85.490	89.046	92.008	94.640	238.832	92.341	-8191	255	
1315.926	1	1	0	0	0.052305	0.17829	0.2493	0.35847	0.076945	0.13385	0.1509	0.19198	0.281	0.21202	0.2814	0.11949	0.11755	0.072202	0.3529	0.24937	-1.5312	-1.125	-1.5562	-1.5896	-1.1167	-2.1479	-1.5708	-1.3208	-1.9583	-1.0688	-1.9875	-1.8458	-1.1896	-2.1604	-1.5625	-1.5792	278.406	185.776	302.231	348.117	227.092	400.604	165.298	360.974	150.609	229.645	345.024	383.781	286.543	397.025	321.786	388.695	0.00084734	0.00061058	0.00010788	391.4	9.0224e-06	1.0507e-05	589.56	175.32	6.1873e-06	8.6482e-06	298.08	158.59	92.276	51.725	5.0149e-06	95.227	0.0038776	0.0064379	0.0017919	390.79	6.4416e-05	7.2333e-05	574.48	170.69	6.1676e-05	7.3244e-05	291.42	154.01	92.003	50.533	6.6579e-05	92.338	147.506	209.233	81.328	82.322	136.994	185.245	81.817	86.930	225.628	253.003	85.457	88.968	91.521	94.666	242.734	92.199	-8191	255	
1316.047	1	1	0	0	0.11803	0.11141	0.20036	0.12192	0.11984	0.20797	0.24597	0.19377	0.090643	0.21823	0.24927	0.21544	0.2805	0.16321	0.094412	0.23339	-1.7125	-1.1187	-1.7521	-1.7771	-1.0688	-1.7854	-1.5667	-1.2375	-1.975	-1.3292	-1.8417	-1.9125	-1.3125	-2.075	-1.3396	-1.3875	120.033	202.977	206.963	89.707	352.707	352.088	389.418	313.491	414.501	374.593	358.478	357.585	107.316	406.507	177.217	363.413	0.00089641	0.00052119	0.00025582	391.4	4.0139e-06	5.6719e-06	594.65	174.55	7.4193e-06	8.9239e-06	299.94	159.44	93.02	52.303	6.5801e-06	95.947	0.00388	0.0063046	0.0017968	391.16	6.3652e-05	7.1449e-05	577.39	170.19	6.1937e-05	7.2044e-05	293.2	154.88	92.457	50.818	6.5339e-05	92.902	146.869	146.729	94.873	82.607	203.568	124.191	81.889	87.536	176.494	206.328	85.649	89.291	91.739	94.819	187.326	92.239	-8191	255	
1316.143	1	1	0	0	0.23162	0.07998	0.29609	0.041412	0.2244	0.1709	0.087186	0.19029	0.272	0.27072	0.058215	0.13885	0.090133	0.15124	0.27312	0.15937	-1.675	-1.1583	-1.5375	-2.0875	-0.99792	-1.9542	-1.6854	-1.3563	-2.1208	-1.3	-1.7229	-1.9021	-1.1021	-1.975	-1.6	-1.45	119.575	193.072	106.930	275.250	94.413	173.051	113.112	305.576	408.316	98.759	232.836	321.733	126.666	423.067	122.692	303.833	0.00094934	0.00036974	0.00020617	393.81	5.7101e-06	3.0075e-06	595.14	174.66	1.5843e-06	8.6529e-06	301.27	160.79	92.792	52.633	7.8373e-06	96.468	0.00388	0.0063067	0.0017729	392.02	6.2728e-05	7.2912e-05	579.75	171.15	6.1075e-05	7.1795e-05	294.34	155.63	92.581	51.11	6.7788e-05	93.389	141.255	237.801	177.762	82.715	277.968	183.496	81.711	87.412	121.705	254.073	85.570	89.197	91.636	94.905	214.005	92.258	-8191	255	
1316.239	1	1	0	0	0.024265	0.1468	0.03309	0.14299	0.17421	0.057748	0.21579	0.21663	0.16146	0.24711	0.40288	0.23266	0.31356	0.19242	0.091143	0.1281	-1.6875	-1.3542	-1.1875	-2.0438	-1.1458	-1.7437	-1.9188	-1.2292	-1.8521	-1.425	-1.4396	-2.0604	-1.1354	-1.6646	-1.7687	-1.1688	229.745	258.961	311.586	410.216	311.207	212.647	349.403	318.182	285.948	369.056	365.422	77.308	109.967	341.417	188.687	244.645	0.00083301	0.001113	0.00013022	395.42	5.914e-06	2.8166e-06	594.14	172.93	4.5692e-06	1.0473e-05	299.43	159.8	92.152	52.077	1.8149e-06	95.233	0.0038853	0.0064205	0.0018026	391.38	6.3058e-05	7.2191e-05	577.3	169.89	6.0551e-05	7.1497e-05	291.63	154.5	91.732	50.581	6.5991e-05	92.042	148.532	151.541	112.621	82.550	180.714	206.039	81.774	87.784	178.502	197.172	85.789	89.501	91.582	94.895	208.369	92.214	-8191	255	
1316.333	1	1	0	0	0.051351	0.17008	0.15219	0.4922	0.055816	0.30337	0.28792	0.17719	0.11461	0.14213	0.10489	0.043806	0.34549	0.24848	0.05088	0.11523	-1.725	-1.1708	-1.2917	-1.9937	-1.0812	-1.5896	-1.9625	-1.0229	-1.8312	-1.575	-1.4604	-2.0875	-1.3083	-1.5333	-2.1042	-1.2417	408.980	205.440	289.471	307.602	276.363	126.574	368.671	364.048	366.818	128.170	414.608	175.958	339.794	78.190	150.465	298.943	0.00085803	0.00050535	6.6931e-05	390.15	6.141e-06	6.4493e-06	588.16	173.1	1.664e-06	8.8801e-06	298.59	159.43	92.377	51.757	6.124e-06	95.637	0.0038919	0.0062723	0.001773	390.69	6.3542e-05	7.2293e-05	574.24	169.34	6.1425e-05	7.2401e-05	290.98	154.32	91.723	50.494	6.5098e-05	92.506	140.979	211.824	153.242	82.777	181.217	176.635	82.127	87.398	297.639	202.719	85.952	89.565	91.464	94.836	221.365	92.322	-8191	255	
1316.454	1	1	0	0	0.12746	0.086992	0.074685	0.15062	0.25544	0.091966	0.16994	0.13789	0.23369	0.18243	0.29378	0.069039	0.15249	0.32581	0.12869	0.10821	-1.5167	-1.6562	-1.1625	-2.0292	-1.3687	-1.6208	-2.0333	-1.1063	-1.825	-1.6208	-1.1479	-2.0438	-1.6187	-1.5562	-2.0021	-1.3375	151.756	202.604	177.672	339.262	402.868	397.981	360.679	301.696	96.743	388.125	348.896	262.313	168.588	376.163	327.110	348.164	0.00092519	0.0011656	0.00025079	392.88	6.1018e-06	6.488e-06	594.48	174.94	1.0855e-05	1.3351e-05	301.22	159.56	93.109	52.212	9.5202e-06	96.617	0.0038662	0.0062613	0.0017828	391.38	6.3341e-05	7.1035e-05	578.93	170.51	6.3347e-05	7.0789e-05	294.26	155.09	92.466	50.928	6.5898e-05	93.563	148.973	160.638	105.763	82.856	208.751	239.094	81.851	87.567	232.337	181.253	85.789	89.280	91.901	95.016	206.307	92.114	-8191	255	
1316.526	1	1	0	0	0.048151	0.11491	0.10214	0.20958	0.12246	0.15107	0.16026	0.099214	0.092446	0.20691	0.11752	0.21771	0.17715	0.21617	0.18903	0.29161	-1.2104	-1.5146	-1.0333	-1.9979	-1.2771	-1.3271	-1.9771	-1.1208	-1.7229	-1.7333	-1.1396	-1.7708	-1.6646	-1.3	-1.9	-1.3917	302.931	354.404	358.573	208.322	174.650	182.004	81.300	412.973	257.970	390.097	108.627	74.396	310.728	394.310	255.625	345.730	0.0009301	0.00099469	0.00010565	394.12	4.8328e-06	6.7091e-06	602.39	175.99	5.9831e-06	1.0405e-05	304.27	161.52	93.507	52.696	6.3189e-06	97.667	0.0038746	0.0063047	0.0018042	392.54	6.3043e-05	7.1621e-05	583.44	171.26	6.1509e-05	7.0865e-05	295.86	156.72	93.114	51.365	6.5571e-05	94.536	141.948	126.069	138.736	83.346	147.614	198.294	81.969	87.526	230.019	217.440	86.016	89.694	91.803	95.288	212.270	92.352	-8191	255	
1316.622	1	1	0	0	0.14504	0.076074	0.088862	0.11779	0.14789	0.065346	0.15392	0.24171	0.0336	0.015391	0.19135	0.30851	0.22114	0.48325	0.14593	0.076302	-1.2563	-1.7354	-1.0208	-2.0708	-1.6125	-1.0146	-1.8875	-1.2354	-1.5063	-1.9562	-1.0792	-1.8604	-1.6167	-1.1688	-1.8813	-1.4646	308.874	247.983	306.609	102.417	420.602	91.193	362.468	367.121	208.863	258.977	108.017	388.351	288.729	382.950	282.286	366.978	0.00090468	0.00053211	0.00021523	392.92	2.2607e-07	1.0977e-05	599.82	175.43	6.79e-06	1.3793e-05	303.68	161.49	93.629	52.101	9.1036e-06	96.184	0.0038656	0.0062868	0.0017916	393.37	6.339e-05	7.1505e-05	582.81	171.42	6.1615e-05	7.0316e-05	294.85	156.37	92.633	50.974	6.5707e-05	93.273	143.866	108.251	141.100	83.131	159.723	162.518	82.301	87.430	227.957	192.271	85.697	89.471	92.131	95.056	205.339	92.290	-8191	255	
1316.718	1	1	0	0	0.14101	0.083783	0.059561	0.077637	0.21554	0.20427	0.19395	0.21849	0.010417	0.22011	0.020807	0.29182	0.045755	0.04627	0.16535	0.22348	-0.98958	-1.9083	-1.1583	-1.8563	-1.5896	-1.0604	-2.05	-1.6042	-1.1938	-1.9438	-1.2875	-1.7542	-1.9042	-1.1604	-1.7708	-1.5812	388.767	335.635	281.787	192.858	417.424	333.267	305.329	340.269	128.078	343.612	339.138	86.153	380.817	280.411	385.674	73.827	0.00085065	0.00078238	0.00039421	391.26	6.2482e-06	7.8456e-06	596.34	174.24	7.0542e-06	1.4472e-05	300.48	160.68	93.884	52.34	3.5357e-06	96.042	0.003815	0.0062337	0.0017813	392.08	6.3094e-05	7.0494e-05	578.41	170.88	6.0956e-05	7.0549e-05	293.49	155.55	92.744	50.986	6.5599e-05	93.324	143.277	153.778	102.554	82.803	227.383	167.478	82.095	87.310	240.015	270.916	85.817	89.844	91.554	94.886	203.401	91.984	-8191	255	
1316.839	1	1	0	0	0.27895	0.37584	0.09492	0.050493	0.093561	0.033132	0.17418	0.085171	0.073186	0.22573	0.33115	0.13304	0.22673	0.13475	0.2375	0.19029	-0.96875	-1.8875	-1.1354	-1.5917	-1.8646	-0.91875	-2.1208	-1.4792	-1.0833	-2.0167	-1.3542	-1.7542	-1.8708	-1.175	-1.8021	-1.7271	369.685	274.657	388.572	126.228	380.234	237.494	76.179	93.711	264.096	428.338	377.255	301.840	412.851	81.266	79.706	370.039	0.001021	7.7323e-05	0.00018873	392.33	6.7023e-06	8.4145e-06	598.24	175.37	4.4369e-06	8.4189e-06	301.66	161.27	93.353	52.706	8.8198e-06	96.675	0.003883	0.0062747	0.0018029	391.92	6.2882e-05	7.2438e-05	580.47	171.51	6.1131e-05	7.1795e-05	294.18	156.11	92.719	51.304	6.5894e-05	93.734	146.046	132.800	161.997	83.078	198.465	203.715	82.661	87.364	191.012	186.124	85.595	89.526	92.008	94.928	201.029	92.127	-8191	255	
1316.935	1	1	0	0	0.12607	0.14085	0.060704	0.31351	0.18946	0.19199	0.076645	0.1099	0.14304	0.26409	0.091706	0.11885	0.18874	0.045852	0.24564	0.15696	-0.92917	-1.9229	-1.2	-1.3375	-1.8146	-1.0083	-2.0479	-1.6479	-1.1396	-1.9229	-1.4271	-1.4792	-1.9042	-1.0896	-1.5812	-1.8687	73.719	72.524	173.867	70.447	337.851	199.566	395.229	358.033	112.016	94.069	315.795	320.570	91.878	200.969	70.326	362.545	0.00097782	0.00062611	0.00017128	394.73	5.897e-06	6.8554e-06	599.7	176.28	2.3111e-06	1.17e-05	305.66	162.49	93.751	52.579	6.3991e-06	97.34	0.0038154	0.0062167	0.0017562	392.79	6.1017e-05	7.085e-05	582.83	171.72	6.0598e-05	6.9403e-05	296.6	157.15	92.939	51.337	6.4438e-05	94.12	143.037	176.496	178.012	82.589	208.866	207.925	82.280	87.571	286.556	191.808	85.571	89.449	91.889	94.542	227.780	92.198	-8191	255	
1317.031	1	1	0	0	0.31961	0.18788	0.27983	0.10134	0.1563	0.15951	0.018517	0.26555	0.16115	0.080897	0.17734	0.29941	0.17636	0.42929	0.13766	0.36701	-0.81458	-1.9542	-1.4188	-1.2375	-1.9875	-1.0333	-1.6542	-1.8292	-1.0792	-1.725	-1.5938	-1.375	-1.8708	-1.1083	-1.525	-1.9625	183.351	331.578	365.213	418.892	404.136	418.788	334.925	131.043	274.981	201.348	334.438	371.650	360.089	354.174	127.679	396.470	0.00098384	0.00036599	0.00019418	395.88	4.977e-06	4.4142e-06	599.8	176.58	1.3511e-06	1.1202e-05	301.68	159.97	93.343	52.445	3.0248e-06	96.972	0.0037871	0.0061164	0.0017764	393.96	6.1205e-05	7.0324e-05	582.69	171.75	6.0887e-05	7.021e-05	295.42	155.63	92.75	51.033	6.4907e-05	93.527	146.406	267.912	174.376	82.910	188.839	166.326	82.432	87.815	142.049	280.883	85.638	89.547	91.796	94.999	234.923	92.469	-8191	255	
1317.127	1	1	0	0	0.10699	0.16664	0.15963	0.18495	0.26129	0.1925	0.051245	0.22687	0.19418	0.14671	0.15145	0.34325	0.33604	0.32669	0.16464	0.22573	-0.56667	-1.7917	-1.3271	-1.05	-1.9854	-1.2021	-1.6812	-1.8833	-1.1292	-1.6792	-1.5479	-1.3271	-2.0208	-1.4479	-1.4729	-2.2	200.205	228.902	319.572	69.957	388.417	323.113	267.008	321.865	219.785	198.683	385.177	371.765	101.201	399.189	315.281	403.186	0.00091086	0.00062189	0.00019515	393.84	5.3591e-06	5.3467e-06	600.76	174.84	8.7246e-06	8.5282e-06	301.43	160.46	94.311	52.559	9.9148e-06	96.785	0.0038352	0.006188	0.0017759	391.56	6.1428e-05	7.0977e-05	579.96	170.73	6.1325e-05	7.0139e-05	293.83	155.54	92.73	51.131	6.5097e-05	93.637	143.954	162.751	156.343	82.940	183.304	151.816	81.933	87.550	198.339	196.825	85.685	89.512	91.922	94.702	243.205	92.363	-8191	255	
1317.223	1	1	0	0	0.33086	0.13461	0.090275	0.42446	0.071037	0.16276	0.13037	0.20893	0.2253	0.26119	0.23607	0.13093	0.32745	0.41362	0.26742	0.04664	-0.60625	-1.8583	-1.6792	-1.1104	-2.0521	-1.2062	-1.4354	-2.1292	-1.075	-1.8062	-1.6979	-1.2125	-1.9833	-1.6479	-1.3583	-2.1562	395.031	313.386	85.342	258.220	364.756	423.978	226.608	135.877	399.135	344.555	369.048	380.024	143.143	374.270	284.555	399.954	0.00087447	0.00061074	0.00015329	395.57	5.165e-06	1.4191e-05	599.81	175.73	6.2723e-06	8.7915e-06	302.88	160.7	93.584	52.791	8.0189e-06	97.798	0.003866	0.006213	0.0017482	391.63	6.2636e-05	7.0347e-05	581.17	171.91	6.1104e-05	6.9285e-05	294.96	156.24	92.883	51.436	6.5319e-05	94.482	148.493	166.839	108.718	82.831	240.122	215.979	82.374	87.867	234.800	254.138	85.856	90.104	92.092	94.844	199.854	92.269	-8191	255	
1317.319	1	1	0	0	0.063969	0.30929	0.061108	0.0094202	0.25039	0.069198	0.28649	0.17827	0.11571	0.26125	0.17057	0.24458	0.24963	0.10716	0.078337	0.34528	-0.8	-1.7333	-1.6958	-0.93125	-1.8271	-1.4167	-1.0396	-2.0229	-1.2583	-1.4958	-1.8771	-1.1833	-1.9625	-1.6542	-1.1208	-2.0958	321.353	126.949	386.016	85.572	138.360	124.381	387.556	399.769	384.324	262.262	354.367	420.230	117.149	406.284	209.620	360.841	0.00090703	0.00040841	4.7815e-05	392.96	7.6747e-06	1.5525e-06	602.9	177.2	4.6721e-06	9.3003e-06	306.27	163.74	94.475	52.997	1.0791e-05	98.386	0.0038601	0.0062473	0.0017472	393.58	6.1335e-05	7.0329e-05	584.57	172.5	6.0012e-05	7.0915e-05	297.71	157.95	93.626	51.592	6.4688e-05	95.19	143.649	133.767	282.818	83.024	183.613	153.545	82.598	87.856	174.282	221.736	85.900	89.620	91.894	95.410	236.988	92.548	-8191	255	
1317.438	1	1	0	0	0.11472	0.25472	0.16319	0.20016	0.31314	0.2613	0.23132	0.18433	0.16538	0.18171	0.18031	0.24112	0.12758	0.077623	0.20159	0.063436	-0.90208	-1.4333	-1.6667	-0.91042	-1.9833	-1.5958	-1.1833	-1.9688	-1.3563	-1.4042	-1.9833	-1.1729	-1.9	-1.6979	-1.0583	-2.2292	428.335	370.224	297.398	326.740	337.947	297.258	93.705	201.937	340.554	118.950	113.689	144.710	115.383	296.358	372.137	374.598	0.00088013	0.00014861	5.5387e-05	396.29	6.4098e-06	9.7308e-06	609.37	176.41	4.59e-06	4.7557e-06	303.96	162.75	93.823	52.602	7.1499e-06	96.944	0.0038427	0.0061155	0.0017509	394.91	6.2284e-05	7.0635e-05	587.86	172.26	6.1045e-05	7.0289e-05	296.73	157.3	93.066	51.268	6.5247e-05	94.194	145.484	99.384	83.296	83.077	241.495	212.482	82.181	88.135	149.647	210.898	85.755	89.560	91.604	95.046	228.374	92.563	-8191	255	
1317.534	1	1	0	0	0.16808	0.028194	0.038389	0.12128	0.06272	0.059416	0.24542	0.26639	0.13639	0.079334	0.22265	0.23172	0.31801	0.029043	0.11948	0.41498	-0.875	-1.4708	-1.9146	-1.2854	-1.825	-1.6729	-1.1167	-2.1562	-1.4125	-1.3292	-2.2875	-1.1646	-1.6729	-2.0292	-1.1958	-2.0187	357.602	265.429	403.127	113.560	310.376	373.847	419.887	330.313	268.535	303.000	367.961	313.445	392.561	76.206	393.317	398.626	0.00095192	0.00073336	0.00024518	393.17	3.6229e-06	1.1803e-05	600.48	176.33	9.9012e-06	5.8384e-06	300.96	161.2	93.035	52.484	1.0032e-05	97.009	0.0038209	0.0061766	0.0017616	391.7	6.2545e-05	7.0244e-05	579.95	171.66	6.0756e-05	7.1295e-05	293.52	155.81	92.675	51.1	6.459e-05	93.99	147.458	167.948	169.275	83.032	184.099	232.249	82.872	88.026	220.096	208.895	86.014	89.617	92.176	95.060	248.862	92.508	-8191	255	
1317.631	1	1	0	0	0.24139	0.21954	0.24886	0.1939	0.13246	0.20317	0.14976	0.15841	0.094499	0.19017	0.13785	0.20809	0.047105	0.22365	0.16215	0.23504	-1.1125	-1.2437	-1.8375	-1.2812	-1.7271	-1.9208	-1.2146	-1.8979	-1.6625	-1.175	-2.225	-1.5083	-1.4333	-2.1354	-1.1458	-1.8792	371.866	313.469	290.387	394.563	348.249	279.031	377.555	385.230	250.885	270.275	315.282	408.463	132.123	406.419	116.284	237.460	0.00096375	0.00053319	0.00025138	393.71	7.6298e-06	3.5617e-06	601.7	175.01	4.1968e-06	4.909e-06	300.35	161.64	93.515	52.328	7.508e-06	97.035	0.0037895	0.0062374	0.0017458	391.88	6.184e-05	7.0507e-05	581.06	171.84	6.0421e-05	7.0658e-05	293.84	156.36	92.861	51.069	6.4419e-05	94.066	141.173	143.530	219.489	83.061	252.199	250.297	82.289	87.596	153.794	236.112	85.835	89.461	91.995	94.820	217.511	92.613	-8191	255	
1317.749	1	1	0	0	0.092885	0.199	0.06745	0.2796	0.27377	0.059827	0.32412	0.22188	0.20737	0.14125	0.053089	0.33747	0.25119	0.32684	0.082918	0.29307	-1.1729	-1.1375	-1.8312	-1.5292	-1.4229	-1.9167	-1.2771	-1.9896	-1.7479	-1.2375	-2.2	-1.5354	-1.3229	-2.0375	-1.2687	-1.7229	353.417	218.694	102.998	71.956	230.648	168.575	327.037	291.982	124.633	269.248	306.048	426.565	424.547	390.006	364.885	344.250	0.0009618	0.00076662	0.00032985	395.41	4.7042e-06	6.2461e-06	602.78	176.27	8.0529e-06	1.206e-05	304.61	161.98	94.156	52.561	6.6334e-06	97.934	0.0038706	0.0062677	0.0017522	393.26	6.1806e-05	7.1781e-05	583.89	172.14	5.9982e-05	7.0877e-05	296.71	156.78	93.325	51.134	6.5858e-05	94.542	143.991	167.832	124.370	82.936	227.341	237.473	81.984	87.553	233.893	212.776	85.904	89.315	92.125	95.172	200.207	92.290	-8191	255	
1317.821	1	1	0	0	0.057932	0.070082	0.10342	0.3038	0.18853	0.16641	0.25033	0.13131	0.24089	0.094503	0.11267	0.31226	0.17819	0.13785	0.16891	0.26816	-1.3417	-0.98542	-2.0021	-1.4688	-1.3563	-1.9	-1.0771	-1.6417	-1.8125	-0.8875	-1.8708	-1.6125	-1.2375	-1.9604	-1.3646	-1.6333	148.588	382.794	375.496	396.895	174.416	359.971	220.566	349.067	73.309	88.829	406.316	77.106	390.651	93.694	351.146	381.796	0.00095492	0.00054026	0.00018376	392.58	5.5835e-06	8.124e-06	602.92	175.43	1.053e-06	5.8363e-06	304.4	161.72	93.539	52.568	8.5702e-06	96.94	0.00391	0.0063392	0.0017879	393.33	6.3884e-05	7.1137e-05	585.56	171.76	6.0637e-05	7.1279e-05	296.56	156.73	92.89	51.24	6.6089e-05	94.265	146.634	167.791	426.642	83.231	188.631	215.724	82.006	88.030	349.012	217.947	86.093	89.602	92.193	95.340	208.416	92.703	-8191	255	
1317.917	1	1	0	0	0.33496	0.21885	0.061721	0.094654	0.25606	0.12799	0.19502	0.31928	0.18073	0.18472	0.074677	0.088424	0.12396	0.12499	0.23754	0.4286	-1.525	-0.93333	-1.725	-1.625	-1.1812	-1.9854	-1.3854	-1.5229	-1.9438	-0.9125	-1.8125	-1.6979	-1.2354	-2.1063	-1.2354	-1.3896	172.422	408.118	164.269	94.022	407.128	350.698	302.956	387.047	398.951	421.086	329.826	126.272	369.639	363.568	125.742	331.983	0.00093331	0.00055325	4.3721e-05	392.29	4.2289e-06	9.3555e-06	600.84	174.45	3.1146e-06	6.5012e-06	301.5	161.07	93.9	52.476	3.6436e-06	97.149	0.0037856	0.0062927	0.0017994	390.37	6.1973e-05	7.1027e-05	581.34	171.05	6.0908e-05	7.0413e-05	294.18	155.95	92.93	51.125	6.5937e-05	94.22	141.167	114.308	103.980	82.693	162.128	200.081	82.086	87.783	252.727	95.405	86.123	89.402	92.329	95.211	207.141	92.564	-8191	255	
1318.013	1	1	0	0	0.10984	0.065003	0.1582	0.066163	0.23728	0.15153	0.040363	0.26179	0.027616	0.11875	0.17173	0.31044	0.11994	0.12741	0.22703	0.28136	-1.6562	-1.0396	-1.5583	-1.7812	-1.0354	-2.0833	-1.5375	-1.5063	-2.0542	-0.85	-1.7583	-1.8104	-1.1292	-1.9875	-1.5812	-1.275	187.422	420.896	310.539	174.779	403.190	300.337	387.901	348.389	403.671	191.843	173.890	365.326	318.711	365.047	160.560	419.865	0.00087583	0.0012836	0.00032172	392.62	2.9542e-06	1.0551e-05	599.97	175.87	6.6281e-06	1.222e-05	303.54	162.07	93.751	52.898	5.0829e-06	97.93	0.003831	0.0063345	0.001776	391.67	6.3573e-05	7.1439e-05	580.56	172.22	6.2155e-05	7.2457e-05	295.05	156.56	93.313	51.548	6.6434e-05	94.738	140.457	152.372	103.968	82.973	154.534	239.172	82.107	87.594	130.459	216.350	86.282	89.712	91.668	95.100	167.386	92.406	-8191	255	
1318.110	1	1	0	0	0.12958	0.063704	0.22584	0.12283	0.41165	0.092944	0.10705	0.16147	0.15182	0.17381	0.42623	0.24496	0.10755	0.34047	0.15614	0.31304	-1.6646	-1.2792	-1.3687	-1.85	-1.1104	-1.8521	-1.675	-1.4021	-1.9854	-1.3604	-1.6938	-1.9396	-1.0688	-2.0292	-1.6896	-1.4188	150.056	365.780	170.857	423.139	184.666	209.218	399.453	286.390	414.372	407.517	73.954	77.566	215.777	417.117	105.694	386.391	0.00090785	0.00090898	0.00017234	392.2	1.1093e-05	1.1986e-06	600.73	176.07	4.4897e-06	9.9507e-06	304.06	161.95	94.185	52.515	4.2576e-06	98.13	0.0038865	0.0062538	0.0017971	391.62	6.3361e-05	7.2054e-05	582.02	171.76	6.1502e-05	7.1395e-05	296.36	156.86	93.512	51.348	6.6897e-05	95.02	146.801	130.090	101.468	82.808	209.169	261.088	82.280	87.999	201.047	186.606	85.807	89.441	92.173	95.451	239.710	92.530	-8191	255	
1318.230	1	1	0	0	0.23867	0.16904	0.33688	0.12707	0.1432	0.088901	0.027124	0.13892	0.2228	0.097836	0.27301	0.25293	0.39633	0.10095	0.21182	0.18337	-1.5292	-1.225	-1.4208	-1.7167	-1.0438	-1.8417	-1.8062	-1.2979	-1.9375	-1.3771	-1.3813	-2.0208	-1.2896	-1.9396	-1.8604	-1.5438	376.794	270.711	120.632	372.459	390.149	326.690	229.563	411.335	399.565	158.467	76.939	399.191	423.845	293.270	275.333	346.620	0.00098419	0.0013329	0.0001817	398.33	3.0807e-06	1.0581e-05	605.59	176.04	3.4945e-06	3.1491e-06	305.94	163.39	94.734	52.874	6.9964e-06	98.078	0.0038483	0.0063092	0.0017981	394.44	6.4825e-05	7.1828e-05	587.94	172.27	6.1742e-05	7.1198e-05	297.6	157.92	93.556	51.471	6.6719e-05	94.719	149.376	139.247	125.832	83.245	225.399	238.753	82.639	88.140	217.378	263.796	86.276	89.815	92.263	95.284	195.532	92.694	-8191	255	
1318.326	1	1	0	0	0.11348	0.1052	0.12573	0.10487	0.11691	0.13777	0.21064	0.24006	0.15818	0.091597	0.13384	0.10392	0.085063	0.23066	0.23868	0.23409	-1.4146	-1.6146	-1.1396	-2.2313	-1.1292	-1.8229	-1.8	-1.15	-1.8646	-1.2354	-1.3687	-2.2646	-1.1292	-1.525	-1.9312	-1.2687	340.513	296.259	115.922	103.925	101.072	408.665	288.801	254.142	288.858	276.257	370.231	140.409	102.025	70.645	304.421	412.809	0.00090669	0.00036888	0.00023759	394.36	9.6144e-06	2.3507e-06	599.52	175.42	7.7247e-06	1.2145e-05	300.54	160.95	93.158	52.312	1.2903e-05	96.416	0.0039275	0.0063876	0.0018067	392.94	6.3552e-05	7.1927e-05	583.16	171.28	6.1681e-05	7.0578e-05	294.07	155.77	92.586	50.988	6.5447e-05	93.34	144.588	74.962	152.422	83.161	193.351	344.245	82.574	88.111	185.029	228.383	86.544	90.402	91.929	95.432	228.102	92.542	-8191	255	
1318.398	1	1	0	0	0.19644	0.057146	0.093054	0.12874	0.036871	0.10099	0.22335	0.23312	0.16275	0.21935	0.36878	0.14655	0.083414	0.12966	0.085982	0.25098	-1.6167	-1.5146	-1.2583	-2.0667	-1.2958	-1.5708	-2.0917	-1.0104	-1.9562	-1.8417	-1.3604	-2.1521	-1.2417	-1.4896	-2.0042	-1.3229	245.405	324.007	365.232	362.316	100.061	421.758	280.138	376.695	414.117	306.184	315.724	421.408	292.602	422.667	90.116	350.212	0.00092931	0.00058053	0.00038782	390.51	5.2571e-06	1.2371e-05	598.79	173.44	4.4841e-06	1.5633e-05	300.43	159.69	92.993	51.66	7.8851e-06	95.76	0.0039137	0.0063317	0.0017959	390.2	6.3409e-05	7.1672e-05	580.52	169.93	6.2369e-05	7.0959e-05	292.96	154.75	91.949	50.345	6.6067e-05	92.612	147.978	166.097	197.084	83.178	233.535	178.656	82.539	88.019	290.156	194.188	86.319	89.762	91.993	95.435	212.250	92.761	-8191	255	
1318.519	1	1	0	0	0.25506	0.042679	0.3091	0.10385	0.070205	0.064953	0.15532	0.081735	0.12464	0.16247	0.35703	0.056116	0.16543	0.094921	0.24364	0.18446	-1.4146	-1.4688	-0.99583	-2.0312	-1.4438	-1.2833	-1.9917	-1.225	-1.6688	-1.6938	-1.1625	-1.9312	-1.5396	-1.525	-2.0583	-1.3021	324.432	235.718	373.410	258.312	331.270	374.367	276.034	345.023	113.856	250.943	350.465	145.424	360.147	134.973	238.881	424.235	0.00095119	0.00064099	0.00017242	392.17	6.0303e-06	1.9582e-06	597.61	174.71	3.8388e-06	4.9488e-06	300.96	160.48	92.31	51.555	7.8626e-06	95.488	0.0038592	0.0063336	0.0018063	391.61	6.2616e-05	7.0902e-05	580.01	170.13	6.2229e-05	7.2341e-05	293.63	155.14	91.834	50.384	6.6523e-05	93.024	139.718	116.733	189.801	83.009	238.309	103.338	82.440	87.778	192.809	154.062	86.239	89.821	91.751	95.100	183.271	92.440	-8191	255	
1318.615	1	1	0	0	0.15692	0.28898	0.091011	0.087288	0.2619	0.24726	0.21449	0.073162	0.027531	0.34331	0.097635	0.080086	0.11001	0.14628	0.1376	0.17648	-1.1958	-1.9271	-1.1958	-1.9729	-1.5021	-1.0646	-2.1958	-1.4	-1.6479	-1.9021	-1.0771	-2.0646	-1.6021	-1.1458	-2.0354	-1.5167	176.805	211.474	380.293	251.123	110.690	365.923	338.112	362.140	95.823	426.123	206.517	290.298	276.317	416.064	307.855	410.471	0.0009151	0.00015222	0.00023428	393.59	1.18e-05	1.159e-05	599.46	173.31	7.4447e-06	4.8811e-06	301.88	161.07	93.111	51.538	3.9666e-06	95.841	0.0038783	0.0063228	0.0017934	393.01	6.3541e-05	7.2386e-05	583.8	169.92	6.1603e-05	7.1271e-05	294.36	156.03	92.296	50.253	6.5184e-05	93.06	146.346	231.459	174.730	83.812	208.207	221.317	82.437	87.997	219.521	155.196	85.851	90.081	91.756	95.480	219.919	92.642	-8191	255	
1318.711	1	1	0	0	0.070738	0.10026	0.079493	0.24096	0.069132	0.19412	0.30716	0.2317	0.013775	0.2163	0.061148	0.11567	0.080765	0.24027	0.062124	0.090112	-1.0333	-1.8917	-1.1625	-1.7667	-1.7958	-1.1021	-2.0333	-1.4521	-1.4729	-2.0687	-1.2125	-1.7979	-1.9625	-1.1792	-2.1833	-1.7146	215.056	224.918	83.636	108.992	102.284	333.833	367.036	429.245	82.740	118.933	172.173	379.960	380.741	410.619	164.452	318.584	0.00099109	0.0012069	8.0428e-05	396.11	1.1638e-05	1.2052e-06	603.02	175.04	3.7185e-06	6.1686e-06	300.06	159.36	91.592	51.355	7.2928e-06	94.863	0.0038522	0.006319	0.0017629	393.37	6.2622e-05	7.179e-05	582.69	170.05	6.1843e-05	7.1024e-05	292.77	154.65	91.468	49.894	6.558e-05	91.847	145.569	104.861	187.325	82.947	228.798	347.978	82.510	88.240	153.682	154.217	86.315	90.062	92.263	95.237	200.818	93.054	-8191	255	
1318.830	1	1	0	0	0.048598	0.19976	0.061154	0.3414	0.069225	0.18261	0.063874	0.17527	0.37683	0.18811	0.25505	0.024893	0.12806	0.13377	0.11423	0.25775	-1.0771	-2.1021	-1.1292	-1.8021	-1.7437	-1.0083	-2.1125	-1.4396	-1.2188	-1.8104	-1.1812	-1.5542	-1.8	-1.225	-2.0333	-1.8917	289.288	379.746	88.760	90.401	153.297	371.241	423.239	229.458	350.336	70.403	401.762	122.580	105.530	421.301	156.221	394.717	0.00092629	0.00047072	0.00011287	396.79	8.7403e-06	4.9791e-06	597.05	171.15	6.5958e-06	8.007e-06	296.76	158.94	91.194	50.309	1.0671e-05	94.367	0.0037849	0.0061806	0.0017749	391	6.1759e-05	7.0366e-05	579.38	167.28	6.0696e-05	6.9716e-05	289.86	153.15	90.704	49.167	6.4225e-05	91.077	148.084	105.066	209.879	83.460	152.094	306.634	83.076	87.744	235.689	247.557	86.223	90.383	92.386	95.020	261.873	92.792	-8191	255	
1318.926	1	1	0	0	0.24057	0.31983	0.15459	0.23309	0.28859	0.18705	0.24979	0.37768	0.20754	0.13298	0.10953	0.1449	0.22353	0.21791	0.16682	0.30025	-0.78958	-1.8937	-1.2333	-1.5063	-2.0896	-1.0667	-1.9125	-1.8375	-0.99583	-2.1083	-1.5063	-1.5083	-1.8667	-1.2417	-1.8104	-1.7104	294.648	359.740	286.597	319.744	283.871	234.260	378.327	387.411	227.135	179.323	135.950	363.096	147.918	366.315	286.082	366.390	0.00096067	0.00021224	0.00018288	396.16	8.8666e-06	1.0957e-05	601.62	172.66	1.6124e-06	1.0351e-05	296.46	158.85	91.898	50.534	8.0871e-06	95.512	0.0037798	0.0061742	0.0017578	391.42	6.0579e-05	6.9687e-05	582.15	168.15	5.9482e-05	6.8612e-05	290.14	153.89	91.306	49.369	6.4851e-05	91.927	144.846	147.847	177.980	83.249	176.175	209.874	82.721	88.088	223.189	204.158	86.452	90.016	92.106	95.573	212.317	92.811	-8191	255	
1319.022	1	1	0	0	0.15676	0.15192	0.17736	0.24216	0.19435	0.28913	0.16744	0.04866	0.14102	0.13573	0.031976	0.17727	0.14261	0.055572	0.22656	0.22182	-0.77083	-1.7625	-1.1854	-1.4104	-1.9646	-1.1875	-1.9	-1.7104	-1.1604	-1.7854	-1.5333	-1.45	-1.9083	-1.3354	-1.6708	-1.8375	220.704	403.479	343.096	354.186	428.956	367.732	270.482	364.462	423.315	190.500	225.560	356.722	179.464	398.840	230.924	380.390	0.00090948	0.00041397	0.00012184	394.08	7.4711e-06	9.4317e-06	605.29	173.63	6.6477e-06	1.2579e-05	301.6	161.5	92.297	50.815	9.5614e-06	94.886	0.0038019	0.0060227	0.0017389	390.83	6.1018e-05	6.9441e-05	585.84	169.35	6.0341e-05	6.9296e-05	292.7	155.26	91.624	49.6	6.3455e-05	92.096	143.892	79.038	145.127	83.722	246.287	173.926	83.285	88.445	236.468	232.235	86.233	91.111	93.645	96.428	185.529	94.039	-8191	255	
1319.118	1	1	0	0	0.21018	0.20755	0.081058	0.15721	0.077787	0.13505	0.073118	0.25622	0.11184	0.071879	0.098223	0.1534	0.20501	0.41108	0.090796	0.094849	-0.66875	-1.9042	-1.4208	-1.2375	-2.25	-1.1417	-1.4625	-1.9625	-1.0375	-1.8479	-1.6458	-1.3625	-1.9792	-1.2437	-1.6354	-2.1208	303.051	395.491	388.162	162.121	206.251	95.902	398.691	366.199	166.233	213.133	403.817	349.376	149.404	396.088	283.536	273.197	0.00092319	0.00059941	0.00022068	396.21	5.8984e-06	3.7963e-06	607.64	171.65	9.535e-06	1.0911e-05	299.93	158.5	92.592	50.758	3.3373e-06	93.895	0.0037607	0.0060846	0.0017087	390.69	6.0059e-05	6.9074e-05	585.49	167.78	5.9905e-05	6.8833e-05	292.07	153.71	91.047	49.314	6.403e-05	91.167	146.540	146.971	152.065	84.246	352.840	355.735	83.367	89.191	249.304	202.572	86.917	91.455	94.060	96.782	163.505	94.252	-8191	255	
1319.214	1	1	0	0	0.17909	0.15468	0.0969	0.17636	0.012131	0.19631	0.24708	0.21896	0.077037	0.10822	0.2266	0.067603	0.13278	0.41314	0.28669	0.28314	-0.79167	-1.8125	-1.7833	-1.1521	-1.9729	-1.2521	-1.45	-1.7313	-1.0562	-1.7354	-1.7458	-1.2292	-1.9729	-1.4667	-1.2375	-2.0333	408.849	341.586	398.253	148.662	296.834	163.731	384.514	372.450	370.773	142.775	326.755	389.804	316.987	413.637	249.599	322.764	0.00095698	0.00082054	0.00017376	395.3	4.7782e-06	5.6914e-06	598.81	172.51	5.7193e-06	1.0939e-05	296	157.82	92.651	50.297	3.4878e-06	93.92	0.003741	0.0060309	0.0017043	392.36	6.0594e-05	6.8614e-05	579.15	168.07	5.9845e-05	6.9442e-05	288.66	152.34	90.971	48.927	6.3353e-05	90.812	144.800	85.022	158.296	84.553	147.823	256.102	83.567	89.570	227.752	251.235	86.979	90.742	92.798	96.387	267.158	93.904	-8191	255	
1319.311	1	1	0	0	0.1784	0.081677	0.25691	0.15482	0.21725	0.08798	0.13214	0.31154	0.10257	0.26078	0.31057	0.27047	0.12047	0.10691	0.23165	0.41093	-0.76458	-1.6396	-1.6583	-1.0875	-1.9417	-1.45	-1.3479	-1.9354	-1.3167	-1.5438	-1.8896	-1.3542	-2.0375	-1.6875	-1.1646	-2.3042	178.635	247.428	109.300	327.799	338.958	80.023	268.944	344.668	220.277	206.350	386.839	396.929	419.762	106.548	146.082	348.008	0.00084406	0.00047718	0.00025676	394.43	1.4035e-05	1.2363e-05	601.73	171.29	1.6168e-06	1.1631e-05	298.07	158.31	91.207	49.964	9.0311e-06	93.592	0.0037262	0.006024	0.0017198	390.67	6.0683e-05	6.9012e-05	579.93	167.44	5.9551e-05	6.8278e-05	289.75	152.76	90.636	48.807	6.3395e-05	90.666	150.013	95.296	163.609	85.060	170.820	197.216	83.838	88.858	395.121	264.975	86.651	90.434	92.849	95.315	227.423	92.962	-8191	255	
1319.431	1	1	0	0	0.23598	0.1348	0.028749	0.1694	0.31544	0.049222	0.15927	0.27736	0.11216	0.11019	0.32077	0.071634	0.15266	0.37833	0.33346	0.47857	-0.94167	-1.6167	-1.7479	-0.98958	-1.6812	-1.6083	-1.2729	-2.075	-1.1396	-1.4292	-1.9104	-0.99167	-1.9042	-1.8479	-1.1854	-2.0792	238.896	364.890	423.744	175.995	152.456	145.573	385.871	378.511	108.524	344.072	347.525	123.502	147.250	398.090	148.927	396.192	0.00084657	0.0003154	0.00015361	392.54	2.7827e-06	1.0658e-05	600.76	171.07	9.5182e-06	4.8551e-06	298.52	158.71	91.037	50.524	7.0042e-06	94.41	0.0037011	0.0061249	0.0017167	389.68	6.04e-05	6.9267e-05	581.34	167.11	5.9431e-05	6.882e-05	290.41	153.24	90.763	48.963	6.3424e-05	91.338	147.344	162.698	207.667	82.781	196.324	201.970	82.329	88.359	238.303	233.095	86.136	90.200	92.686	95.609	199.608	92.972	-8191	255	
1319.527	1	1	0	0	0.10355	0.040686	0.16565	0.15154	0.11213	0.17086	0.11939	0.2613	0.19071	0.29196	0.2528	0.23844	0.074067	0.27521	0.20002	0.1611	-0.85625	-1.3083	-1.7625	-1.1417	-1.7667	-1.6812	-1.3167	-2.0667	-1.2875	-1.1167	-1.9604	-1.1667	-1.6604	-1.8167	-1.0979	-2.0729	383.977	229.467	351.603	207.158	145.130	237.881	321.274	361.338	164.934	310.628	408.048	369.893	366.149	416.481	334.229	332.785	0.00092194	0.00043754	0.00010665	393.39	5.986e-06	6.619e-06	596.6	171.27	3.8504e-06	8.2761e-06	296.67	158.21	91.182	49.953	6.2167e-06	93.48	0.003793	0.0060603	0.0017267	389.84	6.1121e-05	6.931e-05	580.12	167.03	5.9735e-05	6.9342e-05	289.03	152.7	90.568	48.71	6.3743e-05	90.534	146.721	277.417	200.654	83.365	226.175	219.518	82.893	88.180	262.198	211.262	86.249	90.257	92.479	95.954	244.848	93.187	-8191	255	
1319.622	1	1	0	0	0.071688	0.13724	0.069573	0.10059	0.24175	0.13259	0.15537	0.10708	0.078784	0.11063	0.24882	0.20833	0.17007	0.091903	0.16375	0.38783	-0.97917	-1.1646	-1.9042	-1.3333	-1.7771	-1.8583	-1.3021	-2.1521	-1.5646	-1.05	-1.9458	-1.4062	-1.6313	-2.0375	-1.0646	-2.0167	427.631	238.466	197.883	219.217	150.388	160.182	71.422	403.248	89.452	279.750	335.520	424.543	128.830	124.706	247.792	406.521	0.00086464	0.00094246	0.00019107	390.33	5.1922e-06	7.9667e-06	599.88	171.66	7.8903e-06	8.7169e-06	296.04	157.18	91.599	49.937	1.2801e-05	93.173	0.0037256	0.006162	0.0017217	389	6.1619e-05	6.8618e-05	578.28	166.81	5.9405e-05	6.8626e-05	288.35	151.71	90.322	48.608	6.3024e-05	90.284	149.154	165.344	252.106	83.704	193.398	247.420	82.810	89.033	150.982	194.063	86.899	90.347	93.028	95.665	217.816	93.339	-8191	255	
1319.695	1	1	0	0	0.10836	0.16667	0.11063	0.013238	0.12772	0.14659	0.23132	0.17159	0.10066	0.089455	0.18565	0.12704	0.094473	0.1367	0.1271	0.38358	-1.2271	-1.1146	-1.9979	-1.2437	-1.4729	-1.6667	-1.275	-1.8687	-1.6729	-1.1354	-2.3104	-1.5167	-1.3333	-2.0208	-1.3042	-1.7854	151.156	256.045	240.559	188.431	144.988	376.316	407.544	368.704	149.762	413.099	115.462	352.232	297.961	426.990	386.251	340.195	0.0008523	0.00090565	0.00024488	392	4.8156e-06	1.0231e-05	596.7	172.21	4.8506e-06	6.266e-06	296.87	156.95	91.217	49.89	6.5892e-06	94.008	0.0037081	0.006046	0.0016972	389.01	5.9241e-05	6.9253e-05	577.76	167.07	5.9845e-05	6.8271e-05	289.02	152.51	90.381	48.741	6.3537e-05	90.795	149.419	157.786	123.201	83.866	217.832	241.944	82.931	89.111	218.078	217.769	86.988	90.730	93.321	96.339	228.054	93.547	-8191	255	
1319.791	1	1	0	0	0.071448	0.16881	0.10528	0.37361	0.2545	0.19817	0.11827	0.241	0.3006	0.25447	0.2916	0.23957	0.03227	0.077196	0.31647	0.22549	-1.125	-1.0542	-1.9771	-1.2833	-1.0292	-2.0271	-1.1042	-1.7917	-1.9729	-1.2396	-2.0542	-1.6229	-1.3792	-2.0333	-1.1479	-1.725	118.398	181.108	188.884	252.992	236.225	80.556	354.173	71.932	268.739	333.253	423.589	388.814	274.722	233.408	121.644	331.474	0.00094078	0.00087098	0.00011222	392.39	1.1899e-05	6.8574e-06	601.95	171.42	5.6049e-06	1.1125e-05	299.83	158.06	91.814	50.358	8.7365e-06	95.158	0.0037703	0.0060561	0.0017327	390.75	6.0749e-05	6.8698e-05	581.54	167.5	5.9543e-05	6.9325e-05	291.44	153.25	91.054	49.119	6.3386e-05	91.678	145.395	171.628	137.730	84.416	275.900	234.217	82.975	88.835	246.885	220.909	86.801	90.519	93.121	95.991	256.828	93.713	-8191	255	
1319.910	1	1	0	0	0.042922	0.21837	0.26261	0.16386	0.2014	0.15428	0.070562	0.075239	0.20855	0.19264	0.17577	0.29408	0.27247	0.11026	0.15143	0.11121	-1.3479	-1.1667	-1.9312	-1.7042	-1.1542	-1.8708	-1.3042	-1.5479	-1.9792	-1.1437	-1.9729	-1.6146	-1.0521	-2.1229	-1.1812	-1.6688	282.080	367.019	174.012	374.262	169.972	262.456	92.828	124.655	342.983	335.622	180.370	349.279	414.371	94.548	80.629	83.493	0.00084526	0.00019526	0.0003068	393.03	1.868e-06	6.4623e-06	600.87	171.77	9.2939e-06	7.6978e-06	299.47	158.03	91.622	50.383	1.1219e-05	93.689	0.0037497	0.0060799	0.0017342	390.87	6.1597e-05	6.9769e-05	583.36	167.55	5.9155e-05	6.9287e-05	291.02	153.01	90.673	48.931	6.4002e-05	90.843	149.584	174.975	185.850	83.695	417.191	144.543	83.559	89.046	161.966	213.229	86.506	90.780	93.000	95.912	203.311	93.473	-8191	255	
1320.006	1	1	0	0	0.043777	0.1296	0.22941	0.15585	0.12743	0.10021	0.1965	0.18922	0.38301	0.24911	0.36401	0.12552	0.23582	0.30241	0.21218	0.04761	-1.6	-1.1187	-1.7313	-1.7583	-1.0479	-1.9792	-1.5042	-1.5458	-1.8396	-1.2375	-1.8083	-1.8583	-1.15	-2.1271	-1.3667	-1.5146	264.983	135.529	194.112	86.564	282.565	368.982	326.868	371.148	250.749	339.715	332.369	293.278	407.490	386.276	420.370	429.571	0.00079527	0.00099776	8.8537e-05	392.56	1.6843e-06	5.8896e-06	592.79	170.62	6.5104e-06	1.2209e-05	295.52	156.94	90.92	50.097	3.4296e-06	93.188	0.0037988	0.0060804	0.0017099	389.95	6.1252e-05	6.9898e-05	576.63	166.8	5.9368e-05	6.8963e-05	288.25	151.81	90.098	48.782	6.4205e-05	90.309	140.162	96.657	175.892	83.697	100.004	193.543	83.299	88.646	227.969	235.417	86.775	90.864	93.036	96.333	272.346	93.939	-8191	255	
1320.103	1	1	0	0	0.075704	0.19633	0.035265	0.17755	0.19459	0.25698	0.2627	0.065666	0.096433	0.17691	0.17848	0.45318	0.10992	0.059762	0.27067	0.21873	-1.6042	-1.0354	-1.6021	-1.9333	-0.90417	-1.8021	-1.6646	-1.3333	-2.1937	-1.3521	-1.575	-1.9396	-1.1104	-1.8125	-1.6187	-1.3563	315.218	87.638	246.306	294.486	359.515	143.321	398.449	408.060	380.392	409.937	362.178	398.919	127.212	328.528	238.191	367.195	0.00092414	0.00048741	7.5446e-05	391.7	4.3617e-06	7.1501e-06	597.13	170.98	4.6432e-06	7.8948e-06	297.93	157.21	90.264	50.144	2.4228e-06	93.688	0.0037594	0.0060929	0.0016966	389.34	6.1141e-05	6.977e-05	576.13	166.65	5.9182e-05	6.8979e-05	289.08	152.27	90.161	48.776	6.411e-05	90.565	142.728	187.093	267.227	84.198	290.372	206.227	83.276	88.336	117.369	218.502	86.562	90.321	93.119	95.995	114.710	93.216	-8191	255	
1320.199	1	1	0	0	0.11383	0.15016	0.22601	0.19703	0.27032	0.06675	0.1354	0.27696	0.080846	0.13813	0.11895	0.22988	0.079778	0.50766	0.1211	0.19527	-1.6417	-1.3896	-1.2563	-1.9542	-1.0479	-1.9667	-1.5958	-1.1938	-1.9562	-1.3062	-1.4229	-2.0687	-1.1625	-1.8458	-1.6187	-1.3354	206.634	369.139	403.846	189.741	348.122	310.505	252.615	76.795	109.076	76.195	320.087	376.523	118.255	403.267	380.518	294.642	0.0008711	0.00062669	0.00020193	394.2	6.3911e-06	1.5493e-05	598.7	171.87	3.2184e-06	1.4773e-05	298.81	158.28	91.646	50.095	5.1775e-06	93.64	0.0037189	0.0061084	0.0017248	390.37	6.1385e-05	6.8256e-05	580.5	167.28	5.9018e-05	6.8992e-05	290.73	152.64	90.589	48.844	6.5247e-05	90.775	144.508	128.207	148.424	84.041	243.576	263.651	82.854	88.054	246.519	239.349	86.474	90.135	92.708	95.792	223.749	93.038	-8191	255	
1320.295	1	1	0	0	0.10268	0.022442	0.28661	0.12139	0.12047	0.24354	0.2198	0.26754	0.27757	0.078867	0.071623	0.11532	0.28931	0.30847	0.26005	0.21032	-1.7313	-1.2021	-1.3708	-2.1125	-1.0833	-1.5646	-2.1625	-1.2437	-2.1208	-1.4375	-1.3937	-2.1417	-1.3125	-1.6313	-1.9562	-1.2313	398.147	75.303	261.257	179.059	353.985	338.236	351.575	346.613	422.268	248.289	306.105	386.600	99.153	398.082	89.509	369.593	0.00086922	0.00034195	0.0002293	395.66	1.1599e-05	9.0614e-06	598.32	170.7	6.4968e-06	7.387e-06	296.04	157.97	90.816	49.532	1.7466e-06	93.672	0.003738	0.0060772	0.0016876	391.59	6.0793e-05	6.9948e-05	580.66	166.77	5.9985e-05	6.9802e-05	289.33	152.68	90.203	48.429	6.4214e-05	90.462	145.681	391.097	206.778	83.726	239.945	310.400	82.684	88.611	179.221	172.941	86.654	90.318	92.470	96.008	188.786	93.094	-8191	255	
1320.391	1	1	0	0	0.17953	0.059182	0.14219	0.20708	0.26901	0.086559	0.21806	0.26398	0.32899	0.20475	0.40895	0.21065	0.15923	0.1578	0.32125	0.17145	-1.5521	-1.6729	-1.1604	-1.8937	-1.2854	-1.4208	-2.0729	-1.3188	-1.8583	-1.6875	-1.1812	-2.0458	-1.2583	-1.6333	-2.0563	-1.2208	291.204	290.982	285.858	271.680	316.865	240.725	73.719	309.409	375.735	403.683	365.278	363.379	138.342	392.273	130.807	82.132	0.0009638	0.00081421	0.00023037	394.3	5.4358e-06	1.3896e-05	595.24	169.38	4.9604e-06	8.4664e-06	293.89	155.75	90.608	49.225	7.5485e-06	92.104	0.0038159	0.0061417	0.0017286	389.6	6.1234e-05	6.8933e-05	575.38	165.9	5.9356e-05	6.8887e-05	286.01	150.88	89.371	48.139	6.3441e-05	89.214	147.883	128.253	175.415	82.934	265.342	226.635	82.267	88.043	171.476	209.661	86.134	89.637	92.209	95.487	190.239	92.451	-8191	255	
1320.512	1	1	0	0	0.28612	0.083818	0.39225	0.27014	0.023817	0.11551	0.24264	0.035558	0.18217	0.15204	0.048514	0.21918	0.1475	0.076272	0.22053	0.11863	-1.3708	-1.8271	-1.0063	-2.0854	-1.2938	-1.3521	-2.1854	-1.1917	-1.6771	-1.8833	-1.0521	-2.1833	-1.4188	-1.55	-1.9125	-1.3833	184.753	149.206	189.214	323.793	155.245	365.781	310.919	160.751	143.463	134.092	341.985	425.276	415.335	165.654	316.833	396.584	0.00090453	0.00083103	0.00013273	390.05	1.3608e-06	4.9511e-06	590.47	169.73	3.0832e-06	1.046e-05	294.07	156.75	90.46	49.399	7.746e-06	93.259	0.0037054	0.0060413	0.0016881	388.39	6.1007e-05	6.8797e-05	575.37	165.75	5.9787e-05	7.1165e-05	286.6	151.58	89.702	48.267	6.481e-05	89.958	144.497	123.375	191.468	82.520	201.931	197.147	82.274	87.423	212.888	224.095	85.775	89.694	91.912	95.027	179.371	92.366	-8191	255	
1320.608	1	1	0	0	0.11704	0.28929	0.21685	0.16603	0.14682	0.1837	0.27665	0.12282	0.036411	0.16616	0.25353	0.32622	0.080137	0.1967	0.10191	0.06507	-1.2833	-1.7167	-1.0917	-1.9937	-1.3604	-1.2667	-2.0958	-1.2313	-1.4229	-1.8312	-1.1375	-1.9458	-1.5542	-1.3271	-1.9083	-1.4042	81.835	245.043	89.896	420.141	183.900	202.404	336.280	215.457	243.444	132.105	424.773	362.900	159.587	414.018	339.231	333.060	0.00085414	0.00067124	0.00022263	393.18	3.7036e-06	6.6777e-06	593.2	170.66	3.3399e-06	8.002e-06	297.44	156.88	90.541	49.935	1.3806e-05	93.514	0.0037657	0.0061178	0.0017356	389.34	6.0254e-05	6.9349e-05	577.37	165.85	5.9274e-05	6.847e-05	289.49	152.14	90.017	48.666	6.2105e-05	90.711	146.962	185.067	125.771	83.022	201.363	225.452	81.910	87.286	201.423	233.291	85.726	89.376	91.862	95.035	209.514	92.094	-8191	255	
1320.702	1	1	0	0	0.2842	0.16173	0.13798	0.18153	0.11116	0.13222	0.18144	0.027742	0.11482	0.14812	0.10111	0.16976	0.24192	0.098489	0.26983	0.057843	-1.0979	-1.6521	-1.1271	-1.7812	-1.65	-1.1625	-1.9458	-1.1583	-1.575	-1.75	-1.1708	-2.1125	-1.8083	-1.3042	-2.0438	-1.3229	129.798	364.155	152.429	333.051	150.141	376.567	287.257	93.336	129.212	118.630	185.556	396.109	73.667	324.770	146.465	334.313	0.00095531	0.00016015	9.1956e-05	391.83	6.1762e-06	3.9422e-06	600.84	169.93	6.1517e-06	1.2763e-05	296.3	158.58	90.947	50.054	3.2331e-06	93.566	0.0037586	0.0060629	0.0017478	389.76	6.0721e-05	6.9562e-05	580.78	166.93	5.9591e-05	6.9101e-05	289.15	152.99	90.372	48.763	6.3609e-05	90.491	144.577	136.944	243.106	82.479	235.116	225.962	81.955	87.588	187.624	221.583	85.260	89.397	90.911	95.090	242.195	91.781	-8191	255	
1320.800	1	1	0	0	0.35949	0.19295	0.18734	0.27765	0.056967	0.076662	0.16705	0.24774	0.23282	0.23675	0.045733	0.32657	0.072427	0.2007	0.21489	0.34245	-0.85625	-2.075	-1.1625	-1.7979	-1.7458	-0.95625	-2.125	-1.4375	-1.325	-1.9646	-1.1896	-1.55	-1.7521	-1.1208	-2.0312	-1.6833	391.944	189.696	388.698	377.241	365.903	345.773	287.857	373.983	151.096	144.353	288.423	332.515	210.345	93.032	324.684	429.106	0.00083401	0.00063037	0.00016535	390.61	5.9426e-06	4.6543e-06	592.62	170.8	4.6497e-06	9.6935e-06	293.4	155.4	90.804	49.59	9.3925e-06	92.434	0.003704	0.0061695	0.0017398	389.38	6.0944e-05	6.8531e-05	576.9	166.35	5.8667e-05	6.7971e-05	286.51	151.15	89.828	48.471	6.3566e-05	89.475	142.413	140.259	200.016	83.000	206.280	280.485	81.733	87.179	197.846	213.665	85.251	89.092	91.106	94.586	199.711	91.893	-8191	255	
1320.919	1	1	0	0	0.15403	0.19877	0.12884	0.23605	0.21194	0.22658	0.20682	0.062867	0.20175	0.10134	0.32033	0.21081	0.24205	0.16449	0.060502	0.24226	-0.85208	-1.9146	-1.1271	-1.5042	-1.8833	-1.1667	-1.9896	-1.5938	-1.275	-2.0021	-1.5146	-1.3667	-1.9771	-1.1792	-1.7458	-1.8917	357.787	255.118	71.409	377.745	256.551	104.909	417.657	312.178	302.463	278.794	377.131	370.463	393.874	394.289	78.806	364.191	0.00090005	0.000562	0.00022589	390.63	6.12e-06	1.3521e-05	590.71	169.01	6.6431e-06	1.7552e-06	294.9	156.86	90.504	49.649	7.4447e-06	93.097	0.0037137	0.0061066	0.0017086	388.79	6.0713e-05	6.7974e-05	573.48	165.79	5.8075e-05	6.7814e-05	286.47	151.57	89.931	48.407	6.1671e-05	90.082	147.918	167.231	166.321	82.402	173.874	227.723	81.571	86.590	178.851	207.675	85.721	89.071	91.454	94.628	187.295	91.938	-8191	255	
1320.991	1	1	0	0	0.21098	0.24384	0.28622	0.11552	0.29291	0.16216	0.19912	0.14204	0.1806	0.12007	0.1852	0.11462	0.026117	0.27001	0.24829	0.20475	-0.9	-1.9021	-1.2062	-1.4813	-1.9729	-1.2292	-1.8042	-1.7875	-1.0312	-2.0542	-1.4833	-1.3417	-2.0229	-1.2792	-1.7938	-1.9	378.781	277.153	424.760	77.449	148.721	333.299	411.231	242.788	78.710	331.315	371.366	383.438	136.186	415.267	331.009	334.172	0.00086994	0.00094219	0.00012182	390.11	4.0251e-06	8.8582e-06	595.1	171.37	8.1256e-06	6.1289e-06	295.9	156.95	91.206	49.947	8.5611e-06	93.677	0.0037019	0.0060127	0.001711	387.32	5.9894e-05	6.8075e-05	576.29	166.45	5.8686e-05	6.7153e-05	287.89	152.2	90.215	48.698	6.2324e-05	90.988	150.114	164.895	139.930	82.084	196.523	165.878	81.640	87.196	262.299	204.086	85.203	89.282	91.376	94.650	203.276	92.038	-8191	255	
1321.087	1	1	0	0	0.2478	0.14978	0.087276	0.1392	0.17087	0.20525	0.12087	0.1525	0.22541	0.031599	0.28966	0.15105	0.23287	0.060214	0.099172	0.30888	-0.83542	-1.9604	-1.425	-1.5021	-1.9125	-1.1021	-1.7458	-1.8792	-0.90417	-1.7917	-1.6208	-1.1979	-2.0167	-1.2583	-1.3687	-2.0208	203.878	232.447	353.236	171.123	253.521	95.763	417.930	195.253	128.080	184.655	138.296	423.457	186.208	106.587	367.234	392.696	0.00091917	0.001233	6.0473e-05	393.41	5.4728e-06	4.6205e-06	599.05	170.13	5.5319e-06	1.5587e-06	296.07	157.08	91.272	50.06	6.2015e-06	93.456	0.0036945	0.006001	0.0016985	389.51	5.9703e-05	6.9258e-05	581.63	166.5	5.8831e-05	6.681e-05	289.79	153.18	90.292	48.823	6.3009e-05	90.755	142.364	148.545	131.615	82.104	136.943	273.392	81.951	87.145	267.493	234.303	85.352	89.320	91.527	94.451	254.009	91.823	-8191	255	
1321.207	1	1	0	0	0.10654	0.046069	0.31691	0.14481	0.1321	0.21727	0.17589	0.3741	0.15267	0.17868	0.28352	0.31636	0.24962	0.090982	0.13954	0.4587	-0.66875	-1.8125	-1.6354	-1.3125	-1.9583	-1.3062	-1.6125	-2.0583	-1.0312	-1.8062	-1.8833	-1.2083	-1.9479	-1.3771	-1.3396	-1.9896	296.038	408.428	309.854	407.309	334.349	91.123	408.196	330.550	236.910	367.229	380.927	419.969	260.020	81.733	166.588	407.411	0.00090239	0.00074356	0.00019677	389.25	7.2545e-06	1.0619e-05	599.65	168.51	3.7285e-06	9.6385e-06	293.79	156.09	90.211	48.999	4.9109e-06	92.256	0.0037364	0.006042	0.001737	389.48	6.0234e-05	6.7171e-05	578.96	165.67	5.9349e-05	6.8574e-05	286.41	151.19	89.805	48.024	6.2703e-05	89.434	144.947	147.714	200.991	82.561	178.716	189.996	81.888	87.290	190.775	272.643	85.499	89.303	91.298	94.519	223.787	91.953	-8191	255	
1321.304	1	1	0	0	0.31984	0.25057	0.074638	0.33141	0.14972	0.16166	0.064289	0.23359	0.076356	0.36523	0.012646	0.20935	0.10362	0.19524	0.13293	0.24297	-0.77083	-1.7437	-1.8479	-1.2375	-2.1583	-1.4375	-1.2667	-2.0021	-1.0604	-1.6625	-1.9688	-1.1812	-2.0167	-1.425	-1.3479	-2.2229	273.532	285.346	155.773	222.048	152.713	193.366	259.719	120.676	174.647	159.805	270.439	349.798	333.898	363.936	94.283	414.695	0.00098868	0.00059972	0.00015367	390.34	8.4039e-06	3.9119e-06	589.85	169.82	1.04e-05	6.1119e-06	294.34	155.31	90.35	48.906	1.1133e-05	92.235	0.0037169	0.0060983	0.0016913	387.68	6.1217e-05	6.957e-05	574.57	165.14	5.8857e-05	6.7832e-05	285.81	150.72	89.61	47.959	6.3287e-05	89.209	145.603	137.475	99.969	82.251	219.293	233.858	81.407	86.920	208.412	197.849	85.633	89.266	91.540	94.766	195.558	91.896	-8191	255	
1321.400	1	1	0	0	0.30522	0.37077	0.13226	0.13992	0.26269	0.38394	0.24035	0.4579	0.36051	0.26465	0.13318	0.29417	0.16026	0.2789	0.23011	0.29203	-0.69167	-1.5729	-1.8438	-1.0604	-2.0708	-1.5708	-1.3917	-2.0708	-1.0958	-1.6875	-2.025	-1.2083	-1.9042	-1.7396	-1.2521	-2.1854	231.444	380.882	213.962	405.588	171.860	349.129	400.703	386.291	201.638	226.415	244.866	391.358	206.470	112.471	280.551	418.314	0.00083118	0.00090414	0.00014343	390.38	4.1096e-06	9.6751e-06	596.58	169.89	6.0853e-06	3.0695e-06	294.04	156.25	90.555	49.249	3.4671e-06	91.799	0.0037189	0.0060729	0.0017266	389.06	6.023e-05	6.8454e-05	577.82	165.66	5.9938e-05	6.931e-05	286.81	151.2	89.663	47.981	6.3789e-05	89.359	140.801	163.800	195.926	82.439	288.130	176.616	81.672	87.460	189.248	296.596	85.202	89.089	91.653	94.540	182.147	92.006	-8191	255	
1321.496	1	1	0	0	0.23613	0.17117	0.21884	0.035439	0.049977	0.065107	0.13406	0.34972	0.093569	0.1041	0.38681	0.27124	0.10555	0.013558	0.23566	0.12991	-0.83125	-1.3958	-1.9729	-1.2583	-2.0042	-1.5646	-1.1792	-2.0417	-1.3958	-1.4979	-2.1333	-1.2833	-1.8521	-2.0896	-1.2021	-2.2313	373.554	94.188	310.443	185.207	236.104	113.561	118.242	420.336	222.169	269.440	387.270	416.558	203.816	319.459	240.005	93.071	0.00090241	0.00045516	0.00018604	391.97	4.5593e-06	4.7052e-06	598.81	169.05	7.6415e-06	1.2088e-05	296.32	156.96	90.307	49.352	2.6501e-06	92.747	0.0037507	0.0060577	0.0017119	388.3	6.0222e-05	6.8255e-05	579.58	165.27	5.885e-05	6.7839e-05	289.16	151.67	89.709	48.105	6.3314e-05	89.74	146.505	133.901	204.763	82.027	198.163	206.477	81.821	87.236	197.916	156.781	85.218	88.974	91.314	94.505	205.183	91.941	-8191	255	
1321.592	1	1	0	0	0.20316	0.42947	0.29384	0.29091	0.23642	0.42981	0.14268	0.097111	0.17882	0.22439	0.097081	0.54605	0.2636	0.16708	0.22599	0.37452	-1.0688	-1.2229	-2.1229	-1.1562	-1.7375	-1.8083	-1.325	-1.8125	-1.4438	-1.1375	-2.1021	-1.4146	-1.5521	-1.975	-0.8875	-1.9604	345.348	295.809	253.774	265.083	351.105	205.229	399.868	384.410	274.504	318.974	370.202	388.175	152.149	422.602	167.851	421.778	0.00090518	0.00089915	5.4213e-05	387.48	4.9859e-06	6.8768e-06	597.85	169.69	2.6745e-06	4.5272e-06	294.84	155.14	90.146	49.167	3.3924e-06	91.838	0.0036424	0.0060259	0.0016929	387.21	6.0067e-05	6.9076e-05	578.26	165.56	5.848e-05	6.8682e-05	287.27	150.64	89.414	47.948	6.3669e-05	88.931	137.760	189.545	220.488	82.359	233.112	205.871	81.973	87.205	183.359	114.110	85.550	89.100	91.817	94.419	237.368	92.046	-8191	255	
1321.688	1	1	0	0	0.10473	0.071234	0.42115	0.19027	0.034447	0.11294	0.096699	0.13894	0.20181	0.25366	0.066899	0.2659	0.072312	0.12295	0.10771	0.20233	-1.1229	-1.175	-1.9625	-1.1229	-1.2938	-1.7479	-1.0771	-1.6313	-1.6646	-0.98125	-2.0833	-1.4062	-1.3563	-2.0563	-1.15	-1.9542	329.131	284.628	401.364	168.671	418.126	399.896	202.481	313.112	227.466	88.094	249.545	421.164	387.084	425.893	265.888	318.749	0.00090517	0.00038814	0.0002659	387.19	2.136e-06	8.1337e-06	592.23	169.02	1.025e-05	4.6799e-06	291.98	154.18	89.933	49.165	6.3907e-06	92.028	0.0037065	0.0059623	0.0016953	386.62	6.0564e-05	6.8191e-05	576.02	164.94	5.8818e-05	6.8579e-05	285.53	150.21	89.424	47.908	6.2683e-05	88.948	148.365	224.218	181.151	82.291	225.874	170.045	81.191	87.317	185.516	267.287	85.636	88.740	91.685	94.655	247.694	92.019	-8191	255	
1321.783	1	1	0	0	0.065918	0.11031	0.17011	0.074184	0.15783	0.21039	0.12652	0.29062	0.15572	0.29221	0.25088	0.055757	0.24971	0.13706	0.32289	0.48195	-1.2625	-1.05	-2.0292	-1.2521	-1.2042	-2.0125	-1.1354	-1.5833	-1.7854	-0.96458	-1.8958	-1.5479	-1.1896	-2.0292	-0.96458	-1.7812	263.544	168.830	370.063	74.675	351.510	200.711	81.504	412.315	358.617	396.424	306.025	388.067	363.183	72.442	257.684	359.934	0.00080944	0.0005875	0.00012149	394.19	7.6417e-06	5.6311e-06	600.45	168.43	4.0748e-06	2.1804e-06	295.89	155.4	89.733	49.351	7.0296e-06	92.559	0.0036994	0.005982	0.0016947	388.66	6.0713e-05	6.9632e-05	578.52	165.06	5.8217e-05	6.743e-05	287.27	150.94	89.507	48.102	6.2312e-05	89.586	145.702	190.534	160.592	82.202	225.571	161.671	81.469	87.369	207.565	191.577	85.596	89.096	91.489	94.557	225.017	92.107	-8191	255	
1321.880	1	1	0	0	0.18578	0.067208	0.18504	0.24145	0.22224	0.18285	0.22042	0.091265	0.12989	0.11823	0.12955	0.28893	0.18009	0.32745	0.1394	0.069138	-1.4271	-1.0292	-1.8021	-1.2854	-1.2	-1.9417	-1.2021	-1.5458	-1.7458	-1.0187	-1.8854	-1.5187	-1.4354	-2.0854	-1.0562	-1.5375	186.331	226.708	73.644	354.710	223.363	310.747	251.836	265.288	88.692	279.096	387.896	376.205	158.704	421.854	76.849	302.219	0.0008787	0.00062464	0.00013496	391.99	4.0209e-06	9.2397e-06	600.54	169.6	6.0101e-06	2.0574e-07	296.12	157.44	90.802	49.397	5.7759e-06	93.344	0.0036296	0.0059793	0.001694	389.12	6.007e-05	6.7822e-05	579.87	165.93	5.8147e-05	6.7224e-05	288.53	152.25	90.154	48.165	6.2396e-05	89.982	150.430	170.325	234.342	82.110	126.648	255.934	81.608	87.492	196.536	132.895	85.256	89.126	91.485	94.624	192.972	92.041	-8191	255	
1321.999	1	1	0	0	0.20227	0.26482	0.10567	0.12308	0.089148	0.17244	0.19448	0.16941	0.098703	0.3044	0.17493	0.22677	0.17431	0.2474	0.28525	0.4141	-1.4958	-1.0521	-1.6979	-1.6729	-1.1167	-2.0083	-1.3229	-1.4479	-1.75	-0.95208	-1.6583	-1.7104	-1.0104	-1.9312	-1.1604	-1.2042	71.471	111.301	360.420	295.071	140.161	415.964	125.176	304.262	173.781	75.587	269.409	359.715	402.857	118.964	126.089	329.935	0.0008507	0.00029096	0.00017311	390.08	4.0462e-06	6.0723e-06	598.9	168.92	7.582e-06	7.8434e-06	293.39	156.07	90.07	49.145	2.1107e-06	91.506	0.0036404	0.0059176	0.0016918	388.88	5.8954e-05	6.6805e-05	579.85	164.94	5.7819e-05	6.7559e-05	287.32	150.82	89.455	47.858	6.2313e-05	89.129	142.371	226.863	199.161	82.380	206.626	250.618	81.737	87.396	230.669	172.759	85.268	88.865	91.379	94.491	215.102	92.106	-8191	255	
#DATA ENDS
