BOXY.EXE: ISS Imagent and Oximeter Data Acquisition Program Version 0.80
Ascii Record File

#ACQ INFORMATION
2  Detector Channels 
16  External MUX Channels 
1  Auxiliary Channels 
5000  Waveform (CCF) Frequency (Hz)
1  Waveforms Skipped 
30  Waveforms Averaged 
1  Cycles Averaged 
16  Acquisitions per Waveform 
10.0806  Updata Rate (Hz) 

#FILE INFORMATION
TRUE -- External MUX Channel results are PARSED.
FALSE -- AC DC and Phase are NOT grouped.
TRUE -- Companion Program Settings File CREATED.
FALSE -- AC data not excluded
FALSE -- DC data not excluded
FALSE -- Phase data not excluded
FALSE -- Auxillary Chn. data not excluded
Tab delimiters

#CALIBRATION STATE
TRUE -- Waveform Calibration Values APPLIED.


#AUX CALIBRATION VALUES
Val Type	aux-1	

Term	1.0000e+00	
Factor	0.0000e+00	


#WF CALIBRATION VALUES
A = Detector Channel
Val Type	A-AC1	A-AC2	A-AC3	A-AC4	A-AC5	A-AC6	A-AC7	A-AC8	A-AC9	A-AC10	A-AC11	A-AC12	A-AC13	A-AC14	A-AC15	A-AC16	A-DC1	A-DC2	A-DC3	A-DC4	A-DC5	A-DC6	A-DC7	A-DC8	A-DC9	A-DC10	A-DC11	A-DC12	A-DC13	A-DC14	A-DC15	A-DC16	A-Ph1	A-Ph2	A-Ph3	A-Ph4	A-Ph5	A-Ph6	A-Ph7	A-Ph8	A-Ph9	A-Ph10	A-Ph11	A-Ph12	A-Ph13	A-Ph14	A-Ph15	A-Ph16	

Term	0.00000e+00	0.00000e+00	0.00000e+00	0.00000e+00	0.00000e+00	0.00000e+00	0.00000e+00	0.00000e+00	0.00000e+00	0.00000e+00	0.00000e+00	0.00000e+00	0.00000e+00	0.00000e+00	0.00000e+00	0.00000e+00	0.00000e+00	0.00000e+00	0.00000e+00	0.00000e+00	0.00000e+00	0.00000e+00	0.00000e+00	0.00000e+00	0.00000e+00	0.00000e+00	0.00000e+00	0.00000e+00	0.00000e+00	0.00000e+00	0.00000e+00	0.00000e+00	0.00000e+00	0.00000e+00	0.00000e+00	0.00000e+00	0.00000e+00	0.00000e+00	0.00000e+00	0.00000e+00	0.00000e+00	0.00000e+00	0.00000e+00	0.00000e+00	0.00000e+00	0.00000e+00	0.00000e+00	0.00000e+00	
Factor	1.00000e+00	1.00000e+00	1.00000e+00	1.00000e+00	1.00000e+00	1.00000e+00	1.00000e+00	1.00000e+00	1.00000e+00	1.00000e+00	1.00000e+00	1.00000e+00	1.00000e+00	1.00000e+00	1.00000e+00	1.00000e+00	1.00000e+00	1.00000e+00	1.00000e+00	1.00000e+00	1.00000e+00	1.00000e+00	1.00000e+00	1.00000e+00	1.00000e+00	1.00000e+00	1.00000e+00	1.00000e+00	1.00000e+00	1.00000e+00	1.00000e+00	1.00000e+00	X	X	X	X	X	X	X	X	X	X	X	X	X	X	X	X	

B = Detector Channel
Val Type	B-AC1	B-AC2	B-AC3	B-AC4	B-AC5	B-AC6	B-AC7	B-AC8	B-AC9	B-AC10	B-AC11	B-AC12	B-AC13	B-AC14	B-AC15	B-AC16	B-DC1	B-DC2	B-DC3	B-DC4	B-DC5	B-DC6	B-DC7	B-DC8	B-DC9	B-DC10	B-DC11	B-DC12	B-DC13	B-DC14	B-DC15	B-DC16	B-Ph1	B-Ph2	B-Ph3	B-Ph4	B-Ph5	B-Ph6	B-Ph7	B-Ph8	B-Ph9	B-Ph10	B-Ph11	B-Ph12	B-Ph13	B-Ph14	B-Ph15	B-Ph16	

Term	0.00000e+00	0.00000e+00	0.00000e+00	0.00000e+00	0.00000e+00	0.00000e+00	0.00000e+00	0.00000e+00	0.00000e+00	0.00000e+00	0.00000e+00	0.00000e+00	0.00000e+00	0.00000e+00	0.00000e+00	0.00000e+00	0.00000e+00	0.00000e+00	0.00000e+00	0.00000e+00	0.00000e+00	0.00000e+00	0.00000e+00	0.00000e+00	0.00000e+00	0.00000e+00	0.00000e+00	0.00000e+00	0.00000e+00	0.00000e+00	0.00000e+00	0.00000e+00	-1.45959e+02	-1.30980e+02	-1.25157e+02	-1.82080e+02	-7.17741e+01	-6.95097e+01	-1.55766e+02	-1.62015e+02	-7.74156e+01	-6.88670e+01	-1.70942e+02	-1.70432e+02	-1.82993e+02	-1.76724e+02	-6.90137e+01	-1.49404e+02	
Factor	2.03209e-05	1.41488e-04	3.74525e-05	1.74853e-01	1.18439e-06	1.57894e-06	1.53863e-01	4.53265e-02	1.13898e-06	1.62005e-06	7.65132e-02	2.71161e-02	3.40376e-02	8.44743e-03	1.33393e-06	1.21964e-02	1.36066e-05	2.52670e-05	7.14622e-06	9.33528e-02	2.52174e-07	2.86787e-07	7.71164e-02	2.43145e-02	2.45725e-07	2.86025e-07	3.96700e-02	1.41238e-02	1.84396e-02	4.57171e-03	2.63143e-07	6.37821e-03	X	X	X	X	X	X	X	X	X	X	X	X	X	X	X	X	



#DISTANCE SETTINGS
A = Detector Channel
A-1	A-2	A-3	A-4	A-5	A-6	A-7	A-8	A-9	A-10	A-11	A-12	A-13	A-14	A-15	A-16	

2.5000e+00	3.0000e+00	2.5000e+00	3.0000e+00	2.0000e+00	3.0000e+00	1.5000e+00	3.0000e+00	3.0000e+00	3.0000e+00	3.0000e+00	3.0000e+00	3.0000e+00	3.0000e+00	1.5000e+00	3.0000e+00	

B = Detector Channel
B-1	B-2	B-3	B-4	B-5	B-6	B-7	B-8	B-9	B-10	B-11	B-12	B-13	B-14	B-15	B-16	

1.0000e+01	1.0000e+01	1.0000e+01	1.4400e+00	1.0000e+01	1.0000e+01	1.5100e+00	1.9400e+00	1.0000e+01	1.0000e+01	1.9900e+00	2.4900e+00	2.4100e+00	2.9000e+00	1.0000e+01	2.9800e+00	




#DATA BEGINS
time	group	step	mark	flag	A-AC1	A-AC2	A-AC3	A-AC4	A-AC5	A-AC6	A-AC7	A-AC8	A-AC9	A-AC10	A-AC11	A-AC12	A-AC13	A-AC14	A-AC15	A-AC16	A-DC1	A-DC2	A-DC3	A-DC4	A-DC5	A-DC6	A-DC7	A-DC8	A-DC9	A-DC10	A-DC11	A-DC12	A-DC13	A-DC14	A-DC15	A-DC16	A-Ph1	A-Ph2	A-Ph3	A-Ph4	A-Ph5	A-Ph6	A-Ph7	A-Ph8	A-Ph9	A-Ph10	A-Ph11	A-Ph12	A-Ph13	A-Ph14	A-Ph15	A-Ph16	B-AC1	B-AC2	B-AC3	B-AC4	B-AC5	B-AC6	B-AC7	B-AC8	B-AC9	B-AC10	B-AC11	B-AC12	B-AC13	B-AC14	B-AC15	B-AC16	B-DC1	B-DC2	B-DC3	B-DC4	B-DC5	B-DC6	B-DC7	B-DC8	B-DC9	B-DC10	B-DC11	B-DC12	B-DC13	B-DC14	B-DC15	B-DC16	B-Ph1	B-Ph2	B-Ph3	B-Ph4	B-Ph5	B-Ph6	B-Ph7	B-Ph8	B-Ph9	B-Ph10	B-Ph11	B-Ph12	B-Ph13	B-Ph14	B-Ph15	B-Ph16	aux-1	digaux	

987.725	1	1	0	256	0.28346	0.13167	0.21209	0.046921	0.099425	0.06429	0.24835	0.16295	0.12344	0.13486	0.34752	0.16984	0.073145	0.25247	0.11713	0.055341	-1.5187	-1.0292	-1.6792	-1.95	-1.0688	-1.9271	-1.3083	-1.5708	-1.8771	-1.2146	-2.0458	-1.8896	-1.2833	-2.1396	-1.4208	-1.5729	256.713	419.557	350.513	328.822	224.528	393.281	333.526	394.901	309.958	112.965	242.563	329.710	279.415	397.780	190.640	226.285	0.0006076	0.0005028	0.00015736	1330.1	5.1305e-06	4.3339e-06	1329.5	363.52	5.0366e-06	5.825e-06	422.59	140.51	120.7	41.952	5.5794e-06	52.094	0.00053247	0.00045259	0.00011988	1345.3	4.993e-06	4.775e-06	1351.9	370.74	4.8418e-06	5.006e-06	429.53	143.42	123.31	43.122	5.0995e-06	53.843	151.004	152.416	162.799	91.247	225.949	221.727	91.050	96.143	223.070	229.373	95.355	99.838	100.225	104.825	223.659	104.148	-8191	255	
987.821	1	1	0	0	0.27486	0.18095	0.085953	0.080587	0.099448	0.15671	0.243	0.35122	0.257	0.27397	0.127	0.21499	0.22883	0.089596	0.095583	0.1917	-1.6917	-1.1313	-1.6792	-2.1562	-1.1396	-1.9333	-1.7854	-1.5938	-2.0417	-1.2188	-1.7021	-1.9396	-1.2042	-2.0604	-1.3563	-1.4979	212.212	374.271	325.621	409.341	367.929	374.727	386.255	345.401	229.074	89.918	338.772	322.109	104.570	386.745	427.502	329.871	0.00059236	0.00048586	0.00014604	1327.9	5.513e-06	5.1734e-06	1331.4	363.2	5.7433e-06	4.9974e-06	419.9	140.85	120.74	41.865	4.5111e-06	52.194	0.00051674	0.00045207	0.00012208	1345.5	5.0366e-06	4.6424e-06	1352.5	370.57	4.9544e-06	5.0162e-06	428.88	143.6	123.23	43.091	5.0359e-06	53.808	152.878	171.671	180.746	91.137	221.604	229.713	90.930	95.852	215.400	222.476	95.720	99.575	100.403	104.902	221.808	104.141	-8191	255	
987.917	1	1	0	0	0.15885	0.046267	0.25173	0.2448	0.23209	0.097131	0.16001	0.41825	0.1044	0.17474	0.044846	0.18623	0.090965	0.097886	0.10356	0.12946	-1.6958	-1.25	-1.5875	-2.1958	-0.91042	-1.8	-1.8917	-1.4542	-1.8854	-1.2271	-1.5167	-2.0708	-1.2313	-1.9729	-1.5104	-1.5333	78.271	113.752	256.888	347.782	205.080	281.839	335.191	81.417	283.433	428.018	126.258	344.488	118.234	343.692	352.646	116.032	0.00058858	0.00038119	0.00015321	1329.2	4.9748e-06	4.8679e-06	1333.3	364.45	5.9097e-06	5.1326e-06	420.16	139.64	121.29	41.83	4.2597e-06	52.301	0.00052201	0.00045217	0.0001251	1345	4.8806e-06	4.6842e-06	1351.7	371.19	5.0102e-06	4.9929e-06	428.52	143.25	123.53	43.088	4.633e-06	53.841	150.305	173.564	147.946	91.197	229.089	229.818	91.058	95.955	223.251	231.019	95.324	99.714	100.558	104.750	230.108	104.039	-8191	255	
988.038	1	1	0	0	0.23723	0.15026	0.10077	0.25161	0.1093	0.22908	0.21378	0.1036	0.10084	0.16001	0.24803	0.14743	0.19961	0.12523	0.22926	0.36049	-1.5958	-1.2687	-1.3729	-2.1562	-1.2271	-1.8583	-2	-1.3542	-1.8479	-1.4854	-1.4354	-2.0667	-1.2938	-1.8792	-1.7708	-1.1854	187.344	263.461	315.591	401.608	425.813	435.917	383.336	356.247	320.625	259.075	391.220	356.049	364.288	254.576	145.925	367.971	0.00057804	0.00036769	0.00012589	1322.2	5.3654e-06	5.0836e-06	1332.8	364.04	5.0319e-06	4.3596e-06	419.29	140.31	120.37	41.982	5.7134e-06	52.459	0.00051444	0.00044612	0.00012655	1344	5.0414e-06	4.6824e-06	1352	370.34	4.8351e-06	4.9268e-06	427.68	143.14	123.21	43.143	4.8539e-06	53.998	148.140	162.496	175.774	91.062	226.503	237.867	90.993	95.744	223.855	225.383	95.368	99.734	100.130	104.991	226.220	103.997	-8191	255	
988.134	1	1	0	0	0.082476	0.25781	0.18144	0.15278	0.14985	0.097621	0.27792	0.078136	0.065333	0.11381	0.14219	0.17818	0.30134	0.18655	0.099923	0.20053	-1.5438	-1.3854	-1.3021	-2.2208	-1.275	-1.5292	-2.1208	-1.3021	-1.9396	-1.5875	-1.3813	-2.0833	-1.475	-1.6833	-1.6437	-1.2708	391.872	191.033	294.565	428.775	205.779	378.831	90.746	286.262	82.555	300.933	385.991	421.674	113.159	404.190	321.599	315.326	0.00062436	0.00050739	0.00011629	1327	4.7656e-06	4.3314e-06	1330.1	362.72	5.111e-06	5.5683e-06	419.17	140.87	121.18	42.122	5.9265e-06	52.625	0.00053732	0.00045602	0.00012135	1344.8	5.0414e-06	4.9076e-06	1352.7	370.98	5.1607e-06	5.0829e-06	427.88	143.55	123.2	43.209	5.1445e-06	53.887	149.645	154.823	173.124	91.182	228.270	214.867	91.069	95.955	227.926	225.775	95.144	99.710	100.332	104.947	222.202	103.982	-8191	255	
988.230	1	1	0	0	0.24515	0.20432	0.13526	0.38443	0.19447	0.18938	0.23918	0.2977	0.18794	0.18826	0.11704	0.082384	0.14855	0.26367	0.037108	0.10488	-1.3542	-1.6417	-1.1958	-2.0438	-1.1646	-1.4438	-2.1667	-1.4271	-1.8896	-1.7479	-1.275	-2.3167	-1.5667	-1.3292	-1.9625	-1.0542	238.865	341.338	97.081	400.304	145.120	263.113	385.260	336.430	256.992	103.342	432.377	180.257	248.576	290.462	236.713	368.678	0.00059808	0.00053619	0.0001743	1323.4	5.0296e-06	6.2049e-06	1333.1	363.28	5.6367e-06	5.3341e-06	419.91	140.75	120.68	41.971	5.4583e-06	52.45	0.00052374	0.0004537	0.00012746	1344.4	4.9988e-06	4.8987e-06	1353.1	370.29	5.0947e-06	5.0001e-06	428.68	143.37	123.38	43.124	5.0381e-06	53.94	151.119	153.043	160.941	91.324	229.990	209.132	91.042	95.855	222.377	214.576	95.458	99.663	100.348	104.929	220.640	104.314	-8191	255	
988.327	1	1	0	0	0.1784	0.11725	0.2266	0.05067	0.20359	0.047102	0.32083	0.36498	0.035317	0.27281	0.28209	0.16942	0.11898	0.10745	0.29415	0.17053	-1.4354	-1.7271	-1.0771	-2.1083	-1.2625	-1.3271	-2.05	-1.2771	-1.6708	-1.8708	-1.1313	-2.125	-1.5583	-1.5063	-2.0187	-1.2938	407.417	339.610	326.365	408.986	299.218	410.978	426.605	419.606	248.579	337.875	403.644	428.221	377.248	375.464	218.104	352.025	0.00058106	0.00052211	0.00014213	1323.4	5.5009e-06	5.7704e-06	1335.8	364.54	5.0039e-06	5.1476e-06	419.93	140.49	120.78	42.201	5.0919e-06	52.32	0.00053536	0.00044212	0.00013201	1345.2	5.0813e-06	4.7887e-06	1353	370.91	5.0619e-06	4.7933e-06	428.31	143.49	123.51	43.206	4.9707e-06	53.847	149.587	171.278	172.612	91.192	226.731	226.467	90.935	95.878	218.857	222.579	95.389	99.939	100.313	105.098	214.908	104.095	-8191	255	
988.423	1	1	0	0	0.37703	0.15848	0.16976	0.086147	0.12926	0.096586	0.4274	0.18486	0.22959	0.32684	0.42797	0.27654	0.20806	0.18437	0.12923	0.20452	-1.3438	-1.9771	-1.0208	-1.9125	-1.4104	-1.2833	-2.0854	-1.45	-1.5562	-1.8917	-1.3229	-2.0229	-1.6812	-1.125	-2.0958	-1.3292	221.410	295.103	268.671	304.500	425.418	113.047	426.256	121.988	222.022	387.771	308.655	303.331	128.267	343.244	209.319	143.176	0.00057859	0.000625	0.0001278	1322.8	5.3788e-06	4.6887e-06	1330.2	364.56	5.1731e-06	4.1508e-06	419.92	140.48	121.03	42.101	6.614e-06	52.374	0.00052731	0.0004378	0.00012691	1343	4.9589e-06	5.0289e-06	1351.2	370.7	5.1618e-06	4.6771e-06	428	143.33	123.46	43.114	4.8265e-06	53.799	150.094	170.824	152.658	91.193	221.921	219.768	91.227	95.945	228.140	218.084	95.268	99.797	100.276	104.974	218.829	103.940	-8191	255	
988.517	1	1	0	0	0.16326	0.088072	0.22799	0.26048	0.15722	0.11153	0.20876	0.14591	0.12442	0.12731	0.31809	0.12266	0.19491	0.19788	0.30863	0.18795	-1.0354	-1.95	-1.0812	-1.8958	-1.6688	-1.2	-2.1375	-1.5667	-1.3813	-1.8458	-1.3396	-2.0083	-1.8375	-1.2812	-2.0167	-1.6313	412.920	287.982	317.231	368.606	432.102	248.864	422.763	425.950	432.106	200.273	429.891	116.056	422.281	413.737	107.532	377.552	0.00059322	0.00050091	0.00014808	1326.5	5.2691e-06	5.1274e-06	1337.1	364.02	5.5027e-06	6.7757e-06	419.68	139.94	120.45	41.99	4.1653e-06	52.278	0.00052	0.00043612	0.00013124	1343.4	4.8638e-06	4.9578e-06	1353.1	370.36	5.0496e-06	4.8005e-06	428.15	143.2	123.12	43.02	4.8495e-06	53.739	149.980	169.813	184.628	91.299	227.364	229.291	91.128	95.855	219.571	224.333	95.429	99.690	100.496	104.703	235.639	104.129	-8191	255	
988.613	1	1	0	0	0.16379	0.13575	0.13385	0.30998	0.21941	0.26988	0.044371	0.14961	0.16558	0.17804	0.21575	0.12608	0.2607	0.069437	0.2866	0.18958	-0.84792	-1.8417	-1.1688	-1.8583	-1.8583	-1.2083	-2.1208	-1.7375	-1.3333	-1.9438	-1.4417	-1.9042	-2.0167	-1.1542	-1.9354	-1.6333	90.521	161.108	158.762	355.218	144.395	128.478	108.885	166.061	78.063	358.027	365.522	96.975	102.138	383.808	391.722	419.764	0.00058345	0.00056921	0.00013022	1321.7	3.8791e-06	4.6245e-06	1334.7	364.27	5.4163e-06	4.6982e-06	421.02	140.6	121.02	41.765	4.5736e-06	52.375	0.00052009	0.00044133	0.00012257	1342.4	4.9321e-06	4.8437e-06	1352.7	370.41	5.1044e-06	4.4894e-06	428.1	143.34	123.28	42.985	4.7771e-06	53.641	151.425	162.841	170.178	91.169	241.115	215.624	91.281	95.857	215.157	216.759	95.196	99.757	100.580	104.984	228.419	103.909	-8191	255	
988.711	1	1	0	0	0.074404	0.26319	0.19582	0.1977	0.10782	0.15358	0.12153	0.08391	0.18342	0.03564	0.10203	0.29682	0.15961	0.16051	0.05454	0.186	-0.77708	-2.0354	-1.1771	-1.7646	-1.7375	-1.2729	-1.9958	-1.7375	-1.2417	-2.0646	-1.4583	-1.6375	-1.9875	-1.1208	-1.9625	-1.7708	222.519	407.262	321.024	306.495	215.671	339.142	387.548	411.459	185.240	326.639	270.846	366.909	405.893	302.757	126.968	221.184	0.00055996	0.00047991	0.0001216	1320.4	5.4595e-06	5.3021e-06	1331.3	362.85	4.7311e-06	3.3503e-06	419.19	139.91	119.99	41.914	6.1928e-06	52.077	0.00052303	0.00041875	0.00011873	1341.5	4.8528e-06	4.9865e-06	1349.9	369.72	5.0752e-06	4.7021e-06	427.65	143.03	122.73	43.006	4.8599e-06	53.636	149.873	162.325	183.737	91.226	231.529	229.361	91.025	95.931	234.141	233.144	95.405	99.859	100.401	104.747	231.375	103.839	-8191	255	
988.830	1	1	0	0	0.24855	0.22653	0.21776	0.55573	0.16494	0.059991	0.37535	0.2499	0.15368	0.10494	0.52564	0.19692	0.13681	0.1524	0.22774	0.30777	-0.69792	-2.0625	-1.475	-1.4583	-2.0146	-1.2854	-1.9146	-2.0104	-1.0167	-2.0479	-1.5667	-1.6625	-2.1562	-1.325	-1.7417	-2.0333	373.153	89.934	209.762	393.408	300.311	208.031	356.936	404.322	411.653	299.112	378.696	341.772	394.413	111.630	393.898	381.753	0.00061329	0.0004464	0.00012915	1320.3	4.676e-06	4.2268e-06	1329.6	362.69	4.3879e-06	5.3881e-06	419.48	140.48	120.04	41.93	5.1412e-06	52.501	0.00053741	0.0004118	0.0001247	1340.9	4.805e-06	4.8867e-06	1349.1	369.49	4.8653e-06	4.4948e-06	426.99	143.02	122.85	43.052	4.9197e-06	53.835	154.066	164.641	173.753	91.299	214.763	214.033	91.071	95.945	214.035	218.568	95.408	99.663	100.274	105.242	236.791	104.234	-8191	255	
988.902	1	1	0	0	0.34564	0.17006	0.33301	0.33266	0.10323	0.16347	0.21747	0.10493	0.13287	0.14974	0.048938	0.21903	0.14594	0.19519	0.093009	0.16029	-0.63333	-1.9396	-1.4542	-1.4521	-1.8667	-1.4771	-1.875	-2.2375	-1.1187	-1.9646	-1.9104	-1.2188	-2.15	-1.4062	-1.4021	-1.9625	366.923	282.217	285.220	418.721	361.843	137.583	362.338	361.663	284.705	159.649	289.156	286.458	211.410	425.101	175.930	336.488	0.00057308	0.00041222	0.00013796	1320.2	6.347e-06	5.1738e-06	1326.7	362.96	6.3918e-06	5.892e-06	419.96	140.74	120.66	41.917	5.2812e-06	52.358	0.00051685	0.00040938	0.00012102	1339.1	4.9494e-06	4.9566e-06	1348.3	370.02	5.0778e-06	4.6503e-06	427.63	143.33	123.1	43.034	5.065e-06	53.789	150.400	177.757	164.589	91.118	225.046	220.263	91.313	95.823	215.372	231.120	95.397	99.709	100.423	104.851	230.354	104.110	-8191	255	
989.022	1	1	0	0	0.20658	0.14195	0.27642	0.35273	0.29399	0.15927	0.1818	0.23209	0.059151	0.14034	0.094418	0.14877	0.091639	0.13141	0.13398	0.31762	-0.83125	-1.775	-1.6521	-1.5458	-2.0354	-1.3354	-1.7542	-2.0979	-1.2542	-1.7875	-1.8208	-1.2938	-2.1229	-1.4667	-1.4167	-2.0646	336.054	413.109	260.045	393.501	253.523	343.244	352.757	374.242	400.387	112.523	164.472	346.008	136.169	329.457	142.692	391.186	0.00060109	0.00046049	0.00012296	1321.1	5.5524e-06	4.7053e-06	1332.9	363.69	4.8839e-06	4.2609e-06	419.4	140.35	120.24	41.711	5.0548e-06	52.275	0.00053409	0.00042959	0.000124	1342	4.8239e-06	4.7762e-06	1351	370.21	5.3112e-06	4.7391e-06	427.39	143.15	122.93	42.962	4.9257e-06	53.767	150.498	169.561	175.510	91.150	228.913	236.430	91.385	96.108	221.129	244.335	95.285	99.694	100.315	104.812	229.219	103.921	-8191	255	
989.118	1	1	0	0	0.23817	0.16773	0.1405	0.10924	0.23238	0.25043	0.16772	0.39889	0.16644	0.51012	0.059291	0.30376	0.31614	0.42268	0.4146	0.10159	-0.825	-1.5667	-1.5521	-1.3312	-1.8646	-1.5521	-1.3979	-2.2125	-1.3417	-1.5896	-2.025	-1.2354	-2.075	-1.6	-1.2375	-2.0979	325.614	271.612	408.656	107.946	280.576	212.362	107.171	374.204	217.841	299.646	247.612	397.274	363.929	395.257	154.452	364.734	0.00059198	0.00050057	0.00010274	1325.4	5.1937e-06	5.1161e-06	1329.9	363.75	5.7066e-06	4.1911e-06	418.77	140.12	120.62	41.953	5.1682e-06	52.499	0.00052388	0.00043338	0.00012318	1343.1	4.7971e-06	4.8073e-06	1352.2	369.91	5.0578e-06	4.6783e-06	427.43	143.01	123.19	43.01	4.9274e-06	53.876	152.276	177.747	160.953	91.124	230.579	229.724	91.366	95.829	224.804	209.506	95.229	99.543	100.474	104.700	228.837	104.194	-8191	255	
989.215	1	1	0	0	0.37891	0.11594	0.18553	0.14285	0.18738	0.24959	0.04337	0.22144	0.039635	0.22709	0.20721	0.067513	0.19719	0.098132	0.23867	0.18955	-0.84375	-1.3438	-1.7104	-1.3292	-1.6792	-1.5812	-1.3771	-2.2333	-1.2417	-1.4937	-2.0771	-1.1729	-2.0667	-1.7708	-1.2188	-2.0396	240.039	256.979	93.851	130.393	333.978	242.601	190.786	436.933	151.930	119.450	373.987	324.159	125.121	260.109	310.445	396.355	0.00056224	0.0005479	0.00010465	1327.2	5.255e-06	5.2714e-06	1333.9	362.88	5.2585e-06	5.0238e-06	418.7	140.67	120.44	41.854	6.2555e-06	52.085	0.00051804	0.00043854	0.00011983	1343.4	4.8155e-06	4.6878e-06	1351.8	369.97	5.1387e-06	4.9858e-06	427.47	143.3	123.18	43.052	5.1297e-06	53.725	149.991	165.971	169.389	91.144	235.137	208.528	91.221	95.813	227.721	247.848	95.430	99.860	100.495	104.806	220.946	104.272	-8191	255	
989.311	1	1	0	0	0.13643	0.277	0.093195	0.23761	0.18294	0.18039	0.14886	0.15301	0.18003	0.20936	0.18017	0.24372	0.21024	0.16972	0.038769	0.15681	-1.0312	-1.2917	-2.0208	-1.2979	-1.8125	-1.9521	-1.4708	-2.1458	-1.4771	-1.3979	-2.2313	-1.2667	-1.7958	-1.8521	-0.89167	-2.15	163.025	114.776	383.621	365.310	359.146	313.611	428.428	105.289	417.856	90.294	93.341	423.773	273.551	437.410	196.741	381.853	0.00057984	0.00049575	0.00012539	1326.6	5.1768e-06	5.6158e-06	1334.7	363.54	4.8657e-06	4.2256e-06	419.94	140.41	119.79	41.966	6.0758e-06	52.498	0.0005325	0.00043349	0.00011965	1345.4	4.8827e-06	4.588e-06	1353.6	370.32	5.0261e-06	4.9798e-06	427.95	143.11	123.14	43.09	4.9427e-06	53.856	149.589	169.770	167.192	91.110	229.355	227.300	91.042	95.851	214.448	224.036	95.452	99.635	100.149	104.875	230.337	104.301	-8191	255	
989.431	1	1	0	0	0.091332	0.1118	0.049895	0.16892	0.39506	0.15808	0.093058	0.17959	0.14556	0.34825	0.14236	0.12443	0.23233	0.14313	0.153	0.21816	-1.0021	-1.1042	-1.9271	-1.3521	-1.75	-1.8479	-1.2354	-2.05	-1.6354	-1.1229	-1.9667	-1.1625	-1.7958	-2.0667	-1.1625	-1.9354	429.980	96.602	361.769	429.926	344.502	397.426	386.994	323.786	239.189	102.897	278.845	397.385	430.463	432.361	144.180	381.465	0.0005958	0.00041213	0.00014052	1322.6	6.421e-06	4.6557e-06	1332.4	363.16	4.4636e-06	5.4323e-06	420.99	140.51	121.06	41.942	4.8334e-06	52.489	0.0005295	0.00045307	0.00012342	1344.6	5.2358e-06	4.7654e-06	1351.3	370.18	5.0205e-06	4.9625e-06	428.22	143.2	123.59	43.091	5.0452e-06	53.904	151.288	159.791	168.143	91.204	221.873	229.466	91.020	96.134	230.597	227.374	95.542	99.504	100.607	104.921	245.361	104.234	-8191	255	
989.503	1	1	0	0	0.24692	0.24042	0.18106	0.087629	0.065931	0.19794	0.11456	0.18755	0.24644	0.10705	0.044254	0.065007	0.18023	0.14994	0.19041	0.38405	-1.1854	-1.1958	-1.9104	-1.4917	-1.3771	-1.9979	-1.3458	-1.9896	-1.8667	-1.1938	-2.1354	-1.6375	-1.6667	-2.1875	-1.3042	-1.8646	216.688	321.102	355.129	427.526	124.757	427.904	338.250	417.267	298.834	242.712	227.924	377.502	112.005	358.223	306.267	328.710	0.00060744	0.00049808	0.00014892	1324	4.0481e-06	5.2367e-06	1329.8	364.23	4.2657e-06	6.4085e-06	420.01	140.33	120.5	42.031	6.0431e-06	52.425	0.00053108	0.00044659	0.00011906	1343.1	5.0214e-06	4.4798e-06	1350.2	370.74	4.8095e-06	4.9315e-06	428.4	143.3	123.29	43.114	5.1357e-06	53.845	150.346	170.317	183.408	91.368	221.115	223.758	91.153	95.981	230.698	224.413	95.428	99.406	100.387	104.738	229.215	103.996	-8191	255	
989.622	1	1	0	0	0.13927	0.093608	0.12809	0.24926	0.15099	0.30108	0.21638	0.30491	0.13232	0.23299	0.13511	0.32114	0.20193	0.11458	0.082353	0.2555	-1.4542	-0.92708	-2.0083	-1.5167	-1.2563	-1.9312	-1.3583	-1.8917	-1.8708	-1.1583	-2.1521	-1.6	-1.5958	-2.1979	-1.1604	-1.7833	154.455	164.229	98.883	381.618	278.373	177.881	106.379	373.292	250.288	302.025	342.190	426.877	335.212	173.671	117.423	428.850	0.00060372	0.00049498	0.00013869	1329	5.5919e-06	4.7294e-06	1332.7	365.75	4.6243e-06	6.0642e-06	420.84	140.82	120.65	41.788	5.9554e-06	52.578	0.00053406	0.00044438	0.00012117	1346.3	5.1328e-06	4.5796e-06	1351	370.84	5.0353e-06	5.0066e-06	428.07	143.36	123.38	43.024	4.9866e-06	53.908	150.482	172.540	171.227	91.204	228.165	215.460	91.123	95.933	223.926	222.783	95.400	99.844	100.481	104.976	230.743	104.145	-8191	255	
989.718	1	1	0	0	0.1944	0.29727	0.13218	0.15353	0.064078	0.14632	0.32123	0.19194	0.16738	0.19564	0.1246	0.086449	0.146	0.19109	0.20992	0.18116	-1.7083	-1.1125	-1.9542	-1.9875	-1.2708	-1.925	-1.6063	-1.8521	-2.1312	-1.1292	-1.9667	-1.7146	-1.275	-2.2292	-1.4042	-1.5125	220.972	262.218	165.863	375.594	340.028	149.549	356.978	386.411	422.105	285.282	323.416	122.480	280.335	423.989	189.851	387.698	0.00057746	0.00060068	0.0001011	1330.8	4.7873e-06	4.5499e-06	1329.6	365.28	4.4311e-06	4.9479e-06	419.97	140.54	121.06	41.768	5.3737e-06	52.395	0.00051671	0.0004676	0.00011976	1347.8	4.9552e-06	4.6203e-06	1355	371.81	4.8055e-06	4.9161e-06	429.28	143.78	123.65	43.057	5.1521e-06	53.809	149.699	173.911	178.952	91.094	213.539	213.492	91.067	96.017	222.030	222.202	95.597	99.563	100.619	105.241	212.627	104.167	-8191	255	
989.814	1	1	0	0	0.016117	0.3489	0.11218	0.23265	0.23174	0.21817	0.11845	0.088305	0.067582	0.13912	0.28765	0.11357	0.050908	0.3191	0.12257	0.28502	-1.6521	-1.1854	-1.7125	-1.8604	-1.175	-2.0083	-1.6375	-1.5604	-1.8583	-1.0458	-1.9667	-1.8542	-1.1854	-2.0812	-1.5146	-1.2812	345.883	233.903	267.846	435.753	139.990	297.695	313.923	332.384	325.289	124.678	407.662	397.770	273.841	78.809	425.469	405.176	0.00060042	0.0005865	0.00014417	1328.7	4.9516e-06	6.5163e-06	1336.6	365.02	4.6137e-06	4.9631e-06	420.38	140.49	120.15	41.983	3.6014e-06	52.8	0.00051731	0.00044707	0.00012308	1350.1	5.0077e-06	4.7469e-06	1357.7	371.5	4.8915e-06	5.0358e-06	429.41	143.38	123.35	43.112	4.7645e-06	53.943	149.744	165.055	180.980	91.153	220.098	222.560	91.333	95.919	213.134	212.651	95.221	99.564	100.510	104.976	225.258	104.432	-8191	255	
989.910	1	1	0	0	0.027302	0.23238	0.12995	0.22657	0.22129	0.18563	0.22723	0.41952	0.3301	0.08658	0.30216	0.15166	0.091591	0.53005	0.098064	0.28037	-1.5562	-1.2021	-1.8563	-2.1375	-1.3125	-1.9667	-1.6917	-1.4583	-2.0729	-1.2125	-1.7479	-2.0458	-1.0812	-1.9792	-1.3854	-1.2833	269.420	396.294	261.292	368.850	285.670	263.281	401.276	367.453	427.290	80.260	383.050	137.436	332.787	78.690	238.686	215.284	0.00058786	0.00063472	0.00013396	1330.3	4.0649e-06	5.5879e-06	1343.5	365.68	5.4618e-06	5.0338e-06	421.9	140.73	120.19	41.979	4.4081e-06	52.244	0.00052136	0.00043896	0.00011876	1350.8	4.8848e-06	4.4966e-06	1360.1	371.9	4.6396e-06	4.5436e-06	429.91	143.66	123.34	43.12	4.9164e-06	53.826	150.832	162.802	168.431	91.274	226.082	210.953	91.194	96.180	222.299	227.067	95.518	99.635	100.572	104.887	233.583	104.364	-8191	255	
990.007	1	1	0	0	0.048919	0.21006	0.15122	0.28558	0.28041	0.26719	0.25715	0.13411	0.13048	0.076882	0.13955	0.25253	0.18778	0.054899	0.078582	0.053403	-1.6562	-1.0833	-1.4417	-1.9667	-0.87917	-1.8292	-1.8062	-1.2167	-2.1646	-1.375	-1.5375	-2.1104	-1.2396	-1.7958	-1.8937	-1.2229	272.710	365.195	129.791	375.981	406.685	352.801	406.241	404.523	215.257	221.955	176.551	403.578	348.024	139.994	391.465	303.600	0.000603	0.00042631	0.00013501	1332.5	4.9952e-06	5.2137e-06	1338	364.36	5.4634e-06	4.7846e-06	421.55	139.9	120.99	41.948	7.0816e-06	52.452	0.00051875	0.00043859	0.00012275	1350.7	4.8564e-06	4.5103e-06	1357.8	371.2	4.7512e-06	4.6837e-06	429.21	143.35	123.45	43.093	4.6702e-06	53.852	150.844	161.778	177.107	91.179	227.254	238.476	91.184	95.807	233.859	232.196	95.670	99.913	100.309	105.025	234.054	104.423	-8191	255	
990.127	1	1	0	0	0.096188	0.18593	0.14547	0.2705	0.11815	0.28973	0.14287	0.26606	0.11443	0.11353	0.29814	0.2878	0.31304	0.118	0.18018	0.25139	-1.6292	-1.425	-1.4458	-2.0646	-1	-1.7229	-1.8208	-1.2917	-1.8292	-1.3729	-1.3771	-2.0729	-1.2208	-1.9375	-1.9708	-1.1042	218.589	300.780	432.321	376.872	91.606	357.632	374.587	78.149	163.098	132.269	365.981	421.674	428.720	370.765	127.889	434.754	0.0005785	0.00046362	9.7403e-05	1331.6	5.4991e-06	6.284e-06	1340.1	364.21	5.4345e-06	4.744e-06	421.15	140.64	121.21	41.833	3.9164e-06	52.641	0.00050861	0.00042885	0.00012417	1351.3	4.971e-06	4.5097e-06	1358.4	371.27	4.807e-06	4.7236e-06	429.32	143.37	123.67	43.137	4.6867e-06	53.789	149.536	176.615	168.561	91.166	221.447	228.567	91.201	95.925	215.081	214.240	95.467	99.922	100.512	105.313	221.295	103.978	-8191	255	
990.199	1	1	0	0	0.18031	0.13641	0.17766	0.23003	0.074513	0.1695	0.32104	0.3014	0.074076	0.080527	0.11658	0.11314	0.19084	0.20672	0.064774	0.18826	-1.5542	-1.5604	-1.15	-2.2396	-1.1771	-1.8042	-2.1625	-1.2354	-1.9604	-1.4188	-1.2146	-2.1396	-1.2604	-1.6167	-1.7542	-1.0854	356.529	406.945	200.334	323.497	336.198	123.039	348.447	420.586	329.534	369.037	87.465	413.292	138.245	87.887	419.808	356.788	0.0006036	0.00040577	0.00012558	1334.5	4.3293e-06	5.1261e-06	1336.4	363.28	6.1751e-06	4.4034e-06	421.12	141.25	120.76	41.942	5.5277e-06	52.302	0.00051841	0.00042833	0.00012019	1350	4.9253e-06	4.7577e-06	1355.3	370.85	4.8398e-06	4.5841e-06	429.25	143.58	123.2	43.081	4.7092e-06	53.721	148.732	163.957	183.757	91.316	227.081	220.364	91.178	96.070	226.833	221.399	95.386	99.900	100.434	104.874	214.057	104.260	-8191	255	
990.295	1	1	0	0	0.099976	0.23171	0.26465	0.23541	0.23047	0.080922	0.040755	0.283	0.14229	0.50374	0.077387	0.32954	0.23537	0.23922	0.12848	0.033089	-1.4583	-1.7687	-1.0833	-2.1813	-1.3208	-1.2875	-2.1	-1.2979	-1.8396	-1.8146	-1.0354	-2.0021	-1.4729	-1.3208	-2.15	-1.1667	337.147	353.732	418.332	391.938	430.302	210.502	293.027	343.163	154.163	230.234	365.023	334.295	388.683	400.527	197.579	225.217	0.00060909	0.00036237	0.00016932	1333.7	5.0738e-06	4.8898e-06	1343.1	365.13	4.6677e-06	5.2209e-06	421.32	140.51	121.15	41.862	5.0938e-06	52.145	0.00053018	0.00040817	0.00012948	1350.2	4.7277e-06	4.5539e-06	1358.7	371.59	4.8398e-06	4.5758e-06	429.14	143.45	123.27	43.01	4.4225e-06	53.69	152.761	169.762	174.453	91.167	222.619	216.895	91.109	96.121	221.051	216.009	95.427	99.833	100.516	105.140	233.620	104.239	-8191	255	
990.391	1	1	0	0	0.16596	0.22332	0.11881	0.35842	0.21935	0.15978	0.30499	0.2559	0.19129	0.14444	0.2574	0.19799	0.21918	0.23527	0.27025	0.28456	-1.1437	-1.9604	-0.77083	-2.2833	-1.4104	-1.2854	-2.1542	-1.2812	-1.6958	-1.7792	-1.3417	-2.0312	-1.6562	-1.4458	-2.0729	-1.4667	116.711	202.218	154.870	393.895	161.208	382.063	372.379	428.962	431.427	80.229	407.941	156.246	365.127	387.957	395.214	351.803	0.00058223	0.00064038	9.9548e-05	1328.9	5.0451e-06	6.0245e-06	1335.9	364	5.4031e-06	4.0003e-06	421.63	140.52	120.25	41.824	5.877e-06	52.101	0.00051518	0.0004347	0.00011556	1349.2	4.7745e-06	4.6208e-06	1355.4	370.64	4.699e-06	4.3881e-06	428.92	143.29	122.91	43.037	4.5409e-06	53.595	148.564	167.510	174.411	91.176	222.341	235.774	91.080	96.052	214.096	232.772	95.769	100.056	100.748	105.086	210.267	104.036	-8191	255	
990.510	1	1	0	0	0.29303	0.128	0.1001	0.16059	0.13241	0.039764	0.27886	0.13557	0.097637	0.1527	0.032484	0.19549	0.10794	0.083211	0.13484	0.21199	-1.1	-1.8687	-1.2354	-2.1458	-1.6771	-1.2979	-2.3354	-1.3521	-1.4958	-1.8875	-1.275	-2.0667	-1.7458	-1.3729	-2.0854	-1.3667	243.100	120.183	167.622	95.829	248.028	353.014	413.876	373.822	417.075	87.740	156.374	88.442	422.582	429.312	175.141	375.004	0.00055995	0.0005022	0.00012761	1328.2	4.0802e-06	5.4237e-06	1334.9	362.59	5.9353e-06	4.3814e-06	419.03	139.55	121.08	41.933	5.2927e-06	52.499	0.00049883	0.00037743	0.00011611	1346.6	4.7508e-06	4.5605e-06	1355.3	370.03	4.615e-06	4.7278e-06	427.89	143.05	123.2	42.974	4.5354e-06	53.759	151.254	165.253	154.354	91.567	231.813	228.601	91.319	96.016	229.298	218.872	95.543	99.825	100.262	105.091	225.909	104.276	-8191	255	
990.606	1	1	0	0	0.1996	0.26939	0.23507	0.31592	0.13618	0.11113	0.2234	0.25948	0.33094	0.36186	0.041164	0.080858	0.18421	0.092884	0.11348	0.40919	-1.1458	-2.1708	-1.1021	-2.0479	-1.7854	-1.1521	-2.2792	-1.5771	-1.4792	-2.1271	-1.2667	-1.7396	-1.8479	-1.0833	-1.8104	-1.4854	220.007	250.420	219.184	378.301	104.335	164.887	403.225	81.246	169.915	274.722	264.791	286.439	195.748	339.284	149.212	411.507	0.00059395	0.00053341	0.00014594	1330.3	6.0533e-06	3.765e-06	1339	364.14	4.8958e-06	6.0376e-06	420.65	140.04	120.53	41.751	5.0011e-06	52.282	0.00050294	0.00041375	0.00012089	1345.8	4.774e-06	4.5193e-06	1355	370.39	4.7732e-06	4.3768e-06	427.72	142.94	122.96	42.943	4.5935e-06	53.625	150.461	163.577	171.004	91.524	216.938	216.236	91.377	96.154	219.749	236.434	95.667	100.184	100.268	105.104	241.072	104.483	-8191	255	
990.702	1	1	0	0	0.26162	0.23731	0.055333	0.32735	0.3117	0.16081	0.25	0.32435	0.085642	0.14434	0.13683	0.1959	0.12065	0.14663	0.21547	0.098271	-0.84167	-2.0479	-1.2229	-1.6771	-1.7771	-1.2229	-2.0625	-1.7521	-1.0167	-1.8438	-1.4917	-1.4792	-2.0021	-1.2729	-1.9312	-1.8833	225.229	328.982	134.855	367.297	337.614	310.193	308.700	398.897	313.666	300.616	409.480	408.745	353.640	111.749	240.231	271.729	0.00058116	0.00051891	0.00012309	1325.7	5.0826e-06	4.3713e-06	1333.7	363.48	5.1377e-06	5.5839e-06	419.61	140.48	120.13	41.79	6.0922e-06	52.31	0.00051175	0.00040174	0.0001155	1343.5	4.6305e-06	4.4422e-06	1349.9	370.39	4.6862e-06	4.2713e-06	427.31	143.29	122.95	42.976	4.7174e-06	53.631	149.703	159.357	182.423	91.402	223.104	232.324	91.333	95.960	224.314	218.457	95.290	99.702	100.272	104.997	234.735	104.306	-8191	255	
990.798	1	1	0	0	0.10626	0.1433	0.26234	0.13659	0.17528	0.10514	0.13811	0.089577	0.095601	0.057569	0.11659	0.050255	0.37307	0.48216	0.056194	0.15925	-0.81458	-1.9188	-1.325	-1.6021	-1.8771	-1.2292	-2	-1.7125	-0.9875	-2	-1.4729	-1.5104	-2.2292	-1.2396	-1.7313	-2.0312	425.656	278.842	239.844	348.852	118.233	316.150	335.721	349.930	92.626	249.165	109.820	368.543	107.773	362.256	385.262	289.721	0.00060628	0.00037651	0.00014351	1323.8	5.6377e-06	4.7213e-06	1331	363.74	4.2969e-06	5.1644e-06	418.9	139.91	120.56	41.737	4.4831e-06	52.027	0.00052113	0.0003948	0.00011968	1345	4.6542e-06	4.7302e-06	1350.3	370.16	4.8177e-06	4.4113e-06	427.61	143.03	123.11	42.886	4.8139e-06	53.592	151.569	163.822	168.610	91.510	227.651	238.541	91.146	96.064	210.596	249.327	95.470	99.884	100.560	105.092	221.550	104.295	-8191	255	
990.895	1	1	0	0	0.15367	0.11344	0.36018	0.30565	0.069282	0.265	0.19643	0.28916	0.36448	0.26904	0.16459	0.31607	0.29821	0.054984	0.16168	0.070719	-0.74375	-1.9833	-1.3729	-1.5833	-2.0708	-1.2083	-2.1729	-1.8687	-1.0708	-2.025	-1.4208	-1.5146	-2.1604	-1.2563	-1.6375	-2.0167	102.569	139.273	309.533	405.712	276.239	249.288	399.478	383.925	152.131	415.344	228.851	395.844	341.844	175.272	326.534	417.567	0.00061722	0.0005458	0.00012743	1324.8	3.7249e-06	5.0286e-06	1325.7	363.77	4.8968e-06	5.8043e-06	419.96	139.78	119.89	41.883	5.4929e-06	52.227	0.00051929	0.00039269	0.00011632	1342.4	4.5775e-06	4.7224e-06	1348.6	370.17	4.9729e-06	4.608e-06	427.34	143.04	123.05	42.906	4.7256e-06	53.634	150.596	159.109	177.889	91.356	226.901	231.485	91.197	96.033	223.067	229.301	95.479	99.861	100.666	105.225	234.190	104.276	-8191	255	
990.991	1	1	0	0	0.15916	0.34247	0.069234	0.36921	0.15512	0.088588	0.34897	0.24792	0.18105	0.30402	0.31082	0.037903	0.091826	0.17148	0.19215	0.14773	-0.78333	-1.6792	-1.5708	-1.3625	-2.0458	-1.2021	-1.8729	-2.1542	-1.0667	-2.0604	-1.8563	-1.2771	-1.9917	-1.6354	-1.4104	-2.2083	146.489	437.014	364.400	413.676	279.457	377.619	422.841	330.498	210.256	217.970	391.073	243.695	89.294	405.880	227.497	353.043	0.00054962	0.00047659	0.00018114	1323.2	4.8201e-06	6.1455e-06	1327.3	364.07	5.4176e-06	5.9332e-06	418.62	140.12	120.2	41.744	5.0236e-06	51.909	0.00050818	0.00040206	0.00011887	1342.3	4.4109e-06	4.7816e-06	1348.1	369.44	4.852e-06	4.4727e-06	426.58	142.83	122.9	42.915	4.6269e-06	53.561	152.639	180.014	165.300	91.478	231.469	227.572	91.286	96.142	218.677	229.917	95.538	100.135	100.756	105.089	220.976	104.369	-8191	255	
991.111	1	1	0	0	0.16481	0.24036	0.11862	0.072577	0.13176	0.098394	0.29406	0.18046	0.13688	0.31541	0.0051026	0.33669	0.20743	0.31915	0.046593	0.027898	-0.80208	-1.875	-1.5854	-1.4375	-2.1292	-1.525	-1.4854	-2.3063	-1.2271	-1.6417	-2.0083	-1.3292	-2.1479	-1.4562	-1.4312	-2.1562	389.522	401.937	337.570	323.823	277.364	416.867	348.018	344.755	164.581	264.325	366.374	123.048	418.281	366.262	128.914	293.174	0.00059732	0.00047329	0.00012043	1325.9	4.852e-06	6.0887e-06	1327.7	362.97	5.1958e-06	3.6001e-06	419.47	139.89	119.49	41.507	5.0376e-06	52.279	0.00051147	0.00039674	0.00011834	1340	4.5192e-06	4.7099e-06	1347.8	369.37	4.9329e-06	4.3553e-06	427.11	142.61	122.54	42.776	4.7558e-06	53.596	151.803	158.000	182.007	91.453	227.158	225.745	91.433	95.999	221.198	229.532	95.264	99.807	100.490	105.291	227.890	104.370	-8191	255	
991.208	1	1	0	0	0.22698	0.067511	0.065877	0.24599	0.14784	0.11768	0.24628	0.36416	0.20675	0.080288	0.19563	0.2332	0.219	0.35392	0.31768	0.21123	-0.85208	-1.6396	-1.8792	-1.3813	-2.0854	-1.3833	-1.3708	-2.1937	-1.2875	-1.5708	-1.9146	-1.3708	-1.9542	-1.7583	-1.2417	-2.0625	232.577	341.455	343.723	78.574	391.348	388.909	347.159	383.972	273.034	263.892	431.848	142.261	93.810	136.593	151.556	146.655	0.00058718	0.00051895	0.0001261	1320.6	4.7514e-06	5.3358e-06	1330.8	364.13	4.4361e-06	3.942e-06	417.67	139.72	119.74	41.788	5.9358e-06	52.07	0.00051603	0.00041764	0.00011033	1338.7	4.5328e-06	4.548e-06	1347.5	369.58	4.9278e-06	4.3947e-06	426.61	142.96	122.55	42.873	4.7432e-06	53.639	151.067	172.916	153.507	91.328	232.693	227.207	91.478	96.105	213.768	220.653	95.618	99.923	100.657	105.196	230.617	104.185	-8191	255	
991.304	1	1	0	0	0.2539	0.13775	0.20459	0.41522	0.18707	0.20963	0.17239	0.21172	0.42577	0.083685	0.24104	0.13316	0.21789	0.091931	0.053382	0.25547	-0.68333	-1.7229	-2.0396	-1.3333	-1.8375	-1.725	-1.3917	-2.3312	-1.475	-1.45	-2.075	-1.3917	-1.9396	-1.8854	-1.2167	-2.0667	281.995	438.114	241.376	437.570	412.285	232.958	399.539	331.465	375.055	365.779	350.147	377.536	358.794	80.236	381.791	172.765	0.00061478	0.00057008	0.00012725	1320.1	5.1574e-06	5.0189e-06	1329.2	362.96	4.6992e-06	5.6275e-06	418.34	139.98	120.58	41.721	5.1173e-06	52.218	0.00052074	0.00041596	0.00011331	1339.8	4.5995e-06	4.502e-06	1349	369.17	4.8213e-06	4.7063e-06	426.83	142.74	122.96	42.849	5.0809e-06	53.623	150.589	172.384	178.533	91.348	228.558	221.147	91.276	96.270	218.770	224.586	95.588	99.665	100.628	105.161	231.678	104.418	-8191	255	
991.424	1	1	0	0	0.089764	0.027055	0.25746	0.3375	0.11265	0.16718	0.098846	0.13024	0.33086	0.027542	0.080088	0.18362	0.26327	0.054529	0.055277	0.13157	-0.93958	-1.5417	-2	-1.3583	-1.7917	-1.8292	-1.3854	-2.1437	-1.5583	-1.3188	-2.1583	-1.2729	-1.8021	-1.9771	-1.0771	-2.0458	200.145	109.808	354.944	387.411	244.540	203.630	376.193	347.337	413.157	119.629	313.022	435.065	390.423	350.842	234.635	423.568	0.00059646	0.00041968	0.00013095	1318.7	5.9701e-06	5.8088e-06	1330.3	361.48	5.7473e-06	4.4049e-06	418.67	139.99	120.44	41.793	4.1409e-06	52.047	0.00051986	0.00038537	0.0001101	1339.8	4.568e-06	4.395e-06	1349.3	368.74	4.7558e-06	4.3839e-06	426.4	142.88	122.78	42.885	4.667e-06	53.617	151.593	165.333	173.422	91.386	230.601	224.589	91.382	96.151	215.264	232.987	95.529	100.043	100.743	105.208	228.943	104.331	-8191	255	
991.496	1	1	0	0	0.14684	0.12508	0.21454	0.2106	0.29502	0.064496	0.28081	0.32192	0.077355	0.10985	0.046175	0.24682	0.15807	0.21209	0.1898	0.34382	-1.0771	-1.2521	-2.1167	-1.4625	-1.6833	-1.8375	-1.3458	-2.0354	-1.6063	-1.2479	-2.1833	-1.5812	-1.5042	-2.1167	-1.0646	-1.9083	332.177	341.707	371.861	437.586	134.208	370.436	354.879	401.511	206.913	333.330	121.027	318.044	369.154	303.289	170.368	354.706	0.00056338	0.00051568	0.00012728	1320.9	5.5944e-06	4.1987e-06	1330.2	363.17	4.715e-06	5.7247e-06	419.63	139.58	120	41.702	5.6734e-06	51.988	0.00050659	0.00042349	0.00011136	1339.2	4.6542e-06	4.4105e-06	1346.9	369.16	4.7486e-06	4.484e-06	426.59	142.55	122.72	42.85	4.7185e-06	53.568	150.869	172.137	165.688	91.202	227.348	226.237	91.360	96.074	222.342	232.956	95.501	99.881	100.784	105.046	222.500	104.357	-8191	255	
991.590	1	1	0	0	0.29624	0.24135	0.094433	0.07789	0.2342	0.18348	0.25949	0.2438	0.11006	0.39302	0.27008	0.26323	0.049695	0.12056	0.21241	0.2688	-1.1875	-1.1271	-2.025	-1.4771	-1.3396	-1.9479	-1.4208	-2.0146	-1.6583	-1.2521	-2.1063	-1.4604	-1.5875	-2.1625	-1.2875	-1.7667	241.504	279.442	353.157	257.695	392.566	227.901	272.439	330.049	166.114	102.826	365.867	419.148	352.574	245.545	129.071	281.935	0.00059056	0.00049394	0.00010664	1319.4	5.3109e-06	4.7525e-06	1324.4	361.15	5.6981e-06	5.6284e-06	418.95	139.59	120.11	41.918	4.8733e-06	52.079	0.00050501	0.00040385	0.00011182	1339.2	4.6894e-06	4.2994e-06	1346.2	368.88	4.7369e-06	4.6551e-06	426.6	142.77	122.59	42.948	4.6357e-06	53.53	152.209	167.009	167.762	91.213	221.622	221.487	91.327	96.068	230.009	232.780	95.562	99.920	100.666	105.152	239.286	104.470	-8191	255	
991.687	1	1	0	0	0.09954	0.24551	0.043518	0.2912	0.058763	0.23019	0.32814	0.24102	0.09142	0.17442	0.27126	0.20318	0.14865	0.27834	0.11876	0.15291	-1.5542	-1.225	-2.0125	-1.6417	-1.3521	-2.2729	-1.4271	-1.8229	-1.7417	-1.0229	-2.0333	-1.5792	-1.1938	-2.1479	-1.2792	-1.6208	334.809	206.598	393.646	403.643	354.976	273.378	275.178	328.806	200.462	338.009	347.199	89.096	429.519	401.994	392.270	376.669	0.00058711	0.00063301	0.00012228	1318.2	4.5921e-06	7.4118e-06	1326.4	362.79	6.1514e-06	5.5692e-06	419.58	139.43	119.78	41.598	6.3161e-06	52.117	0.00049494	0.00043512	0.00010588	1338.6	4.6552e-06	4.3831e-06	1346.6	369.43	4.4747e-06	4.7361e-06	426.49	142.57	122.59	42.822	4.7656e-06	53.499	152.035	176.260	158.615	91.464	220.770	223.999	91.153	96.276	228.666	227.670	95.744	99.848	101.020	105.140	242.065	104.187	-8191	255	
991.807	1	1	0	0	0.24816	0.10655	0.095771	0.054784	0.081069	0.13808	0.18817	0.32713	0.21383	0.096502	0.16445	0.095649	0.10437	0.29002	0.13953	0.18644	-1.5271	-1.0771	-1.9167	-1.8896	-1.1708	-2.0167	-1.5917	-1.8208	-1.9604	-0.94583	-2.0646	-1.7812	-1.3146	-2.2604	-1.2479	-1.4083	91.166	282.627	83.644	345.359	206.472	145.034	362.719	404.191	394.891	267.796	117.817	161.856	367.576	113.220	415.253	371.247	0.00058011	0.00056956	0.0001057	1320.6	4.8251e-06	4.7091e-06	1329.6	360.8	5.9704e-06	7.0551e-06	417.88	139.88	119.86	41.652	4.5823e-06	52.215	0.00050571	0.00042549	0.00010977	1339.4	4.7614e-06	4.3837e-06	1345.6	368.15	4.5019e-06	4.3863e-06	426.79	142.46	122.49	42.829	4.7377e-06	53.511	151.193	170.265	174.580	91.468	236.764	226.053	91.329	96.294	225.301	218.151	95.787	99.684	100.662	105.261	232.737	104.442	-8191	255	
991.903	1	1	0	0	0.083914	0.1437	0.14494	0.12898	0.15995	0.050497	0.17035	0.2787	0.053613	0.20475	0.39689	0.27857	0.14555	0.16321	0.099706	0.22649	-1.7292	-1.2146	-1.7667	-1.7958	-1.2229	-2.0083	-1.7292	-1.5771	-2.0354	-1.1542	-1.9667	-1.9854	-1.2646	-2.0896	-1.3292	-1.3917	171.635	147.131	161.713	395.716	192.697	432.086	415.125	88.395	286.933	109.933	391.401	387.559	404.767	413.103	86.158	306.253	0.00059761	0.00066047	0.00010665	1322.4	4.4883e-06	4.4242e-06	1327.6	362.08	5.9766e-06	3.8571e-06	417.62	139.16	119.68	41.465	5.469e-06	52.039	0.00050719	0.00042012	0.00011047	1337	4.6778e-06	4.3042e-06	1345.5	368.44	4.5003e-06	4.4507e-06	426.42	142.32	122.69	42.723	4.5299e-06	53.428	152.582	171.809	183.015	91.474	219.633	226.400	91.395	96.478	231.123	227.374	95.656	99.909	100.697	105.255	241.712	104.452	-8191	255	
991.999	1	1	0	0	0.12218	0.25685	0.16976	0.34458	0.10801	0.13812	0.19479	0.13685	0.065687	0.18862	0.092406	0.042283	0.094291	0.55137	0.070526	0.25114	-1.6125	-1.3604	-1.7	-2	-1.1187	-2.0125	-1.8896	-1.525	-1.9813	-1.2354	-1.8396	-2.0083	-1.1708	-1.975	-1.5271	-1.3062	368.737	279.234	297.085	422.610	187.816	348.506	309.020	163.000	398.761	123.742	260.232	328.733	123.917	356.666	172.320	286.068	0.0005807	0.00046848	0.00015176	1321.4	4.0751e-06	6.1988e-06	1321.5	362.52	5.1909e-06	4.5046e-06	418.47	139.8	119.94	41.644	5.1461e-06	52.014	0.00049341	0.00041296	0.00011581	1336.9	4.5375e-06	4.1859e-06	1342.8	368.86	4.377e-06	4.3607e-06	426.29	142.68	122.46	42.758	4.8013e-06	53.427	150.881	168.596	179.872	91.468	222.946	219.487	91.437	96.173	221.338	247.187	95.796	100.095	100.736	105.490	222.345	104.517	-8191	255	
992.071	1	1	0	0	0.076471	0.20525	0.17639	0.06521	0.10463	0.091185	0.21584	0.074019	0.25587	0.033082	0.18659	0.33337	0.089151	0.3691	0.071508	0.20416	-1.6333	-1.3646	-1.6229	-2.0438	-1.0896	-1.8875	-1.8896	-1.3646	-2.1083	-1.175	-1.6042	-2.0771	-1.1021	-1.8958	-1.7292	-1.1458	244.052	290.960	277.044	379.624	175.396	108.078	370.203	80.179	292.916	354.496	92.758	394.046	436.656	334.053	210.171	294.454	0.0005699	0.00056797	0.00013523	1321.4	4.4546e-06	4.1128e-06	1321.2	362.71	5.3349e-06	6.2438e-06	417.92	139.6	120.12	41.694	5.8659e-06	52.099	0.00048786	0.00040627	0.00011422	1337.3	4.598e-06	4.3311e-06	1341.5	368.17	4.5925e-06	4.4757e-06	426.23	142.7	122.53	42.797	4.6324e-06	53.558	152.118	156.093	168.171	91.527	235.142	243.976	91.402	96.291	222.717	222.430	95.608	100.020	100.628	105.143	226.268	104.548	-8191	255	
992.192	1	1	0	0	0.048033	0.30029	0.092414	0.18825	0.21281	0.0078217	0.37603	0.25627	0.10251	0.14274	0.29459	0.060517	0.15158	0.12015	0.068488	0.33012	-1.6958	-1.175	-1.4188	-2.2167	-1.1208	-1.7292	-1.9854	-1.4271	-1.9083	-1.5229	-1.6083	-2.2396	-1.1167	-1.8958	-1.9333	-1.1479	227.922	411.597	314.759	382.235	164.337	212.240	402.331	405.964	253.362	175.819	393.275	393.643	118.781	172.573	220.299	383.116	0.00057102	0.00059848	0.00013054	1313.3	3.8373e-06	6.7542e-06	1321.3	361.49	5.3254e-06	4.6568e-06	418.32	140.1	119.36	41.495	4.814e-06	51.948	0.00049214	0.00041059	0.00011386	1334.8	4.723e-06	4.4213e-06	1340.8	368.46	4.6529e-06	4.4203e-06	426.17	142.68	122.3	42.697	4.4581e-06	53.397	150.593	153.658	175.655	91.699	235.172	225.710	91.448	96.230	232.171	226.351	95.816	99.955	100.762	105.212	223.487	104.425	-8191	255	
992.288	1	1	0	0	0.18673	0.20429	0.10651	0.04218	0.10568	0.23171	0.19299	0.074654	0.15898	0.27248	0.2344	0.20782	0.2498	0.29209	0.039794	0.19188	-1.5271	-1.4833	-1.2271	-2.1813	-1.1917	-1.5354	-1.9958	-1.3604	-1.8917	-1.4833	-1.5271	-2.0292	-1.2687	-1.4625	-2.0417	-1.2062	391.094	354.756	332.202	98.922	433.772	432.049	336.773	105.949	302.531	143.976	307.395	98.624	436.378	390.086	302.388	231.632	0.00059825	0.00045741	0.00011279	1316.3	4.7651e-06	5.4471e-06	1328.6	361.42	5.5886e-06	5.2517e-06	418.17	139.36	120.08	41.585	4.2727e-06	51.913	0.00050444	0.00039932	0.00012123	1334.3	4.6048e-06	4.5462e-06	1343.2	368.08	4.4604e-06	4.4501e-06	426.18	142.46	122.78	42.731	4.4405e-06	53.385	149.124	158.986	180.932	91.492	238.232	241.747	91.464	96.236	225.206	212.821	95.638	100.279	100.580	105.461	222.370	104.484	-8191	255	
992.384	1	1	0	0	0.26687	0.026227	0.18547	0.24956	0.15124	0.25311	0.25424	0.045544	0.15948	0.077748	0.315	0.092435	0.52327	0.19333	0.24589	0.038671	-1.6313	-1.7146	-1.0812	-2.0812	-1.1792	-1.4833	-2.1896	-1.3417	-1.5396	-1.7521	-1.0917	-2.225	-1.5417	-1.3833	-2.0208	-1.4167	366.593	360.165	94.933	352.593	93.683	402.712	375.838	277.956	376.717	128.335	404.985	144.355	429.921	320.280	239.296	107.840	0.00058393	0.00062455	0.00013489	1321.9	5.0239e-06	6.3581e-06	1323.2	361.94	4.4384e-06	5.8693e-06	418.17	139.63	120.11	41.601	4.6817e-06	52.005	0.0005007	0.00040738	0.00012007	1337	4.5643e-06	4.5031e-06	1341.4	368.06	4.4968e-06	4.2797e-06	425.76	142.48	122.42	42.748	4.4444e-06	53.474	151.665	169.939	167.473	91.579	226.896	219.223	91.390	96.240	222.173	223.782	95.813	100.332	100.802	105.160	238.155	104.551	-8191	255	
992.505	1	1	0	0	0.1156	0.14235	0.11238	0.14327	0.18507	0.24341	0.3374	0.22551	0.1873	0.15739	0.11003	0.204	0.33712	0.18911	0.15693	0.37379	-1.3271	-1.8271	-1.0833	-2.0729	-1.5708	-1.2812	-2.3042	-1.3813	-1.5729	-1.8417	-1.2521	-2.0875	-1.7479	-1.2563	-2.0479	-1.3021	163.584	178.027	88.538	414.235	221.364	424.375	416.218	394.997	302.806	401.579	109.862	426.482	400.770	122.489	423.646	376.279	0.00061371	0.00051637	0.00015631	1318.6	4.9103e-06	5.424e-06	1323.9	362.45	5.704e-06	6.369e-06	418.16	140.05	120.13	41.538	5.9153e-06	51.917	0.00051884	0.00040827	0.00012038	1336.6	4.5039e-06	4.545e-06	1343.1	368.47	4.8223e-06	4.2737e-06	426.35	142.69	122.55	42.747	4.4762e-06	53.458	152.464	164.655	175.360	91.466	227.224	222.657	91.362	96.119	227.547	234.423	95.680	100.081	100.772	105.541	226.333	104.383	-8191	255	
992.601	1	1	0	0	0.11357	0.20934	0.11546	0.31234	0.070928	0.15554	0.29225	0.31918	0.17673	0.28923	0.12999	0.23424	0.10289	0.19744	0.08652	0.18221	-1.3021	-1.9125	-1.225	-1.9271	-1.5063	-1.3167	-2.1437	-1.3521	-1.6104	-2.1479	-1.3917	-2.0854	-1.7958	-1.4167	-2.0187	-1.35	405.626	313.453	213.329	363.897	315.543	95.249	351.578	371.106	266.069	436.442	350.822	98.791	421.567	390.080	278.781	388.301	0.00058208	0.00061061	0.00013504	1315.5	5.5245e-06	4.9396e-06	1326.9	360.99	4.9118e-06	4.1273e-06	417.31	139.7	119.99	41.663	5.7083e-06	52.151	0.00049911	0.0003879	0.00011412	1335	4.6374e-06	4.5492e-06	1345.6	368.12	4.7665e-06	4.3422e-06	425.02	142.63	122.8	42.791	4.412e-06	53.555	149.705	164.509	169.279	91.493	229.168	219.056	91.524	96.248	228.219	214.435	95.640	100.098	100.879	105.172	220.061	104.364	-8191	255	
992.673	1	1	0	0	0.19345	0.054649	0.39214	0.17886	0.25919	0.024566	0.20823	0.16915	0.092538	0.19334	0.23697	0.057533	0.35042	0.031197	0.14774	0.11635	-0.97083	-2.1271	-1.2104	-1.9354	-1.7896	-1.0479	-2.3021	-1.5271	-1.3667	-2.0771	-1.4	-1.8083	-1.8667	-1.1104	-1.9417	-1.6313	243.329	291.571	325.517	432.920	389.131	326.550	344.827	115.831	182.610	220.190	347.445	129.425	346.288	205.399	134.403	120.960	0.000602	0.00064273	0.00014376	1325.2	5.0695e-06	4.4496e-06	1328.7	360.81	5.5901e-06	5.3142e-06	419.38	140.2	119.84	41.636	4.2921e-06	51.98	0.00052153	0.00040001	0.00011936	1337.6	4.7241e-06	4.4745e-06	1344.7	367.88	4.7824e-06	4.1646e-06	426.13	142.63	122.44	42.762	4.3676e-06	53.557	152.166	166.283	177.923	91.654	206.939	218.474	91.439	96.229	216.210	234.918	95.457	100.202	100.700	105.357	229.684	104.497	-8191	255	
992.791	1	1	0	0	0.074986	0.20261	0.12349	0.46919	0.080882	0.10454	0.096088	0.053827	0.11077	0.10065	0.25637	0.31497	0.16706	0.38593	0.099923	0.19615	-1.0042	-2.2	-1.2146	-1.7938	-1.9125	-1.3104	-2.3375	-1.7604	-1.2667	-2.2	-1.2542	-1.7958	-1.975	-1.1958	-1.8042	-1.9167	356.483	238.871	101.046	375.475	218.544	309.022	425.567	394.812	106.388	380.948	422.150	314.868	250.032	104.367	289.175	339.774	0.00060369	0.00038334	0.00011519	1319	4.9581e-06	4.6661e-06	1326.4	362.15	4.9045e-06	6.4228e-06	418.15	139.45	120.88	41.505	5.7965e-06	51.962	0.00050861	0.00040575	0.00011301	1337.6	4.5764e-06	4.7021e-06	1345.2	368.94	4.6892e-06	4.4888e-06	426.07	142.68	122.71	42.735	4.6291e-06	53.468	149.448	156.710	165.374	91.632	230.424	222.412	91.677	96.453	231.715	221.265	95.754	100.344	100.750	105.333	231.222	104.361	-8191	255	
992.888	1	1	0	0	0.25682	0.19769	0.50417	0.21979	0.24715	0.043283	0.37115	0.082452	0.35551	0.1508	0.38184	0.079566	0.3427	0.12078	0.084022	0.32	-1.1979	-2.1958	-1.2604	-1.5688	-2.0542	-1.2875	-2.0729	-1.8125	-1.1375	-1.9875	-1.6063	-1.55	-2.1292	-1.4813	-1.7667	-1.9729	337.014	405.982	437.769	406.129	312.029	230.011	342.942	330.564	392.178	194.797	373.067	377.128	403.100	363.336	144.438	360.707	0.00059292	0.00059154	0.00011444	1316.9	4.8934e-06	4.685e-06	1324.9	362.25	5.7736e-06	5.0221e-06	420.15	140.21	119.97	41.703	5.4553e-06	52.248	0.00051819	0.00038427	0.00011318	1336.7	4.3531e-06	4.4679e-06	1345.7	369.13	4.7174e-06	4.3678e-06	426.62	142.77	122.54	42.779	4.6434e-06	53.542	151.690	180.240	146.886	91.782	220.629	236.623	91.564	96.215	230.065	228.735	95.640	100.166	100.799	105.410	235.848	104.659	-8191	255	
992.984	1	1	0	0	0.23523	0.16314	0.14829	0.3715	0.067294	0.18336	0.22949	0.049058	0.23103	0.23417	0.52716	0.11419	0.14732	0.36283	0.097261	0.2023	-0.80833	-1.9021	-1.2687	-1.3854	-2.0563	-1.1479	-1.9417	-1.9042	-1.1167	-1.8542	-1.7437	-1.2771	-2.1708	-1.35	-1.5917	-1.8729	160.042	237.637	284.568	431.001	123.168	97.016	333.806	415.769	139.149	416.579	89.986	309.319	81.802	120.315	225.671	414.705	0.00057781	0.00046729	0.00014161	1319	4.6557e-06	5.7765e-06	1327.8	360.9	4.873e-06	5.3417e-06	418.54	139.24	119.96	41.556	4.3667e-06	51.933	0.00050438	0.00040269	0.00011416	1337.9	4.4425e-06	4.4649e-06	1344.9	368.1	4.6575e-06	4.599e-06	426.57	142.42	122.48	42.69	4.5864e-06	53.467	148.189	163.481	164.899	91.578	226.582	221.584	91.934	96.250	222.801	239.250	96.020	100.265	101.097	105.376	227.837	104.447	-8191	255	
993.104	1	1	0	0	0.16558	0.24609	0.087792	0.09977	0.081732	0.26265	0.21884	0.10147	0.057849	0.17154	0.19979	0.06194	0.064165	0.25703	0.1342	0.068571	-0.77917	-1.8667	-1.5146	-1.425	-1.975	-1.3354	-1.8125	-2.0062	-1.2854	-2.0812	-1.6854	-1.275	-1.9333	-1.3438	-1.4875	-2.0104	414.061	409.672	209.197	273.661	87.934	195.879	363.392	91.508	382.223	260.578	145.954	385.737	340.255	112.016	427.654	127.592	0.00056675	0.00050559	0.00012993	1314.9	4.4005e-06	5.0162e-06	1323	362.05	5.0852e-06	6.1569e-06	420.28	140.21	120.09	41.63	4.7691e-06	52.045	0.00050356	0.00040906	0.00011019	1334.8	4.4766e-06	4.4649e-06	1344.2	368.62	4.8029e-06	4.4489e-06	426.78	142.74	122.53	42.765	4.5787e-06	53.47	148.877	169.096	175.133	91.901	227.906	227.509	91.499	96.533	218.257	224.202	95.814	100.441	101.189	105.410	218.586	104.964	-8191	255	
993.200	1	1	0	0	0.099298	0.16643	0.10474	0.21139	0.04735	0.095016	0.24079	0.30683	0.18939	0.4156	0.26846	0.054548	0.1513	0.23138	0.083114	0.20714	-0.74583	-1.9646	-1.725	-1.2625	-1.9083	-1.475	-1.4583	-2.1562	-1.1458	-1.8708	-1.95	-1.2396	-2.0625	-1.6542	-1.3792	-2.0958	272.086	329.987	103.824	78.817	235.361	304.395	413.487	341.673	338.410	388.933	338.103	138.908	346.096	377.025	97.245	419.933	0.00055444	0.00064822	0.00014667	1318.3	4.5049e-06	5.5377e-06	1328	362.36	5.8911e-06	5.2451e-06	418.13	140.15	119.91	41.573	5.3447e-06	52.365	0.000502	0.00040706	0.00011427	1334.5	4.7656e-06	4.533e-06	1343.4	368.5	4.7824e-06	4.4834e-06	426.33	142.74	122.64	42.745	4.4362e-06	53.524	148.280	166.480	175.506	92.097	232.465	242.900	92.088	96.652	227.388	219.511	96.068	100.490	101.228	106.018	220.527	105.002	-8191	255	
993.297	1	1	0	0	0.17549	0.38575	0.058686	0.32128	0.14713	0.24662	0.26386	0.16342	0.18518	0.23996	0.086893	0.14663	0.11206	0.077378	0.1346	0.2983	-0.88542	-1.7083	-1.875	-1.3104	-1.9062	-1.3312	-1.5917	-2.3688	-1.3396	-1.5604	-2.175	-1.3146	-1.9813	-1.5042	-1.1313	-2.1417	174.851	192.809	315.482	399.481	421.127	213.279	359.614	293.945	337.140	121.687	160.498	205.177	407.983	170.723	219.977	377.726	0.0006072	0.00035867	0.00014436	1320.8	6.6137e-06	4.9484e-06	1323	362.36	5.1211e-06	5.2357e-06	419.6	140.23	120.09	41.639	5.0755e-06	52.059	0.00052301	0.00039885	0.00011169	1336.6	4.6531e-06	4.5354e-06	1343.4	368.85	4.8986e-06	4.4042e-06	426.42	142.73	122.74	42.758	4.6379e-06	53.516	151.692	167.416	165.144	92.011	215.853	227.554	92.015	96.828	225.420	227.386	96.299	100.653	101.405	105.572	233.853	105.055	-8191	255	
993.368	1	1	0	0	0.19346	0.16978	0.073736	0.21686	0.099458	0.16262	0.20312	0.18172	0.20311	0.02957	0.20086	0.15359	0.077107	0.23668	0.34126	0.17982	-1.0229	-1.5354	-1.9396	-1.4062	-1.85	-1.8021	-1.4125	-2.1333	-1.3646	-1.4646	-2.0458	-1.2521	-1.6771	-1.8312	-1.0854	-2.3146	421.108	302.571	125.580	407.985	414.932	264.347	423.996	375.003	179.117	261.072	318.310	426.363	398.147	405.669	332.126	342.192	0.00060359	0.00053252	0.00013101	1325.4	4.9654e-06	5.3233e-06	1326.2	363.21	6.291e-06	3.7664e-06	419.85	140.04	120.2	41.736	6.4112e-06	52.034	0.00050021	0.00040238	0.00010813	1336.5	4.4997e-06	4.2331e-06	1343.5	369.09	4.7804e-06	4.4334e-06	427.08	142.68	122.81	42.812	4.8534e-06	53.459	151.451	158.891	169.042	91.989	213.057	234.018	92.108	97.190	227.132	228.572	96.360	100.575	101.271	105.625	238.181	104.969	-8191	255	
993.464	1	1	0	0	0.26939	0.015925	0.089463	0.15379	0.13902	0.15475	0.43581	0.31721	0.097304	0.44543	0.30137	0.10061	0.32621	0.093525	0.12844	0.1655	-1.0812	-1.1938	-2.1063	-1.3625	-1.7313	-1.8	-1.2188	-2.3583	-1.3896	-1.2646	-2.1437	-1.2979	-1.85	-1.9438	-1.2375	-2.0292	222.026	434.777	316.559	113.035	265.616	300.533	367.726	396.885	158.322	127.060	386.387	156.989	130.662	350.082	273.442	375.123	0.00055022	0.0005134	0.00014572	1319.9	5.2456e-06	4.8431e-06	1327.3	361.84	5.4214e-06	5.4452e-06	418.61	139.87	120.55	41.649	4.744e-06	51.993	0.00048573	0.00040764	0.00011211	1334.9	4.66e-06	4.3884e-06	1343	368.52	4.7543e-06	4.5454e-06	426.44	142.55	122.83	42.765	4.7119e-06	53.436	151.137	161.537	180.732	91.849	233.329	247.337	91.815	96.757	215.677	224.786	96.155	100.358	101.249	105.718	222.383	104.840	-8191	255	
993.583	1	1	0	0	0.31563	0.10569	0.27103	0.28673	0.10047	0.18551	0.14535	0.15925	0.19578	0.20147	0.11415	0.293	0.042291	0.055692	0.088063	0.45778	-1.2396	-1.3354	-1.9771	-1.5104	-1.5167	-1.9062	-1.3125	-2.0729	-1.4604	-1.2875	-2.1167	-1.5667	-1.5854	-2.0729	-1.075	-1.95	152.894	296.187	336.479	308.457	184.067	428.008	386.436	262.076	101.285	210.068	288.986	385.693	117.469	307.928	436.262	398.867	0.00057501	0.0005407	0.00010426	1314.4	5.0742e-06	6.4452e-06	1320.8	362.23	4.9662e-06	6.208e-06	419.8	139.91	119.81	41.568	6.3112e-06	51.989	0.00050733	0.00043107	0.00011412	1332.2	4.7466e-06	4.453e-06	1339.9	369.14	4.6749e-06	4.5704e-06	426.43	142.64	122.4	42.761	4.7454e-06	53.41	152.703	160.933	168.232	91.956	226.331	243.636	92.040	96.843	214.180	229.333	96.105	100.421	101.280	105.438	229.345	104.757	-8191	255	
993.679	1	1	0	0	0.16704	0.23591	0.13766	0.24556	0.27857	0.14039	0.30594	0.21894	0.034389	0.16282	0.27239	0.13557	0.20637	0.24629	0.15626	0.15139	-1.1854	-1.0229	-1.7458	-1.3458	-1.3	-1.9875	-1.3333	-1.8896	-1.6146	-1.1729	-2.0833	-1.6229	-1.5312	-2.1854	-1.0812	-1.9292	261.814	301.992	412.188	389.893	390.147	382.353	365.667	409.334	199.381	215.524	381.996	412.290	416.948	422.717	370.595	121.144	0.00061443	0.00059465	0.00012717	1313	5.3648e-06	6.6021e-06	1320.3	364.05	5.2592e-06	5.875e-06	419.13	140.15	121.09	41.546	5.4812e-06	52.132	0.00052326	0.00044159	0.00011558	1332.7	4.7855e-06	4.5002e-06	1341.2	369.82	4.8116e-06	4.6175e-06	426.11	142.98	123.17	42.691	4.9416e-06	53.516	150.660	160.265	170.714	91.901	229.031	233.989	91.753	96.923	214.171	229.811	96.325	100.638	101.607	105.802	225.906	104.769	-8191	255	
993.776	1	1	0	0	0.26945	0.13375	0.23649	0.18656	0.26826	0.090348	0.42686	0.041123	0.19272	0.17348	0.22032	0.32158	0.16048	0.17963	0.13583	0.20897	-1.5187	-1.2	-2.0417	-1.3854	-1.3417	-2.0771	-1.5542	-2.0438	-1.9229	-1.2062	-2.2188	-1.6313	-1.3937	-2.2896	-1.3708	-1.6396	275.755	100.925	168.005	132.708	259.800	112.317	408.005	402.541	161.156	230.536	351.362	352.365	371.921	336.574	351.063	332.502	0.00059693	0.00040215	0.00011891	1320.1	4.3036e-06	4.9403e-06	1323.4	362.91	5.0911e-06	5.2907e-06	417.88	140	120.58	41.647	5.9839e-06	52.029	0.00051827	0.00041654	0.00011193	1335.1	4.7656e-06	4.4159e-06	1341.1	369.19	4.4369e-06	4.4036e-06	425.82	142.79	122.78	42.803	4.6949e-06	53.346	151.933	167.154	178.007	92.055	233.010	217.580	92.036	96.781	228.320	223.478	96.304	100.767	101.169	105.547	231.891	105.057	-8191	255	
993.896	1	1	0	0	0.13298	0.15341	0.075395	0.40873	0.13028	0.23523	0.27306	0.27799	0.23226	0.20682	0.25375	0.21767	0.21702	0.24533	0.15867	0.10176	-1.5125	-1.1708	-2.0729	-1.7396	-1.0187	-2.075	-1.5146	-1.6187	-1.8937	-1.1208	-2.1688	-1.9396	-1.3833	-2.1729	-1.325	-1.5604	273.710	327.376	423.008	422.885	160.506	262.076	339.322	374.867	197.369	367.108	411.282	437.284	433.703	192.599	412.350	292.568	0.00058414	0.0004332	0.00013491	1313.6	5.0582e-06	3.6646e-06	1322.7	362.84	4.6981e-06	6.5076e-06	418.35	139.39	120.31	41.748	4.12e-06	52.084	0.00051382	0.00039516	0.0001151	1333.9	4.919e-06	4.2421e-06	1340.8	368.91	4.6217e-06	4.6872e-06	426.71	142.51	122.61	42.776	4.9328e-06	53.454	149.808	171.365	180.920	92.045	229.263	230.598	91.896	96.714	224.503	230.975	96.045	100.394	101.085	105.423	231.865	104.972	-8191	255	
993.968	1	1	0	0	0.17028	0.12555	0.18899	0.042134	0.14878	0.16896	0.46343	0.24212	0.098136	0.11617	0.45282	0.22175	0.085814	0.32837	0.15184	0.25221	-1.575	-1.0583	-1.6271	-1.6479	-1.2812	-2.1042	-1.6271	-1.4021	-1.9875	-1.3229	-1.9083	-1.8333	-1.1958	-2.0938	-1.2292	-1.3813	177.203	340.945	79.346	378.362	428.648	315.671	354.874	423.978	245.807	132.734	376.144	353.389	407.911	422.376	79.971	374.835	0.00057986	0.00035072	0.00015418	1316.4	5.1238e-06	5.4127e-06	1321.3	361.67	5.1049e-06	4.8434e-06	418.73	139.23	119.98	41.662	5.8311e-06	51.995	0.00050801	0.00041696	0.00011876	1334.7	4.8454e-06	4.3837e-06	1340.3	368.82	4.5326e-06	4.6133e-06	426.24	142.42	122.53	42.754	4.6692e-06	53.423	148.180	165.690	171.281	91.765	226.286	219.516	91.951	96.720	220.500	230.509	96.005	100.527	101.172	105.671	219.754	105.229	-8191	255	
994.064	1	1	0	0	0.18123	0.11715	0.26388	0.26586	0.036712	0.13694	0.19871	0.046659	0.22308	0.065493	0.23416	0.11067	0.34085	0.20391	0.30534	0.28848	-1.5854	-1.45	-1.6313	-1.9958	-1.1333	-1.8937	-1.8083	-1.4708	-2.2146	-1.0396	-1.7229	-1.9438	-1.2333	-1.9771	-1.6521	-1.3646	406.780	397.502	226.801	387.594	247.980	103.636	327.862	431.728	265.710	280.229	356.550	114.483	79.666	84.022	370.694	362.661	0.00060477	0.00051995	0.00015628	1316.8	4.5959e-06	5.2719e-06	1324.9	362.71	4.4009e-06	5.8824e-06	420.02	140.33	119.61	41.602	5.5871e-06	52.003	0.00050118	0.00041427	0.00011389	1333.7	4.9631e-06	4.3102e-06	1341.6	368.93	4.7665e-06	4.5496e-06	426.73	142.71	122.6	42.81	4.6675e-06	53.459	150.721	163.603	164.634	91.957	222.909	242.317	91.917	96.683	219.666	232.048	96.600	100.516	101.649	105.928	226.385	105.051	-8191	255	
994.185	1	1	0	0	0.21362	0.29519	0.084335	0.19948	0.061489	0.31058	0.19544	0.26425	0.067123	0.075574	0.42463	0.30459	0.16435	0.17291	0.20917	0.39973	-1.8667	-1.3125	-1.3979	-2.0875	-1.0083	-2.0229	-1.9146	-1.3583	-2.0146	-1.6083	-1.4625	-2.1562	-1.1729	-1.9083	-1.6	-1.3583	427.496	208.753	80.971	361.247	351.576	400.169	435.397	310.211	235.856	235.557	393.855	408.572	203.238	436.800	127.923	332.666	0.0005985	0.00048945	0.00012949	1320.3	4.856e-06	5.1257e-06	1326.8	362.92	5.0595e-06	3.8979e-06	418.99	140.18	120.96	41.777	5.2335e-06	52.002	0.00050778	0.0004109	0.00011748	1336.6	4.7582e-06	4.4553e-06	1344	368.74	4.6939e-06	4.4846e-06	426.41	142.88	122.83	42.784	4.5622e-06	53.417	151.757	161.660	159.759	91.949	227.460	229.768	91.994	96.829	217.134	208.029	96.350	100.683	101.327	106.080	233.059	105.130	-8191	255	
994.281	1	1	0	0	0.22888	0.23557	0.24007	0.040016	0.18331	0.049987	0.1056	0.29127	0.094158	0.15291	0.26951	0.31807	0.13026	0.12027	0.30525	0.022281	-1.7083	-1.3167	-1.3646	-2.3333	-1.2646	-1.8625	-2.15	-1.3354	-1.9125	-1.5625	-1.3458	-2.1875	-1.3583	-1.6479	-1.7167	-1.0604	386.597	335.255	263.952	380.091	91.678	245.301	395.582	398.556	85.680	414.809	369.123	374.073	416.980	388.911	213.814	253.722	0.00061061	0.00033757	0.00012016	1318.7	5.7117e-06	6.2392e-06	1322.7	362.13	6.1525e-06	4.0031e-06	419.5	139.87	120.69	41.845	5.8725e-06	52.45	0.00051138	0.00041054	0.0001216	1335.3	4.8423e-06	4.7672e-06	1341.3	368.53	4.6575e-06	4.6598e-06	426.39	142.71	123.06	42.936	4.8912e-06	53.605	149.699	166.562	166.848	92.490	214.835	215.097	92.138	97.029	228.534	233.534	96.293	100.550	101.225	105.671	228.987	104.897	-8191	255	
994.377	1	1	0	0	0.12982	0.34862	0.21621	0.25985	0.076402	0.18649	0.24085	0.12485	0.2215	0.14124	0.13494	0.26683	0.12227	0.25173	0.027726	0.19214	-1.7667	-1.6688	-1.2854	-2.0667	-1.2333	-1.55	-2.1437	-1.2812	-1.8583	-1.5688	-1.3438	-2.1521	-1.3563	-1.6104	-2.075	-1.3	369.697	93.382	284.227	105.068	97.409	328.304	430.311	96.829	190.572	351.881	214.691	424.882	123.093	395.613	222.778	412.000	0.00060199	0.00053827	0.0001389	1322.8	4.6774e-06	4.8209e-06	1327.2	362.84	5.0338e-06	4.0983e-06	421.72	140.65	120.3	41.886	4.9483e-06	52.413	0.0005238	0.00044896	0.00012351	1338.5	5.076e-06	4.9524e-06	1344.1	369.29	4.9432e-06	4.6634e-06	427.25	143.36	123.2	42.918	4.7799e-06	53.655	150.411	172.134	186.093	92.086	225.395	222.471	91.969	97.043	234.127	230.212	96.277	100.611	101.255	105.889	225.330	105.107	-8191	255	
994.473	1	1	0	0	0.034793	0.29727	0.045302	0.46246	0.26307	0.24934	0.245	0.35477	0.34138	0.04266	0.09032	0.28479	0.49051	0.1735	0.1602	0.26679	-1.3458	-1.7396	-1.2646	-2.2104	-1.4042	-1.5104	-2.1458	-1.3667	-1.8604	-1.7417	-1.3854	-2.2021	-1.5271	-1.5667	-2.1083	-1.4083	357.388	420.418	149.638	423.303	269.017	118.919	385.648	336.385	204.283	435.510	165.198	265.105	390.688	437.120	280.291	88.088	0.00060979	0.00062587	0.00017845	1324.1	3.9775e-06	5.6665e-06	1325.3	363.01	5.4122e-06	5.0548e-06	419.19	140.23	120.4	41.894	3.5317e-06	52.371	0.00052819	0.00043464	0.00012437	1340.2	4.9121e-06	4.674e-06	1347.4	369.68	4.7671e-06	4.4697e-06	426.93	142.93	122.89	42.928	4.6061e-06	53.633	151.476	168.666	166.821	92.374	225.852	227.160	92.044	96.773	220.794	221.358	96.282	100.848	101.526	105.996	224.121	104.926	-8191	255	
994.592	1	1	0	0	0.20096	0.21242	0.0054495	0.23387	0.34015	0.1807	0.32647	0.21048	0.13387	0.16147	0.20231	0.09364	0.21965	0.36594	0.24538	0.16493	-1.3792	-1.7625	-0.85417	-2.1417	-1.5438	-1.3583	-2.2042	-1.2542	-1.5979	-1.8813	-1.2417	-1.8833	-1.6333	-1.3521	-1.9042	-1.3708	288.750	243.123	111.406	333.659	292.927	396.631	330.374	436.209	109.161	380.441	326.586	110.139	111.917	102.969	276.713	408.286	0.00058929	0.00054127	0.00013008	1323.6	5.6745e-06	5.3393e-06	1330	363.16	4.5527e-06	4.5321e-06	421.94	140.4	120.66	41.625	5.7175e-06	52.165	0.00051076	0.0004258	0.00012067	1340.4	4.7981e-06	4.8521e-06	1348	369.52	4.8684e-06	4.4644e-06	427.58	143.16	122.82	42.845	4.5864e-06	53.517	152.570	170.263	179.298	92.439	235.373	220.707	92.136	96.861	225.021	223.895	96.773	100.718	101.196	105.804	224.042	104.964	-8191	255	
994.664	1	1	0	0	0.45556	0.32821	0.11357	0.33277	0.12571	0.16146	0.25772	0.18196	0.15941	0.095779	0.15855	0.10498	0.33337	0.14304	0.21217	0.18581	-1.0104	-1.9729	-1.0667	-2.1104	-1.6292	-1.15	-2.3333	-1.5208	-1.3875	-2.0021	-1.2333	-2.0521	-1.8854	-1.2167	-1.9875	-1.4729	234.326	426.183	369.438	411.531	207.202	331.880	344.567	384.067	292.847	284.456	106.633	147.485	101.376	265.434	298.203	386.128	0.00059112	0.00051628	0.00014399	1319	5.131e-06	5.873e-06	1326.4	361.97	4.4139e-06	3.7442e-06	418.46	140.09	119.71	41.716	5.3968e-06	52.52	0.00050909	0.00042085	0.00012356	1337.2	4.7782e-06	4.8258e-06	1345.6	369.22	4.8659e-06	4.4608e-06	426.56	142.89	122.7	42.833	4.6708e-06	53.515	152.465	156.437	163.091	92.306	220.272	223.739	91.932	96.817	219.548	221.514	96.501	100.837	101.867	106.015	229.854	104.938	-8191	255	
994.784	1	1	0	0	0.16856	0.085775	0.099236	0.30275	0.23322	0.082594	0.3736	0.49757	0.2967	0.048447	0.19821	0.23125	0.10419	0.25805	0.088193	0.26334	-1.0312	-2.1417	-1.1583	-1.8583	-1.9458	-1.1562	-2.2562	-1.6	-1.275	-2.2292	-1.3167	-1.9354	-2.0667	-1.4438	-2.0312	-1.6437	239.767	405.488	99.483	387.053	406.568	219.200	382.948	383.445	210.436	160.458	90.999	407.042	238.475	388.258	80.007	234.890	0.00059613	0.00042645	0.00014422	1323.4	4.8653e-06	4.4936e-06	1326.3	363.32	5.4137e-06	6.7114e-06	420.51	140.2	119.8	41.815	4.7187e-06	51.842	0.0005111	0.00039806	0.00012177	1337.6	4.6006e-06	4.7051e-06	1345.6	369.57	4.9386e-06	4.4298e-06	427.54	142.93	122.63	42.826	4.6308e-06	53.515	149.379	169.162	183.958	92.061	223.035	221.551	91.992	96.575	226.187	228.277	96.308	100.651	101.281	106.066	240.470	105.270	-8191	255	
994.880	1	1	0	0	0.2492	0.037604	0.072859	0.21376	0.15398	0.11768	0.16425	0.54441	0.040698	0.29811	0.22586	0.23686	0.42376	0.30591	0.34691	0.22111	-0.75208	-1.975	-1.3604	-1.9604	-1.7833	-0.86667	-2.0187	-1.6792	-1.2521	-2	-1.3125	-1.8188	-1.9875	-1.3396	-1.9438	-1.6521	230.804	257.842	341.216	387.156	309.530	198.521	355.879	392.168	287.623	199.573	421.076	349.978	376.947	433.329	356.443	437.478	0.00059428	0.00052319	0.0001219	1320	5.2839e-06	4.5693e-06	1325.7	363.48	4.7327e-06	5.4653e-06	417.73	140.1	120.15	41.731	5.1159e-06	52.16	0.00052896	0.00042017	0.00012318	1337.4	4.7288e-06	4.7624e-06	1342.3	369.14	4.7793e-06	4.6145e-06	425.8	142.8	122.52	42.864	4.8676e-06	53.459	150.400	164.185	153.701	92.115	228.510	236.288	92.600	97.362	220.628	234.899	96.322	100.720	101.259	105.692	216.735	105.001	-8191	255	
994.977	1	1	0	0	0.27059	0.1039	0.046457	0.31223	0.055159	0.085641	0.056215	0.10539	0.3432	0.11972	0.382	0.4887	0.22773	0.1772	0.097886	0.096931	-0.675	-1.8521	-1.4188	-1.6354	-1.9854	-1.225	-2.2083	-1.8563	-1.2083	-2.0438	-1.4833	-1.4125	-2.0521	-1.2021	-1.6979	-1.8229	395.891	242.865	399.646	85.734	204.594	399.449	261.849	400.953	407.050	358.152	370.837	391.867	417.885	438.249	263.053	313.592	0.00058056	0.00051759	0.00012357	1320.6	4.8897e-06	4.8719e-06	1327.6	363.55	5.7257e-06	5.5861e-06	419.71	140.57	120.75	41.738	6.3629e-06	52.143	0.00051444	0.00041385	0.00011694	1335.3	4.5906e-06	4.7117e-06	1345.6	369.62	4.9703e-06	4.7075e-06	427.1	142.91	122.95	42.812	4.9049e-06	53.519	153.446	166.295	187.456	92.042	218.955	230.344	92.025	96.875	221.881	221.888	96.413	100.661	101.385	106.126	216.513	105.079	-8191	255	
995.073	1	1	0	0	0.099595	0.13031	0.11414	0.026161	0.089048	0.020846	0.274	0.55829	0.10074	0.12035	0.036735	0.072407	0.13785	0.28466	0.16596	0.15304	-0.90833	-1.9521	-1.4958	-1.4833	-2.0312	-1.1625	-1.9188	-1.9042	-1.1812	-1.8687	-1.7854	-1.4375	-2.2104	-1.3833	-1.4542	-1.9583	110.861	375.227	368.227	269.739	135.718	110.035	377.770	360.439	209.386	127.921	396.864	266.620	372.204	93.607	326.926	388.800	0.00058168	0.0005454	0.00013117	1315.9	5.4253e-06	5.5367e-06	1326.7	362.58	5.6656e-06	5.2335e-06	418	139.9	120.15	41.796	4.6558e-06	52.017	0.00052839	0.00041617	0.00011971	1335.2	4.6615e-06	4.8539e-06	1343.5	369.38	5.0097e-06	4.4614e-06	426.44	142.86	122.79	42.87	4.764e-06	53.566	151.663	164.756	169.874	92.343	225.986	234.417	92.194	97.239	226.693	225.989	96.531	101.089	101.587	106.094	221.497	105.260	-8191	255	
995.169	1	1	0	0	0.031229	0.10488	0.064775	0.1306	0.24192	0.12215	0.30529	0.3057	0.18111	0.20382	0.2169	0.13528	0.28629	0.16124	0.29471	0.055057	-0.75417	-1.8083	-1.6562	-1.5646	-2.0292	-1.2875	-1.8646	-2.0938	-1.0521	-1.8542	-1.95	-1.2313	-2.2417	-1.5146	-1.5083	-2.1667	142.045	91.805	301.793	428.705	426.279	193.061	338.261	390.828	86.087	153.595	426.016	394.016	400.287	335.529	196.692	203.244	0.000578	0.00057451	0.00013048	1321.7	5.0323e-06	3.9207e-06	1328.7	362.72	5.2128e-06	4.4604e-06	420.4	140.54	120.62	41.666	6.6169e-06	52.213	0.00050707	0.00042248	0.00011951	1335.7	4.7283e-06	4.5993e-06	1344.1	369.43	4.8817e-06	4.5859e-06	427.01	143.07	122.98	42.756	5.0732e-06	53.591	152.386	159.621	177.429	92.282	224.435	216.709	92.078	96.938	223.402	237.832	96.819	100.766	101.469	105.929	234.426	105.458	-8191	255	
995.265	1	1	0	0	0.13274	0.046158	0.086303	0.34782	0.057103	0.1164	0.30205	0.20829	0.19833	0.072138	0.13898	0.19653	0.115	0.23985	0.41239	0.10326	-0.82708	-1.7375	-1.6646	-1.375	-1.9042	-1.3583	-1.5917	-2.3854	-1.2042	-1.8438	-1.9833	-1.2667	-1.9875	-1.5771	-1.3875	-2.3458	436.727	272.876	333.071	379.853	279.397	227.233	344.506	325.214	402.274	120.626	107.977	386.982	366.735	347.235	410.429	371.158	0.00058388	0.00049593	0.00013527	1322.5	4.7863e-06	4.4433e-06	1326.2	363.8	5.6234e-06	4.6708e-06	420.25	139.87	120.12	41.835	5.2391e-06	52.12	0.00051328	0.00041427	0.00011702	1337.2	4.6568e-06	4.5276e-06	1343.8	369.94	4.8715e-06	4.5621e-06	426.86	142.72	122.53	42.816	4.9306e-06	53.54	150.867	164.365	149.629	92.627	229.346	219.483	93.158	97.763	225.140	236.036	97.105	101.460	102.311	106.852	228.182	106.067	-8191	255	
995.361	1	1	0	0	0.037192	0.086187	0.040948	0.10343	0.28175	0.23764	0.28825	0.094243	0.3036	0.12588	0.1494	0.25466	0.30429	0.31686	0.051585	0.15066	-0.85417	-1.7229	-1.9479	-1.1875	-1.8396	-1.4646	-1.4937	-2.375	-1.225	-1.65	-2.2042	-1.2708	-1.9646	-1.825	-1.2083	-2.1771	202.268	237.944	278.933	417.016	277.869	275.324	145.755	93.849	416.633	293.521	88.092	403.082	79.960	411.140	324.253	298.705	0.00062251	0.00053784	0.0001196	1321.6	3.5845e-06	5.8273e-06	1325.9	365.27	5.6941e-06	4.8188e-06	419.52	139.92	120.57	41.791	5.4004e-06	52.159	0.00054291	0.00041901	0.0001151	1336.9	4.5796e-06	4.6256e-06	1343.1	370.02	5.0041e-06	4.7593e-06	427.35	142.79	123.01	42.825	4.7311e-06	53.519	150.466	165.462	187.230	93.230	226.662	220.527	93.180	97.669	228.012	236.653	97.101	101.489	102.340	106.654	226.339	105.944	-8191	255	
995.457	1	1	0	0	0.15988	0.19222	0.040268	0.064457	0.21617	0.2334	0.44745	0.33803	0.18827	0.22845	0.17362	0.29323	0.12697	0.1475	0.03978	0.2267	-0.93125	-1.5312	-2.0438	-1.1167	-2.0396	-1.9062	-1.4062	-2.1854	-1.3438	-1.3375	-2.2687	-1.3208	-1.85	-1.9583	-1.175	-2.1458	377.357	384.386	278.717	392.756	221.038	149.247	408.335	404.188	167.650	135.837	402.793	415.308	427.869	418.666	172.513	428.088	0.00060957	0.0006205	0.00014689	1322.6	5.5332e-06	5.7358e-06	1325.6	363.26	5.9558e-06	4.6709e-06	420.29	140.1	121.03	41.835	6.1625e-06	52.204	0.0005242	0.00044554	0.00011541	1336.7	4.8039e-06	4.4972e-06	1342.1	369.56	4.8172e-06	4.6664e-06	426.65	142.74	122.93	42.898	4.8709e-06	53.542	150.568	164.223	165.021	92.853	221.105	223.717	92.746	97.380	222.947	245.507	96.952	101.164	101.567	106.281	215.517	105.577	-8191	255	
995.554	1	1	0	0	0.20459	0.21769	0.039542	0.16918	0.17962	0.20406	0.17581	0.097008	0.2226	0.2963	0.28163	0.1718	0.3178	0.02464	0.39508	0.32665	-1.0729	-1.4708	-2.0875	-1.4167	-1.7792	-1.8958	-1.3167	-2.2833	-1.4875	-1.3583	-2.1771	-1.3875	-1.7396	-1.9167	-1.175	-1.9604	245.091	184.150	193.528	359.632	412.685	267.336	374.098	295.413	186.093	241.145	402.623	332.664	187.264	129.459	297.216	335.135	0.00061134	0.00051619	0.00014303	1318.5	3.9802e-06	4.9744e-06	1326.6	363.58	5.2666e-06	4.1033e-06	419.39	140.32	120.6	41.728	5.5693e-06	52.111	0.00053534	0.00043886	0.00011494	1334.9	4.9142e-06	4.6352e-06	1343.9	369.42	4.7625e-06	4.9214e-06	426.69	142.76	122.97	42.892	4.8665e-06	53.591	150.157	179.741	153.059	92.653	235.749	228.820	92.346	97.228	219.601	217.705	96.717	100.958	101.569	106.330	234.565	105.580	-8191	255	
995.672	1	1	0	0	0.14564	0.10456	0.08951	0.1864	0.11204	0.22527	0.29743	0.3053	0.078446	0.20133	0.20606	0.14987	0.17458	0.1862	0.26415	0.31595	-1.0562	-1.425	-2.0625	-1.5833	-1.8813	-1.8125	-1.4396	-2.0667	-1.5875	-1.1833	-2.1146	-1.3188	-1.5167	-2.0938	-0.99583	-1.9854	424.451	160.982	154.798	394.484	150.142	140.822	329.584	90.386	313.989	246.380	144.749	401.250	309.338	392.210	249.740	119.972	0.00060239	0.00050956	0.00012231	1318.9	4.7626e-06	4.6349e-06	1324.6	363.66	6.1548e-06	6.0299e-06	419.74	139.7	120.05	41.661	3.9311e-06	52.084	0.00053168	0.00043175	0.00011494	1335	4.5985e-06	4.6053e-06	1341.8	369.51	4.8121e-06	4.6169e-06	427.1	142.82	122.64	42.761	4.872e-06	53.526	151.566	172.501	162.489	92.558	211.727	220.484	92.776	97.529	218.295	231.878	97.180	100.828	102.149	105.747	232.910	105.406	-8191	255	
995.769	1	1	0	0	0.19447	0.24071	0.041947	0.18358	0.14709	0.11683	0.27178	0.34711	0.11973	0.15877	0.11956	0.040158	0.080948	0.43996	0.14029	0.1092	-1.25	-1.2604	-1.9875	-1.3479	-1.2979	-2.2417	-1.3396	-1.8292	-1.7188	-1.1313	-2.0375	-1.5438	-1.4396	-2.1083	-1.2146	-1.8229	394.109	257.875	340.390	405.779	240.322	216.888	358.826	79.808	242.105	192.314	82.646	407.602	305.301	380.038	221.269	303.320	0.00058955	0.00053749	0.0001395	1315	4.9261e-06	5.309e-06	1325.9	363.38	6.1437e-06	5.4207e-06	419.76	140.12	120.32	41.797	4.5337e-06	51.984	0.00051688	0.00043064	0.00012146	1332.2	4.8848e-06	4.5964e-06	1341.2	369.23	4.6611e-06	4.9089e-06	427.04	142.69	122.74	42.813	4.6609e-06	53.47	152.537	168.271	163.586	92.862	235.077	223.177	92.836	97.524	224.311	228.556	97.036	101.533	101.705	106.589	219.542	105.846	-8191	255	
995.865	1	1	0	0	0.14941	0.34545	0.38295	0.25447	0.25035	0.18955	0.26627	0.40411	0.090811	0.17489	0.13238	0.16638	0.22016	0.34288	0.26006	0.14984	-1.3875	-1.0917	-1.95	-1.8333	-1.2667	-2.1146	-1.4833	-1.8375	-1.7229	-1.0875	-2.1	-1.6604	-1.3833	-2.3104	-1.3813	-1.8521	329.946	306.252	419.436	380.037	304.351	409.449	410.781	406.369	343.686	89.622	227.856	153.413	269.461	388.839	226.938	330.052	0.00061875	0.00035043	0.00012613	1320.1	4.9358e-06	6.1895e-06	1326.6	364.5	4.7169e-06	7.1152e-06	420.38	140.36	120.08	41.929	3.5149e-06	52.056	0.00052593	0.00041401	0.00012024	1334	4.8417e-06	4.4745e-06	1340.2	369.94	4.7005e-06	4.8094e-06	427.01	143.01	122.56	42.872	4.8528e-06	53.458	148.985	171.906	170.852	92.414	234.107	215.657	92.589	97.474	229.756	230.866	96.746	101.450	102.313	106.772	239.453	105.584	-8191	255	
995.961	1	1	0	0	0.14933	0.052322	0.27101	0.28624	0.2662	0.20257	0.43656	0.19479	0.13602	0.25565	0.23474	0.38992	0.09028	0.10621	0.2029	0.065802	-1.7604	-0.99375	-1.9292	-2.0187	-1.1333	-2.3083	-1.6187	-1.6479	-2.0146	-1.1625	-1.7854	-1.6708	-1.2229	-2.2083	-1.4292	-1.6542	344.099	171.096	143.744	411.024	366.434	204.468	383.373	364.952	149.592	334.500	380.632	88.803	338.795	430.191	102.307	355.454	0.00059368	0.00060021	0.00011511	1318	4.6142e-06	4.8198e-06	1323.3	363.78	6.048e-06	5.2237e-06	420.93	140.32	120.54	41.722	5.788e-06	52.294	0.00050455	0.00041891	0.00011589	1332	4.8937e-06	4.2964e-06	1340.8	369.63	4.6713e-06	4.7754e-06	427.82	143.01	122.85	42.856	4.6867e-06	53.556	152.305	172.827	177.071	92.692	226.068	223.144	92.743	97.591	219.042	222.557	96.905	101.333	101.779	106.664	230.524	105.893	-8191	255	
996.057	1	1	0	0	0.15959	0.23636	0.050494	0.39882	0.2427	0.14874	0.22827	0.23288	0.13176	0.22244	0.14259	0.066235	0.28217	0.15712	0.16487	0.11185	-1.7104	-1.0729	-1.7042	-1.9062	-1.1646	-1.8375	-1.5521	-1.4292	-2.0438	-1.1688	-2.0833	-1.9646	-1.2667	-2.2208	-1.4333	-1.3708	396.666	339.102	172.240	394.999	151.509	287.202	400.052	428.297	270.934	181.339	336.877	276.257	91.781	107.660	269.368	328.248	0.00060037	0.00058766	0.0001302	1317.9	3.3573e-06	5.1752e-06	1323.4	362.9	5.1674e-06	4.4077e-06	417.57	140.08	120.32	41.9	4.9778e-06	52.252	0.00051853	0.00042791	0.00011556	1333.2	4.8275e-06	4.6191e-06	1339.9	369.17	4.6503e-06	4.8994e-06	426.75	142.7	122.86	42.887	5.0222e-06	53.587	150.265	164.845	172.724	92.347	222.756	223.739	92.035	96.939	215.645	225.965	96.900	101.045	102.133	106.526	242.370	105.785	-8191	255	
996.153	1	1	0	0	0.1013	0.14892	0.12485	0.2376	0.2742	0.19592	0.10785	0.11627	0.10557	0.23428	0.094429	0.040771	0.1959	0.01492	0.32274	0.37998	-1.7875	-1.1146	-1.6542	-1.8958	-1.1063	-1.9937	-1.825	-1.4354	-2.0375	-1.3646	-1.75	-2.0104	-0.98333	-2.0229	-1.5854	-1.3438	211.664	248.759	431.647	97.158	222.410	240.689	376.716	208.836	428.458	97.275	254.238	399.021	318.885	286.071	424.513	388.000	0.00061157	0.00048954	0.00014884	1316.4	4.1409e-06	3.4096e-06	1320	362.38	5.8973e-06	5.0162e-06	421.42	139.88	120.76	41.707	4.9816e-06	51.889	0.00051963	0.00044138	0.00011921	1332	4.8081e-06	4.6633e-06	1338.9	369.59	4.8167e-06	4.7236e-06	427.51	142.7	122.93	42.844	4.6774e-06	53.575	148.779	180.781	169.053	92.433	233.431	215.603	92.426	97.273	210.400	233.549	96.842	100.403	101.206	105.288	224.793	104.753	-8191	255	
996.274	1	1	0	0	0.11304	0.17007	0.086855	0.37972	0.13221	0.23022	0.50019	0.068713	0.2794	0.4188	0.23183	0.21341	0.25671	0.20105	0.054807	0.11422	-1.5167	-1.3479	-1.475	-2.1875	-1.1604	-1.7875	-2.0312	-1.1667	-1.9417	-1.2958	-1.3687	-2.0625	-1.1896	-1.8896	-1.8062	-1.4333	214.665	302.142	83.625	330.779	349.353	210.872	353.213	356.263	246.160	228.363	403.423	376.438	433.384	359.152	320.692	420.095	0.00058648	0.00044172	0.00010328	1314.2	5.1543e-06	4.1007e-06	1318.2	362.4	4.8923e-06	5.7541e-06	420.05	139.4	120.59	41.949	4.3942e-06	52.186	0.0005206	0.00042443	0.00012242	1333.8	5.0645e-06	4.7338e-06	1340.6	369.25	4.8152e-06	4.8034e-06	427.67	142.7	122.95	42.901	4.6472e-06	53.55	150.616	159.684	165.239	91.510	225.224	212.469	91.396	96.288	222.120	215.699	95.866	99.892	100.887	105.167	236.966	104.381	-8191	255	
996.370	1	1	0	0	0.14826	0.13493	0.21531	0.2393	0.20212	0.10144	0.30251	0.29621	0.31028	0.26619	0.1824	0.1806	0.22845	0.10985	0.21641	0.39957	-1.5542	-1.4312	-1.1667	-2.1458	-1.125	-1.7104	-2.0333	-1.2083	-1.9104	-1.4208	-1.3625	-2.0167	-1.4042	-1.6771	-2.1833	-1.1958	181.206	228.680	216.607	355.796	114.133	88.876	380.172	409.991	131.098	288.815	325.756	266.038	411.309	366.589	116.268	340.040	0.00057117	0.00040185	0.00014962	1314.3	4.4541e-06	4.4808e-06	1324.1	362.13	5.3658e-06	4.2889e-06	420.42	139.69	120.69	41.694	5.816e-06	52.164	0.00050637	0.00043149	0.00012376	1333.9	5.1128e-06	4.7768e-06	1343.9	369.25	4.8633e-06	4.7432e-06	427.38	142.77	123.02	42.875	4.9065e-06	53.551	149.617	158.620	159.025	91.463	232.518	211.805	91.291	96.069	230.187	231.316	95.424	99.784	100.750	105.023	229.867	104.526	-8191	255	
996.466	1	1	0	0	0.11866	0.13226	0.31384	0.06447	0.039969	0.27145	0.22321	0.42213	0.11404	0.17856	0.14462	0.30645	0.043327	0.18532	0.2902	0.18023	-1.4896	-1.5792	-1.1688	-2.35	-1.2687	-1.4979	-2.25	-1.2271	-2.0062	-1.5187	-1.3438	-2.0125	-1.525	-1.4417	-1.8896	-1.2771	319.126	392.793	263.126	82.275	159.471	371.552	383.806	383.587	170.740	95.513	352.460	392.685	138.055	328.194	325.233	187.875	0.0005685	0.00043888	0.00014922	1317.9	5.3299e-06	4.7697e-06	1323.6	363.2	5.4663e-06	5.4722e-06	418.8	140.82	120.54	41.751	5.3611e-06	52.263	0.00049917	0.00042201	0.00012271	1335.7	4.9631e-06	4.6979e-06	1344.1	369.96	4.8264e-06	4.8124e-06	427.43	143.21	123.21	42.877	4.8846e-06	53.645	155.013	155.402	177.520	91.532	225.694	231.341	91.322	95.875	215.611	220.796	95.610	99.954	100.597	105.278	239.123	104.264	-8191	255	
996.562	1	1	0	0	0.079002	0.16012	0.1706	0.20728	0.053412	0.28659	0.13828	0.16959	0.2445	0.077794	0.45102	0.16438	0.056834	0.10098	0.28919	0.2302	-1.425	-1.8083	-1.2646	-2.1375	-1.5604	-1.3937	-2.1167	-1.3146	-1.6458	-1.6875	-1.2375	-2.0687	-1.5333	-1.4062	-2.0729	-1.2833	103.727	206.048	200.935	433.262	90.721	276.238	361.989	119.432	261.544	318.677	356.778	388.453	349.512	260.894	423.753	94.851	0.0005852	0.00050759	0.00015737	1318.3	4.9006e-06	4.9608e-06	1324.8	362.64	5.7302e-06	6.5489e-06	418.91	140.51	120.01	41.672	5.5945e-06	51.749	0.00051311	0.00040948	0.00011936	1336.6	4.7524e-06	4.8383e-06	1343.5	369.4	4.9165e-06	4.8511e-06	426.85	143.15	123.02	42.832	4.7859e-06	53.546	151.821	152.767	169.226	91.426	216.739	223.105	91.287	96.133	219.719	221.290	95.534	100.004	100.455	105.149	232.672	104.345	-8191	255	
996.657	1	1	0	0	0.12486	0.15877	0.067999	0.27626	0.0094511	0.081784	0.38972	0.33351	0.11573	0.16662	0.17029	0.17155	0.26655	0.23908	0.10748	0.20802	-1.3396	-1.7167	-0.88333	-1.9458	-1.5125	-1.2146	-2.1104	-1.4625	-1.6042	-1.9708	-1.3	-1.8354	-1.5604	-1.2896	-1.9458	-1.3438	315.385	271.657	394.292	351.151	79.505	191.019	361.387	350.874	423.785	409.847	385.310	418.494	174.273	385.961	400.823	410.086	0.00058201	0.00055276	0.00017332	1318.9	5.2677e-06	4.5583e-06	1326.1	362.07	4.0336e-06	5.0013e-06	419.91	139.72	121.14	41.645	5.7005e-06	52.125	0.00051606	0.00042475	0.00012369	1336.3	4.9442e-06	4.7206e-06	1344.8	369.66	4.938e-06	4.6652e-06	426.97	143.03	123.15	42.835	4.7223e-06	53.596	150.162	169.957	177.724	91.419	220.589	225.436	91.263	95.988	222.627	242.914	95.486	99.774	100.528	105.020	223.858	104.013	-8191	255	
996.753	1	1	0	0	0.045167	0.13685	0.15071	0.27229	0.14626	0.25942	0.3892	0.18016	0.081979	0.26409	0.16939	0.12086	0.14067	0.12684	0.14703	0.080593	-1.15	-2.0458	-1.2917	-2.0062	-1.6688	-1.2667	-2.2521	-1.4188	-1.5125	-1.8146	-1.2646	-1.8333	-1.925	-1.1917	-1.9396	-1.3208	153.752	261.766	82.325	389.300	266.761	385.223	394.551	331.217	394.523	95.694	238.646	396.628	376.143	341.150	287.528	136.952	0.00060013	0.00041518	0.00014452	1320.8	4.5201e-06	5.0191e-06	1327.1	362.35	5.9714e-06	4.8853e-06	419.52	140.3	119.75	41.591	4.6294e-06	52.197	0.00051751	0.00042512	0.00012512	1337.4	4.8622e-06	4.925e-06	1345.6	369.75	4.7998e-06	4.4697e-06	427.59	143.11	122.95	42.842	4.667e-06	53.561	150.362	159.339	169.101	91.627	221.826	229.924	91.311	95.865	233.644	213.396	95.472	99.787	100.392	105.141	233.631	103.805	-8191	255	
996.849	1	1	0	0	0.030239	0.15544	0.31497	0.18414	0.13547	0.10955	0.13291	0.15946	0.045277	0.31895	0.22598	0.20993	0.13819	0.40684	0.085466	0.34183	-1.0063	-1.9688	-1.1375	-1.9062	-1.6437	-1.1417	-2.2125	-1.6604	-1.3667	-2.0792	-1.35	-1.8125	-1.7687	-1.2354	-1.9562	-1.65	338.307	402.139	283.685	437.626	353.183	282.884	310.509	387.695	280.947	380.281	118.262	388.138	302.653	384.297	307.844	387.737	0.00055305	0.00046132	0.00013994	1320.7	5.552e-06	5.0647e-06	1321.9	362.48	5.8771e-06	4.0657e-06	419.23	140.21	119.57	41.744	5.0891e-06	51.984	0.0005278	0.00042875	0.00011904	1338.6	4.6337e-06	4.7451e-06	1344.2	369.48	4.9309e-06	4.5359e-06	427.24	143.11	122.74	42.885	4.8879e-06	53.537	149.106	167.992	175.718	91.458	226.316	234.326	91.235	95.844	225.341	213.257	95.266	99.679	100.562	105.148	223.183	104.220	-8191	255	
996.970	1	1	0	0	0.11591	0.070137	0.22468	0.18783	0.10251	0.24929	0.2189	0.14514	0.071476	0.027164	0.085446	0.1715	0.36039	0.22274	0.015371	0.22251	-0.97292	-1.975	-1.1896	-1.6646	-1.7979	-0.95833	-2.1333	-1.7188	-1.2458	-1.9542	-1.5396	-1.6042	-1.9042	-1.2542	-1.8833	-1.8042	79.622	230.217	180.383	316.569	174.174	282.863	393.426	291.659	282.129	130.367	174.692	261.220	96.244	412.475	150.410	387.487	0.00062193	0.00039934	0.00011788	1317.5	5.9011e-06	4.0771e-06	1325.9	363.04	4.2831e-06	5.8712e-06	418.14	139.8	120	41.675	5.4198e-06	52.296	0.00053069	0.00041143	0.00011529	1336.8	4.733e-06	4.8981e-06	1344.2	369.79	4.8715e-06	4.5663e-06	426.55	142.95	123	42.837	4.8144e-06	53.53	151.118	170.945	171.993	91.374	215.596	230.032	91.383	95.816	226.384	242.283	95.457	99.929	100.374	105.013	235.894	104.215	-8191	255	
997.066	1	1	0	0	0.22805	0.22647	0.093509	0.28921	0.30512	0.085937	0.21388	0.26777	0.096036	0.10853	0.23926	0.26335	0.19138	0.14761	0.099467	0.25341	-0.77292	-2.0292	-1.1625	-1.5938	-1.9208	-1.0729	-2.0521	-1.95	-1.1229	-1.9813	-1.3958	-1.5854	-2.0687	-1.3333	-1.5021	-1.95	386.194	144.184	139.927	334.217	287.079	181.711	118.838	389.947	434.751	378.790	339.449	409.261	294.207	380.857	350.473	288.709	0.00057449	0.00059809	0.00017707	1317.9	4.4067e-06	4.5657e-06	1321.2	364	5.2792e-06	4.8993e-06	417.72	140.1	119.83	41.581	5.8302e-06	52.054	0.00052142	0.00041422	0.00012677	1336.2	4.6894e-06	4.8772e-06	1342.8	369.89	4.956e-06	4.5395e-06	426.07	142.98	122.91	42.833	4.8336e-06	53.518	150.676	160.881	175.088	91.527	230.564	220.505	91.222	95.984	222.034	213.474	95.347	99.436	100.589	105.015	226.966	104.108	-8191	255	
997.137	1	1	0	0	0.19181	0.34905	0.10612	0.31706	0.282	0.14945	0.32416	0.19947	0.18173	0.091719	0.33022	0.19286	0.068224	0.52518	0.14381	0.36895	-0.69167	-1.8625	-1.375	-1.375	-2.1854	-1.0708	-1.7625	-1.8792	-1.1063	-2.1292	-1.6042	-1.3833	-2.0854	-1.4083	-1.4917	-1.9667	295.721	350.773	420.046	144.313	175.411	132.391	415.614	96.656	82.976	109.698	394.405	416.315	299.313	358.543	408.023	395.280	0.00056498	0.00052822	0.0001093	1317.7	5.3016e-06	4.8543e-06	1320.8	364.36	4.3248e-06	3.7412e-06	418.88	140.23	120.4	41.555	6.5053e-06	52.101	0.00053145	0.00039501	0.00012345	1335.2	4.7713e-06	4.8025e-06	1343.4	369.93	4.9002e-06	4.5597e-06	427.13	142.98	123.11	42.789	4.662e-06	53.645	149.153	172.977	196.600	91.214	225.279	229.578	91.440	96.070	232.235	237.507	95.358	99.969	100.464	104.983	230.083	104.116	-8191	255	
997.234	1	1	0	0	0.22341	0.14039	0.10742	0.24572	0.30571	0.23656	0.20918	0.11386	0.28036	0.072565	0.26554	0.4271	0.067138	0.11267	0.13084	0.21294	-0.73333	-1.6437	-1.675	-1.3563	-1.8062	-1.2854	-1.7667	-2.1479	-1.1187	-1.9833	-1.8604	-1.4521	-2.1063	-1.4062	-1.375	-2.0479	320.960	222.230	161.403	80.346	292.964	81.985	384.179	107.594	382.534	116.889	396.762	383.659	90.754	245.292	411.817	375.929	0.0005764	0.0004309	0.00012633	1321.1	5.3207e-06	4.4577e-06	1326.5	361.67	6.5802e-06	5.5128e-06	420.41	140.57	120.33	41.639	4.8639e-06	52.212	0.00052201	0.00041943	0.00011851	1335.6	4.7435e-06	4.6908e-06	1344.4	369.25	5.0486e-06	4.6545e-06	427.64	142.97	122.9	42.825	5.0107e-06	53.529	150.507	164.023	161.033	91.377	229.746	225.890	91.248	95.858	227.585	218.062	95.431	99.926	100.896	105.206	219.091	103.971	-8191	255	
997.354	1	1	0	0	0.065554	0.2604	0.36083	0.13791	0.31184	0.23328	0.17236	0.19317	0.20219	0.22588	0.33896	0.23866	0.17782	0.37867	0.24012	0.20511	-0.75625	-1.6208	-1.7521	-1.55	-1.8042	-1.425	-1.5583	-1.9208	-1.05	-1.6333	-2.1688	-1.2667	-2.0312	-1.5833	-1.1333	-2.0312	152.990	186.612	285.008	400.535	111.936	384.035	236.429	395.798	359.935	411.072	373.202	82.557	81.752	396.083	369.462	398.841	0.00057194	0.00056839	0.00018566	1318.9	5.5988e-06	5.6418e-06	1322.8	363.19	5.4456e-06	4.504e-06	419.44	140.26	120.71	41.702	5.1179e-06	51.937	0.00052391	0.00042022	0.00012029	1336.1	4.6841e-06	4.5742e-06	1343	370.08	5.087e-06	4.7474e-06	427.36	142.91	123.19	42.9	4.9822e-06	53.468	150.552	156.399	159.357	91.318	222.240	243.432	91.261	95.831	221.376	213.782	95.594	99.941	100.548	105.314	228.851	103.972	-8191	255	
997.450	1	1	0	0	0.18842	0.13918	0.15536	0.24612	0.16935	0.27247	0.50343	0.19526	0.11048	0.16984	0.098971	0.22775	0.36405	0.046048	0.24221	0.21758	-0.79167	-1.55	-1.9875	-1.1917	-1.9583	-1.4646	-1.5146	-2.2958	-1.125	-1.3792	-2.2687	-1.2729	-1.8875	-1.675	-1.2208	-2.0708	379.481	383.242	125.026	194.203	91.900	306.725	361.905	431.206	338.589	136.837	94.802	411.252	395.814	409.088	198.810	388.741	0.00059077	0.00052004	0.00013832	1320.6	4.6271e-06	5.5177e-06	1326.8	363.79	5.3369e-06	4.209e-06	419.16	139.59	120.25	41.616	5.503e-06	52.292	0.00051821	0.00042512	0.00011494	1338.1	4.7992e-06	4.5545e-06	1343.9	370.01	5.0563e-06	4.6586e-06	427.86	142.8	123.08	42.881	5.0233e-06	53.644	153.474	179.073	172.524	91.327	221.091	217.644	91.258	95.783	217.596	240.392	95.147	99.743	100.488	105.041	228.667	104.395	-8191	255	
997.546	1	1	0	0	0.11841	0.092297	0.12708	0.26659	0.16257	0.20107	0.3791	0.18471	0.17095	0.085694	0.38469	0.077419	0.23212	0.11198	0.128	0.2102	-0.85	-1.2604	-1.6646	-1.3146	-1.8875	-1.5729	-1.4458	-2.2292	-1.3292	-1.35	-2.125	-1.1917	-1.8333	-1.8438	-1.1583	-2.1979	318.853	133.844	303.601	372.563	172.017	311.924	401.472	80.200	136.216	120.358	413.903	323.901	339.218	406.078	95.511	94.760	0.00059915	0.00055373	0.00011894	1318.3	4.4918e-06	5.9679e-06	1323.8	363.26	5.0946e-06	5.9461e-06	419.67	139.35	120.25	41.873	4.7645e-06	52.035	0.00052964	0.00043675	0.00011496	1335.2	4.7955e-06	4.7535e-06	1345.2	369.58	5.1085e-06	4.8678e-06	427.36	142.67	122.96	42.935	5.0666e-06	53.546	153.228	165.052	175.028	91.208	227.719	221.861	91.076	95.986	220.867	212.262	95.291	99.629	100.318	104.785	221.704	104.336	-8191	255	
#DATA ENDS
