BOXY.EXE: ISS Imagent and Oximeter Data Acquisition Program Version 0.80
Ascii Record File

#ACQ INFORMATION
2  Detector Channels 
16  External MUX Channels 
1  Auxiliary Channels 
5000  Waveform (CCF) Frequency (Hz)
1  Waveforms Skipped 
30  Waveforms Averaged 
1  Cycles Averaged 
16  Acquisitions per Waveform 
10.0806  Updata Rate (Hz) 

#FILE INFORMATION
TRUE -- External MUX Channel results are PARSED.
FALSE -- AC DC and Phase are NOT grouped.
TRUE -- Companion Program Settings File CREATED.
FALSE -- AC data not excluded
FALSE -- DC data not excluded
FALSE -- Phase data not excluded
FALSE -- Auxillary Chn. data not excluded
Tab delimiters

#CALIBRATION STATE
TRUE -- Waveform Calibration Values APPLIED.


#AUX CALIBRATION VALUES
Val Type	aux-1	

Term	1.0000e+00	
Factor	0.0000e+00	


#WF CALIBRATION VALUES
A = Detector Channel
Val Type	A-AC1	A-AC2	A-AC3	A-AC4	A-AC5	A-AC6	A-AC7	A-AC8	A-AC9	A-AC10	A-AC11	A-AC12	A-AC13	A-AC14	A-AC15	A-AC16	A-DC1	A-DC2	A-DC3	A-DC4	A-DC5	A-DC6	A-DC7	A-DC8	A-DC9	A-DC10	A-DC11	A-DC12	A-DC13	A-DC14	A-DC15	A-DC16	A-Ph1	A-Ph2	A-Ph3	A-Ph4	A-Ph5	A-Ph6	A-Ph7	A-Ph8	A-Ph9	A-Ph10	A-Ph11	A-Ph12	A-Ph13	A-Ph14	A-Ph15	A-Ph16	

Term	0.00000e+00	0.00000e+00	0.00000e+00	0.00000e+00	0.00000e+00	0.00000e+00	0.00000e+00	0.00000e+00	0.00000e+00	0.00000e+00	0.00000e+00	0.00000e+00	0.00000e+00	0.00000e+00	0.00000e+00	0.00000e+00	0.00000e+00	0.00000e+00	0.00000e+00	0.00000e+00	0.00000e+00	0.00000e+00	0.00000e+00	0.00000e+00	0.00000e+00	0.00000e+00	0.00000e+00	0.00000e+00	0.00000e+00	0.00000e+00	0.00000e+00	0.00000e+00	0.00000e+00	0.00000e+00	0.00000e+00	0.00000e+00	0.00000e+00	0.00000e+00	0.00000e+00	0.00000e+00	0.00000e+00	0.00000e+00	0.00000e+00	0.00000e+00	0.00000e+00	0.00000e+00	0.00000e+00	0.00000e+00	
Factor	1.00000e+00	1.00000e+00	1.00000e+00	1.00000e+00	1.00000e+00	1.00000e+00	1.00000e+00	1.00000e+00	1.00000e+00	1.00000e+00	1.00000e+00	1.00000e+00	1.00000e+00	1.00000e+00	1.00000e+00	1.00000e+00	1.00000e+00	1.00000e+00	1.00000e+00	1.00000e+00	1.00000e+00	1.00000e+00	1.00000e+00	1.00000e+00	1.00000e+00	1.00000e+00	1.00000e+00	1.00000e+00	1.00000e+00	1.00000e+00	1.00000e+00	1.00000e+00	X	X	X	X	X	X	X	X	X	X	X	X	X	X	X	X	

B = Detector Channel
Val Type	B-AC1	B-AC2	B-AC3	B-AC4	B-AC5	B-AC6	B-AC7	B-AC8	B-AC9	B-AC10	B-AC11	B-AC12	B-AC13	B-AC14	B-AC15	B-AC16	B-DC1	B-DC2	B-DC3	B-DC4	B-DC5	B-DC6	B-DC7	B-DC8	B-DC9	B-DC10	B-DC11	B-DC12	B-DC13	B-DC14	B-DC15	B-DC16	B-Ph1	B-Ph2	B-Ph3	B-Ph4	B-Ph5	B-Ph6	B-Ph7	B-Ph8	B-Ph9	B-Ph10	B-Ph11	B-Ph12	B-Ph13	B-Ph14	B-Ph15	B-Ph16	

Term	0.00000e+00	0.00000e+00	0.00000e+00	0.00000e+00	0.00000e+00	0.00000e+00	0.00000e+00	0.00000e+00	0.00000e+00	0.00000e+00	0.00000e+00	0.00000e+00	0.00000e+00	0.00000e+00	0.00000e+00	0.00000e+00	0.00000e+00	0.00000e+00	0.00000e+00	0.00000e+00	0.00000e+00	0.00000e+00	0.00000e+00	0.00000e+00	0.00000e+00	0.00000e+00	0.00000e+00	0.00000e+00	0.00000e+00	0.00000e+00	0.00000e+00	0.00000e+00	-1.45959e+02	-1.30980e+02	-1.25157e+02	-1.82080e+02	-7.17741e+01	-6.95097e+01	-1.55766e+02	-1.62015e+02	-7.74156e+01	-6.88670e+01	-1.70942e+02	-1.70432e+02	-1.82993e+02	-1.76724e+02	-6.90137e+01	-1.49404e+02	
Factor	2.03209e-05	1.41488e-04	3.74525e-05	1.74853e-01	1.18439e-06	1.57894e-06	1.53863e-01	4.53265e-02	1.13898e-06	1.62005e-06	7.65132e-02	2.71161e-02	3.40376e-02	8.44743e-03	1.33393e-06	1.21964e-02	1.36066e-05	2.52670e-05	7.14622e-06	9.33528e-02	2.52174e-07	2.86787e-07	7.71164e-02	2.43145e-02	2.45725e-07	2.86025e-07	3.96700e-02	1.41238e-02	1.84396e-02	4.57171e-03	2.63143e-07	6.37821e-03	X	X	X	X	X	X	X	X	X	X	X	X	X	X	X	X	



#DISTANCE SETTINGS
A = Detector Channel
A-1	A-2	A-3	A-4	A-5	A-6	A-7	A-8	A-9	A-10	A-11	A-12	A-13	A-14	A-15	A-16	

2.5000e+00	3.0000e+00	2.5000e+00	3.0000e+00	2.0000e+00	3.0000e+00	1.5000e+00	3.0000e+00	3.0000e+00	3.0000e+00	3.0000e+00	3.0000e+00	3.0000e+00	3.0000e+00	1.5000e+00	3.0000e+00	

B = Detector Channel
B-1	B-2	B-3	B-4	B-5	B-6	B-7	B-8	B-9	B-10	B-11	B-12	B-13	B-14	B-15	B-16	

1.0000e+01	1.0000e+01	1.0000e+01	1.4400e+00	1.0000e+01	1.0000e+01	1.5100e+00	1.9400e+00	1.0000e+01	1.0000e+01	1.9900e+00	2.4900e+00	2.4100e+00	2.9000e+00	1.0000e+01	2.9800e+00	




#DATA BEGINS
time	group	step	mark	flag	A-AC1	A-AC2	A-AC3	A-AC4	A-AC5	A-AC6	A-AC7	A-AC8	A-AC9	A-AC10	A-AC11	A-AC12	A-AC13	A-AC14	A-AC15	A-AC16	A-DC1	A-DC2	A-DC3	A-DC4	A-DC5	A-DC6	A-DC7	A-DC8	A-DC9	A-DC10	A-DC11	A-DC12	A-DC13	A-DC14	A-DC15	A-DC16	A-Ph1	A-Ph2	A-Ph3	A-Ph4	A-Ph5	A-Ph6	A-Ph7	A-Ph8	A-Ph9	A-Ph10	A-Ph11	A-Ph12	A-Ph13	A-Ph14	A-Ph15	A-Ph16	B-AC1	B-AC2	B-AC3	B-AC4	B-AC5	B-AC6	B-AC7	B-AC8	B-AC9	B-AC10	B-AC11	B-AC12	B-AC13	B-AC14	B-AC15	B-AC16	B-DC1	B-DC2	B-DC3	B-DC4	B-DC5	B-DC6	B-DC7	B-DC8	B-DC9	B-DC10	B-DC11	B-DC12	B-DC13	B-DC14	B-DC15	B-DC16	B-Ph1	B-Ph2	B-Ph3	B-Ph4	B-Ph5	B-Ph6	B-Ph7	B-Ph8	B-Ph9	B-Ph10	B-Ph11	B-Ph12	B-Ph13	B-Ph14	B-Ph15	B-Ph16	aux-1	digaux	

947.344	1	1	0	768	0.11728	0.15031	0.17507	0.21777	0.36946	0.11965	0.085882	0.24893	0.063886	0.18521	0.27942	0.12238	0.092277	0.28548	0.14851	0.16887	-1.2042	-1.325	-2.0396	-1.5708	-1.5208	-2.1125	-1.4708	-2.2875	-1.9896	-1.3062	-2.3729	-1.675	-1.7167	-2.1771	-1.2458	-2.1521	117.523	419.870	213.033	344.760	189.958	287.793	381.280	316.421	367.961	233.496	401.511	383.812	216.219	424.200	314.018	86.270	0.00056993	0.00044844	0.00013709	1354.8	4.3239e-06	3.7073e-06	1357.2	369.42	5.3496e-06	4.9433e-06	420.36	140.59	122.17	42.045	5.1155e-06	51.886	0.000603	0.00057572	0.00015494	1377.7	6.3574e-06	6.4658e-06	1378.9	375.58	6.3269e-06	6.5416e-06	428.38	143.64	124.96	43.135	6.691e-06	53.326	152.159	161.780	176.709	91.189	228.028	227.059	91.358	95.737	223.740	240.794	95.460	99.673	100.208	104.305	227.620	103.716	-8191	255	
947.438	1	1	0	0	0.075129	0.026275	0.22391	0.11177	0.09805	0.1186	0.23498	0.35525	0.056368	0.20709	0.0038333	0.059415	0.32028	0.32935	0.098419	0.11335	-1.4937	-1.0875	-2.0229	-1.5438	-1.625	-2.1375	-1.3458	-2.1604	-1.7313	-1.25	-2.5083	-1.6896	-1.6146	-2.2896	-1.3521	-1.9958	303.308	106.003	373.962	377.921	222.681	294.254	402.411	398.795	220.721	111.789	215.987	391.292	413.266	101.769	293.469	237.380	0.00058354	0.0004709	0.00012907	1356.7	3.908e-06	5.425e-06	1361.7	369.7	5.5502e-06	3.6077e-06	421.04	140.43	122.85	41.881	6.7876e-06	51.649	0.00059937	0.00057998	0.00015941	1379.4	6.3038e-06	6.2621e-06	1380.6	375.86	6.2726e-06	6.3498e-06	429.21	143.46	125.14	43.104	6.5457e-06	53.307	148.493	168.908	166.933	91.148	229.741	233.043	91.201	95.962	218.390	222.442	95.486	99.469	99.964	104.711	230.033	104.180	-8191	255	
947.536	1	1	0	0	0.030746	0.22588	0.30467	0.41281	0.15422	0.25748	0.12889	0.27567	0.10613	0.14761	0.19922	0.072568	0.19259	0.11231	0.099644	0.11776	-1.5958	-1.3042	-2.0854	-1.8917	-1.3958	-2.4688	-1.5	-1.8417	-1.9583	-1.3854	-2.1	-1.9354	-1.6167	-2.3146	-1.3458	-1.6708	403.510	163.799	377.688	407.505	172.419	121.437	395.165	381.532	326.564	408.035	398.067	132.416	437.606	110.381	118.415	384.594	0.0005752	0.00061403	0.00010098	1362.3	3.8109e-06	6.1774e-06	1361.9	370.62	5.5476e-06	5.3291e-06	421.41	140.89	122.65	42.14	5.1385e-06	51.988	0.00058477	0.00059014	0.000161	1382	6.4042e-06	6.0052e-06	1383.5	376.47	6.2706e-06	6.6501e-06	429.74	143.87	125.29	43.273	6.5314e-06	53.475	151.858	178.027	156.111	91.237	229.968	214.861	91.328	96.137	225.774	236.479	95.226	99.617	100.298	104.761	226.858	104.239	-8191	255	
947.632	1	1	0	0	0.2221	0.10633	0.18052	0.24783	0.11559	0.13488	0.12767	0.3743	0.095013	0.11866	0.25652	0.11617	0.2184	0.32031	0.13063	0.34461	-1.6042	-1.3417	-1.9562	-1.9771	-1.2667	-2.1792	-1.6208	-1.8188	-2.2479	-1.2125	-2.3083	-2.0146	-1.425	-2.1667	-1.3563	-1.8438	80.272	180.187	126.527	113.973	323.809	375.861	371.890	410.396	160.592	147.866	411.682	372.784	365.963	382.299	181.019	427.405	0.0005774	0.00063856	0.00012075	1364.9	6.6111e-06	4.4503e-06	1364.5	370.84	4.9614e-06	4.3785e-06	420.2	140.99	123.08	42.09	5.0867e-06	51.778	0.00058166	0.00060514	0.00015769	1382.8	6.514e-06	6.2024e-06	1382.6	377.04	6.4395e-06	6.482e-06	429.82	143.85	125.49	43.225	6.5715e-06	53.315	150.225	167.717	188.517	91.178	218.336	224.981	91.069	95.933	208.003	228.702	95.364	99.620	100.120	104.880	218.175	104.310	-8191	255	
947.727	1	1	0	0	0.04837	0.2004	0.1458	0.29436	0.15018	0.086829	0.32958	0.23407	0.15847	0.18925	0.041697	0.12314	0.23802	0.38218	0.2585	0.075934	-1.6375	-1.0438	-2.1229	-2.1	-1.2979	-2.2104	-1.5771	-1.6625	-2.075	-1.2417	-2.025	-1.9792	-1.4125	-2.0917	-1.4125	-1.7	270.440	252.778	419.552	78.347	312.184	188.314	376.417	418.010	296.665	120.617	82.328	145.069	317.113	356.479	332.218	333.550	0.0006011	0.0005787	0.00012909	1364.5	5.6112e-06	5.0818e-06	1360.8	369.27	4.9519e-06	6.44e-06	420.97	141.53	122.66	41.93	4.4309e-06	51.825	0.00060289	0.00058698	0.00016837	1381.3	6.5239e-06	6.4419e-06	1382.2	376.07	6.1892e-06	6.5208e-06	429.27	143.65	125.03	43.162	6.3182e-06	53.379	150.569	164.574	158.404	91.298	220.364	205.396	91.081	95.908	228.185	231.249	95.529	99.599	100.032	104.788	227.962	104.267	-8191	255	
947.823	1	1	0	0	0.15459	0.093759	0.2894	0.40484	0.26808	0.097834	0.31225	0.091383	0.12442	0.37066	0.078138	0.3312	0.072639	0.062726	0.063906	0.075901	-1.7313	-1.1333	-1.6083	-2.1729	-1.2604	-1.8563	-1.875	-1.5646	-2.1167	-1.525	-1.8	-2.1688	-1.375	-1.9688	-1.6583	-1.5604	276.369	298.856	150.275	400.884	393.713	136.859	411.375	415.927	103.633	385.881	366.468	355.261	331.787	230.579	341.105	343.548	0.00058927	0.00040383	0.0001419	1363.1	4.8541e-06	4.0726e-06	1365.1	368.22	5.7254e-06	5.171e-06	420.02	140.68	121.9	41.897	4.6323e-06	51.645	0.00059308	0.00058909	0.00016389	1381.7	6.3889e-06	6.2364e-06	1381.1	375.52	6.1313e-06	6.6906e-06	428.34	143.42	124.87	42.995	6.4245e-06	53.173	151.403	164.937	176.151	91.363	224.539	228.694	91.035	96.078	230.885	201.787	95.242	99.711	100.199	104.735	222.824	104.226	-8191	255	
947.943	1	1	0	0	0.13977	0.20105	0.33595	0.15936	0.21277	0.21853	0.27943	0.17638	0.10727	0.043938	0.22649	0.22526	0.20335	0.16536	0.041407	0.23887	-1.625	-1.4354	-1.4458	-2.1917	-1.1917	-2.0062	-1.8813	-1.4833	-2.1458	-1.4729	-1.7229	-2.2146	-1.3625	-2.0292	-1.7458	-1.4021	326.540	373.875	272.325	300.299	292.458	296.026	375.176	291.355	147.150	113.829	117.803	331.109	131.370	425.315	229.551	418.773	0.00060131	0.00060226	9.9205e-05	1359.5	4.3828e-06	4.4935e-06	1356.6	368.2	4.6257e-06	6.965e-06	420.68	140.55	121.82	41.854	4.9263e-06	51.715	0.00058633	0.00055245	0.00015763	1378.3	6.0569e-06	6.2926e-06	1377.1	375	6.0039e-06	6.3289e-06	427.95	143.34	124.61	42.955	6.1992e-06	53.097	151.805	167.639	173.136	91.233	217.534	223.193	91.182	96.072	222.536	229.113	95.507	99.600	100.171	104.686	234.369	104.187	-8191	255	
948.040	1	1	0	0	0.0070027	0.22868	0.2519	0.10098	0.22064	0.033346	0.10028	0.2493	0.16294	0.21205	0.20504	0.058205	0.15947	0.085956	0.28593	0.29159	-1.7479	-1.4604	-1.3062	-2.2792	-1.1	-1.7833	-2.1667	-1.2708	-2.1604	-1.6292	-1.5292	-2.2833	-1.4125	-1.8479	-1.9312	-1.3583	311.261	408.300	238.910	103.841	422.780	296.175	416.708	352.753	290.852	285.529	314.828	386.646	234.268	285.297	337.380	416.706	0.00059997	0.00047061	0.00011686	1364.5	4.5179e-06	3.7725e-06	1354.5	368.03	5.3624e-06	4.5685e-06	418.78	140.16	122.07	41.708	3.8343e-06	51.901	0.00058528	0.00056945	0.00016161	1381.3	6.0122e-06	6.2848e-06	1377	374.86	6.201e-06	6.2282e-06	427.3	143.15	124.53	42.89	5.9734e-06	53.175	150.913	175.923	178.416	91.323	229.611	234.880	91.076	95.871	224.903	215.860	95.594	99.911	100.281	104.982	246.061	104.068	-8191	255	
948.136	1	1	0	0	0.2142	0.21041	0.06317	0.39842	0.14161	0.086405	0.36843	0.13016	0.14836	0.14624	0.11707	0.20907	0.37981	0.43821	0.27812	0.51113	-1.6604	-1.525	-1.4208	-2.4	-1.3542	-1.8292	-2.4896	-1.375	-2.0104	-1.5875	-1.2354	-2.3396	-1.4646	-1.8479	-2.0354	-1.3979	385.126	344.269	284.951	395.377	266.904	79.522	367.858	386.996	336.653	214.873	328.557	369.261	273.202	370.198	208.753	388.914	0.0005924	0.00045704	9.0022e-05	1352.7	5.148e-06	4.8637e-06	1353	366.83	4.5398e-06	5.7786e-06	418.9	140.72	122.1	41.878	3.8023e-06	51.479	0.00058174	0.00056208	0.00015996	1374.6	6.3437e-06	5.9215e-06	1375.7	374.06	6.1605e-06	6.314e-06	427.35	143.22	124.43	42.909	6.0452e-06	52.997	150.786	171.637	169.741	91.391	233.866	225.876	91.199	95.841	222.514	238.279	95.460	99.600	100.272	105.023	246.351	104.326	-8191	255	
948.232	1	1	0	0	0.089195	0.09653	0.12309	0.19987	0.25162	0.086138	0.077875	0.16168	0.10642	0.20237	0.23096	0.12916	0.10112	0.17236	0.17407	0.079339	-1.5917	-1.7646	-1.5187	-2.2396	-1.4188	-1.3917	-2.4313	-1.4625	-1.8333	-2.0229	-1.6208	-2.4167	-1.3729	-1.5896	-1.9896	-1.2958	393.469	289.140	138.353	325.917	384.847	151.076	309.767	208.818	289.111	108.021	374.777	387.106	110.417	118.753	87.898	434.436	0.00057325	0.0004582	0.00010122	1357.3	4.9629e-06	4.8711e-06	1360.6	367.34	5.0352e-06	5.2537e-06	419.64	140.43	121.39	41.639	5.6964e-06	51.731	0.00059316	0.00055135	0.00015481	1378	6.1436e-06	5.9783e-06	1378.2	373.98	6.1416e-06	6.1364e-06	426.69	143.27	124.2	42.824	5.9043e-06	53.112	149.527	148.598	182.725	91.312	236.925	218.281	91.315	95.964	222.112	237.334	95.596	99.616	100.176	104.655	224.941	104.048	-8191	255	
948.328	1	1	0	0	0.1214	0.16795	0.21536	0.03848	0.17966	0.11117	0.1689	0.36105	0.070828	0.12696	0.16339	0.033624	0.15667	0.085293	0.033472	0.34219	-1.3	-1.9042	-1.1958	-2.25	-1.775	-1.5396	-2.3125	-1.5083	-1.9646	-2.0104	-1.3188	-2.2104	-1.6458	-1.5396	-1.9708	-1.5271	331.707	421.496	342.850	184.231	423.084	113.710	352.618	347.069	286.104	295.324	436.217	325.752	81.358	82.592	207.710	425.093	0.00061123	0.00060401	0.0001614	1360.5	4.8239e-06	5.413e-06	1357.7	366.71	6.509e-06	4.4666e-06	418.58	140.5	122.28	41.823	6.4058e-06	51.698	0.00059254	0.00055424	0.00015862	1378.7	6.1835e-06	6.3224e-06	1379	374.22	6.2066e-06	5.9374e-06	427.13	143.41	124.69	42.985	6.2436e-06	53.132	152.670	170.289	167.736	91.311	223.952	217.258	91.311	96.032	219.429	207.110	95.633	99.966	100.414	104.890	221.318	104.056	-8191	255	
948.424	1	1	0	0	0.24618	0.22536	0.17129	0.33156	0.17935	0.057147	0.25511	0.43099	0.19649	0.27882	0.24606	0.073373	0.022773	0.32183	0.20589	0.24923	-1.1979	-2.0646	-1.2667	-2.3312	-1.8604	-1.325	-2.1979	-1.7646	-1.525	-2.0375	-1.5063	-2.1271	-1.8583	-1.4167	-2.2146	-1.4729	95.633	153.545	359.498	401.353	184.777	263.825	416.198	400.148	224.693	380.390	394.526	340.961	208.237	339.500	281.552	108.652	0.00055203	0.00052367	0.00013995	1362.7	4.7038e-06	7.2106e-06	1359.6	367.22	6.4312e-06	5.6999e-06	420.23	140.24	121.59	41.731	5.2351e-06	51.665	0.00058928	0.00055082	0.00016046	1380.4	6.2854e-06	6.3153e-06	1378.5	374.58	6.2772e-06	6.23e-06	427.62	143.26	124.6	42.855	6.1082e-06	53.067	150.622	163.261	158.216	91.234	223.775	215.959	91.219	95.914	231.281	232.435	95.589	99.759	100.199	104.757	236.295	104.086	-8191	255	
948.519	1	1	0	0	0.1885	0.16446	0.11856	0.17713	0.20773	0.099312	0.20829	0.33028	0.20076	0.34551	0.13878	0.20427	0.21032	0.16859	0.15018	0.12908	-1.1437	-2.0812	-1.1958	-2.1708	-1.8167	-1.3125	-2.4146	-1.8563	-1.4438	-2.2958	-1.4438	-2.0062	-1.8979	-1.2	-1.8687	-1.675	208.729	328.432	231.226	364.921	281.968	387.267	386.214	360.909	229.437	208.732	154.686	138.784	326.183	111.930	252.920	369.152	0.00057777	0.00045752	0.00012174	1361.2	5.8829e-06	5.6071e-06	1357.4	368.23	5.2561e-06	5.9967e-06	418.77	140.2	122.19	41.991	5.6647e-06	51.555	0.00059793	0.00056672	0.00016337	1378.3	6.1998e-06	6.663e-06	1377.9	374.41	6.1999e-06	6.3045e-06	427.69	143.19	125.03	42.967	6.2217e-06	53.168	149.773	175.240	173.218	91.684	219.391	228.586	91.177	96.020	227.284	228.421	95.604	99.761	100.401	104.895	231.253	103.824	-8191	255	
948.639	1	1	0	0	0.10441	0.075002	0.21255	0.065756	0.106	0.10509	0.21054	0.19414	0.25992	0.30331	0.22166	0.10781	0.10873	0.20155	0.13038	0.15426	-0.8625	-2.1917	-1.3229	-1.8	-1.8188	-1.2938	-2.3042	-1.9521	-1.2229	-2.0333	-1.4771	-1.9604	-2.0062	-1.375	-2.0667	-1.6604	307.415	84.832	197.785	422.476	429.210	403.189	401.085	207.879	312.023	108.494	400.691	265.289	417.554	304.679	258.294	204.570	0.00061102	0.00047454	0.00012402	1359	5.4084e-06	3.4306e-06	1358.8	367.49	6.0861e-06	5.4799e-06	419.73	140.44	121.66	41.854	5.4497e-06	51.653	0.000607	0.0005624	0.00016396	1377.9	6.1031e-06	6.3248e-06	1379.3	374.66	6.2071e-06	6.0864e-06	428.18	143.55	124.72	43.026	6.2584e-06	53.129	148.008	184.226	154.103	91.344	224.508	239.825	91.305	96.030	224.006	224.539	95.476	99.759	100.248	104.927	228.484	104.151	-8191	255	
948.735	1	1	0	0	0.12926	0.17032	0.23362	0.19099	0.17317	0.036253	0.18525	0.54385	0.17969	0.082018	0.15212	0.2067	0.14645	0.099807	0.23049	0.27875	-1.0354	-2.1104	-1.3146	-1.7604	-2.1583	-1.225	-2.2979	-2.0417	-1.0875	-2.3479	-1.4229	-1.7604	-2.2333	-1.2271	-1.8271	-1.8771	237.447	255.595	281.907	417.665	141.887	180.974	381.686	409.290	419.114	281.552	94.891	343.294	355.977	178.314	301.414	186.589	0.00057221	0.00043542	0.00014037	1361.4	6.8329e-06	4.8848e-06	1358.3	369.49	4.8777e-06	5.4358e-06	420.43	140.89	121.75	41.967	5.7913e-06	51.67	0.00060266	0.00058556	0.00016143	1379.6	6.4635e-06	6.341e-06	1379.9	375.85	6.5547e-06	6.0864e-06	428.74	143.59	124.89	43.044	6.1888e-06	53.239	150.847	170.407	162.335	91.493	234.740	234.822	91.246	95.716	224.862	220.951	95.305	99.860	100.536	105.076	219.588	104.207	-8191	255	
948.831	1	1	0	0	0.19669	0.1622	0.035104	0.090944	0.046074	0.13486	0.39581	0.11345	0.11182	0.16364	0.11602	0.36625	0.41052	0.13936	0.12126	0.27722	-0.7375	-2.0417	-1.2938	-1.6417	-2.0604	-1.1187	-1.9438	-2.0312	-1.25	-2.0563	-1.6437	-1.8458	-2.1625	-1.375	-1.7188	-2.2	218.494	129.798	292.370	334.632	113.382	354.461	361.206	289.792	234.314	319.511	118.596	435.257	97.098	401.491	207.131	343.671	0.00058781	0.00043877	0.00012426	1359	5.4434e-06	5.6184e-06	1357.7	369.08	6.2089e-06	6.3861e-06	420.48	140.92	122.41	41.662	4.7751e-06	52.16	0.00058696	0.00055235	0.00015993	1379.9	6.142e-06	6.3565e-06	1379.3	375.62	6.1917e-06	6.2586e-06	428.78	143.73	125.26	42.988	6.0715e-06	53.344	151.359	149.670	169.194	91.277	210.091	216.121	91.261	95.880	222.252	229.618	95.451	99.892	100.217	104.780	229.004	104.049	-8191	255	
948.903	1	1	0	0	0.096379	0.14065	0.17499	0.12668	0.076842	0.020844	0.24977	0.34991	0.10085	0.2526	0.22084	0.099894	0.23405	0.20118	0.097902	0.20818	-0.675	-2.1896	-1.6792	-1.4688	-2.1021	-1.3687	-2.1188	-2.2667	-1.1938	-1.9292	-1.7458	-1.4854	-2.2458	-1.4958	-1.5375	-2.0667	231.620	189.628	205.854	386.100	110.663	195.260	365.062	389.146	381.085	207.055	320.334	351.231	292.968	391.236	416.774	301.366	0.00056419	0.00044729	0.00010859	1360.5	4.7229e-06	6.1539e-06	1359.6	369.6	4.8878e-06	3.4758e-06	420.44	140.89	122.02	41.897	5.3927e-06	51.984	0.00058083	0.00055703	0.00015766	1381.3	5.8961e-06	6.5632e-06	1380.1	375.55	6.3182e-06	6.2175e-06	428.58	143.79	125.07	43.095	6.0737e-06	53.293	149.758	156.632	194.974	91.363	202.627	222.426	91.237	96.066	223.769	241.683	95.377	99.829	100.606	104.892	234.084	104.049	-8191	255	
949.024	1	1	0	0	0.17651	0.24299	0.14464	0.20208	0.16472	0.17577	0.17296	0.31739	0.092948	0.27085	0.097643	0.27475	0.12471	0.26436	0.067822	0.32537	-0.89583	-2.0417	-1.6479	-1.6125	-2.125	-1.5521	-1.9188	-2.4146	-1.2125	-1.875	-1.8875	-1.3229	-2.1583	-1.6604	-1.1833	-2.3646	119.797	314.520	384.307	366.004	272.563	357.011	94.034	397.226	116.514	89.587	329.268	419.665	328.385	388.298	403.190	344.712	0.00058838	0.0004378	0.00012647	1362.6	6.1317e-06	4.6476e-06	1363.5	369.48	5.1002e-06	4.6039e-06	420.07	141.02	122.2	41.987	5.4747e-06	51.682	0.00059651	0.00054129	0.00015528	1381.6	6.1672e-06	6.5728e-06	1380.1	375.79	6.0929e-06	5.9815e-06	428.14	143.8	124.83	43.087	6.3078e-06	53.189	150.988	177.728	169.900	91.256	219.240	218.167	91.291	95.976	234.060	240.934	95.518	99.715	100.186	104.859	224.017	104.182	-8191	255	
949.120	1	1	0	0	0.18492	0.37537	0.31095	0.28477	0.064244	0.047014	0.34513	0.25791	0.069734	0.071582	0.30441	0.29443	0.27692	0.13957	0.059121	0.1088	-0.89792	-1.9375	-2.075	-1.4667	-2.1063	-1.5104	-1.5625	-2.1312	-1.4229	-1.6333	-2.0792	-1.4042	-2.2354	-1.7104	-1.4688	-2.3063	385.696	93.555	301.174	334.430	112.932	396.253	343.074	408.892	286.435	280.903	404.692	113.440	161.177	434.662	299.147	234.543	0.00058189	0.00042363	9.5234e-05	1362.5	6.0982e-06	4.0721e-06	1360.8	368.77	5.1025e-06	5.9187e-06	421.65	140.52	122.5	41.941	5.0162e-06	51.353	0.00060255	0.00054856	0.00015153	1381.2	6.028e-06	6.3093e-06	1379.3	375.69	6.3791e-06	6.2574e-06	428.46	143.59	124.99	43.078	6.2902e-06	53.115	152.298	165.043	178.984	91.314	221.620	217.109	91.436	95.938	230.559	221.256	95.459	99.818	100.308	104.841	229.162	104.110	-8191	255	
949.216	1	1	0	0	0.22318	0.049395	0.13027	0.37245	0.16643	0.064386	0.23002	0.37302	0.16313	0.069947	0.11796	0.39281	0.10867	0.059355	0.1927	0.097291	-0.95208	-1.5729	-2.0042	-1.425	-2.1312	-1.6667	-1.5042	-2.1854	-1.6187	-1.5229	-2.3708	-1.5375	-2.0542	-1.9021	-1.4333	-2.2604	395.981	319.749	142.874	397.256	315.626	437.999	330.998	393.917	221.849	175.053	81.726	363.341	319.724	174.423	386.071	365.810	0.00059567	0.00058738	9.0511e-05	1364.1	6.2611e-06	4.3729e-06	1365.1	368.09	5.7924e-06	6.2185e-06	420.52	141.02	122.66	41.758	4.7881e-06	51.727	0.00059033	0.00056151	0.00015561	1381.3	6.3311e-06	6.1211e-06	1380.8	375.29	6.4011e-06	6.2967e-06	428.16	143.72	125.18	42.971	6.3363e-06	53.142	150.567	172.180	159.331	91.506	219.619	221.134	91.339	96.067	234.933	219.378	95.556	99.944	100.452	104.782	223.465	104.101	-8191	255	
949.337	1	1	0	0	0.20935	0.16871	0.16359	0.19886	0.42297	0.17829	0.16843	0.18001	0.2855	0.097038	0.29576	0.07199	0.1903	0.32195	0.079017	0.10775	-0.86875	-1.5312	-2.0062	-1.3854	-1.8979	-1.9396	-1.3312	-2.3417	-1.4917	-1.5688	-2.3896	-1.2563	-1.9104	-1.9896	-1.2854	-2.0917	318.754	266.888	319.950	389.563	290.889	96.916	327.901	435.891	363.928	132.639	363.230	114.227	125.291	410.514	432.289	245.841	0.00059382	0.00053852	0.000148	1361.9	5.6954e-06	6.2289e-06	1365.7	369.68	4.703e-06	5.0186e-06	421.07	140.87	122.61	41.91	5.7676e-06	51.975	0.00059365	0.00056482	0.00015604	1380.1	6.225e-06	6.1593e-06	1379.9	375.87	6.0397e-06	6.1054e-06	428.18	143.6	125.13	43.056	6.521e-06	53.32	152.115	170.854	170.539	91.507	230.498	221.218	91.191	96.266	228.365	227.201	95.664	99.933	100.145	104.404	220.070	104.234	-8191	255	
949.431	1	1	0	0	0.031242	0.12069	0.17433	0.37784	0.23999	0.11397	0.40076	0.25467	0.13746	0.17505	0.031857	0.18873	0.0065806	0.35999	0.16548	0.17888	-1.2875	-1.2979	-2.175	-1.3937	-1.8729	-2.0729	-1.5229	-2.1458	-1.4479	-1.45	-2.4313	-1.5042	-1.7917	-1.9188	-1.1667	-2.0125	105.464	329.111	226.417	380.478	89.098	118.204	345.672	401.624	330.838	212.778	173.136	150.056	288.137	393.668	114.748	321.605	0.00058592	0.00060252	0.00012456	1362.7	5.0911e-06	4.3446e-06	1362.4	369.96	6.2351e-06	5.2405e-06	423.41	140.92	122.81	42.123	5.9367e-06	51.711	0.00058472	0.00057598	0.0001501	1381.7	6.2975e-06	5.9221e-06	1382.7	376.42	6.2327e-06	6.2753e-06	429.62	143.85	125.36	43.171	6.3226e-06	53.283	150.430	158.666	158.652	91.482	227.638	229.866	91.398	96.048	219.178	226.413	95.741	99.852	100.549	105.095	231.954	104.077	-8191	255	
949.505	1	1	0	0	0.052365	0.30172	0.044159	0.34478	0.056603	0.069544	0.095672	0.20372	0.12119	0.076099	0.46277	0.38115	0.082469	0.293	0.20736	0.13649	-1.2708	-1.2292	-2.2646	-1.4438	-1.6583	-2.0042	-1.4896	-2.2125	-1.7271	-1.4188	-2.2354	-1.7333	-1.4917	-2.1813	-1.2229	-2.0292	288.793	330.889	240.650	421.435	318.935	409.501	399.795	84.174	123.674	98.141	381.616	344.538	397.087	90.059	104.367	391.309	0.00058977	0.00037347	7.9726e-05	1363.2	5.4981e-06	4.7639e-06	1353.4	370.93	6.2299e-06	3.3983e-06	420.99	140.48	122.75	41.994	6.2334e-06	51.825	0.00058098	0.00058872	0.00014918	1383.2	6.3275e-06	6.0142e-06	1379.5	376.6	6.0771e-06	6.4088e-06	429.55	143.66	125.59	43.156	6.3346e-06	53.265	151.628	162.350	168.635	91.368	219.018	239.371	91.244	96.239	229.201	218.036	95.494	99.699	100.344	105.037	226.055	104.472	-8191	255	
949.623	1	1	0	0	0.08088	0.12523	0.31304	0.2822	0.079989	0.099979	0.29321	0.3943	0.21421	0.14901	0.17925	0.20976	0.18926	0.10881	0.29166	0.20094	-1.3542	-1.0667	-1.9917	-1.7437	-1.4146	-2.1042	-1.5146	-1.9542	-1.7417	-1.2896	-2.1688	-1.5438	-1.3958	-2.3271	-1.2708	-1.8833	361.894	423.273	312.243	86.246	396.168	295.581	365.922	426.819	316.269	103.270	329.018	392.203	343.075	372.153	398.206	277.000	0.00060982	0.00045963	0.00016375	1364.1	5.1573e-06	5.5008e-06	1363	370.51	5.4514e-06	6.2033e-06	419.46	140.82	122.45	41.951	6.4056e-06	51.948	0.00058905	0.00056645	0.00015445	1383	6.2318e-06	6.0667e-06	1382.1	376.72	6.2998e-06	6.2729e-06	429.18	143.99	125.21	43.101	6.2436e-06	53.392	151.390	159.745	180.876	91.574	227.625	242.531	91.052	96.291	220.521	233.374	95.561	99.985	100.447	104.890	227.457	104.440	-8191	255	
949.720	1	1	0	0	0.10355	0.13301	0.26707	0.34036	0.055009	0.021003	0.16335	0.20775	0.18124	0.088822	0.20519	0.11882	0.35834	0.063117	0.2828	0.24057	-1.5083	-1.2521	-1.9479	-1.6583	-1.2188	-2.1312	-1.5083	-1.9333	-1.75	-1.3312	-2.1167	-1.7792	-1.4271	-2.2104	-1.2854	-1.6562	423.125	139.367	432.156	419.119	135.049	122.188	300.109	149.514	99.233	100.794	247.421	122.447	397.370	143.275	174.162	120.061	0.00059213	0.00042054	0.00011378	1361.8	4.6196e-06	5.7513e-06	1363.8	370.3	4.1168e-06	5.6965e-06	420.68	140.39	122.91	41.913	5.0688e-06	51.816	0.00059095	0.00056677	0.00015285	1383.9	6.0984e-06	5.952e-06	1382.6	376.9	5.967e-06	6.2586e-06	429.01	144.01	125.31	43.112	6.2414e-06	53.281	149.656	154.647	169.681	91.593	238.797	239.214	91.392	96.193	211.208	217.001	95.701	99.590	100.249	105.204	221.867	104.448	-8191	255	
949.816	1	1	0	0	0.045538	0.33784	0.22586	0.25449	0.31271	0.16124	0.27644	0.071441	0.10259	0.23497	0.062544	0.088718	0.12858	0.3264	0.15581	0.38376	-1.8167	-1.2771	-2.0687	-1.9646	-1.2583	-2.225	-1.4792	-1.8667	-2.0708	-1.4604	-2.1208	-1.95	-1.2458	-2.1771	-1.375	-1.5854	338.401	172.898	187.002	429.260	338.971	352.722	411.354	202.114	160.243	90.515	286.489	426.219	335.371	424.635	285.917	130.502	0.00060028	0.00048705	0.00015961	1361.1	4.5194e-06	5.1389e-06	1358.9	370.16	4.6765e-06	5.3802e-06	421.93	140.39	123.01	42.05	4.9935e-06	51.821	0.00058812	0.00057161	0.00015195	1381.1	6.0884e-06	5.9287e-06	1381.2	376.3	5.9604e-06	6.0917e-06	429.11	143.61	125.17	43.156	6.1756e-06	53.31	150.540	166.627	164.144	91.563	222.441	234.388	91.437	96.202	221.416	222.806	95.602	99.823	100.371	105.072	224.191	104.365	-8191	255	
949.936	1	1	0	0	0.16328	0.15885	0.081155	0.34114	0.042683	0.14185	0.23168	0.035425	0.1584	0.19747	0.16363	0.31644	0.13837	0.10448	0.12797	0.13045	-1.8333	-1.2604	-1.9333	-2.0479	-1.1083	-2.1667	-1.75	-1.6292	-2.0292	-1.2875	-1.7708	-2.2875	-1.2125	-2.2125	-1.7146	-1.5167	302.699	402.427	168.133	407.668	343.808	205.988	354.231	187.361	280.012	161.527	398.918	386.081	78.532	373.016	253.114	379.594	0.00060354	0.00050227	0.0001152	1359.4	4.4189e-06	5.1897e-06	1359.4	369.68	5.9718e-06	6.24e-06	421.29	140.89	122.76	41.894	4.2892e-06	51.798	0.00058852	0.00057109	0.00015083	1379.7	6.0038e-06	5.9903e-06	1380.8	376	5.9025e-06	6.112e-06	428.84	143.91	125.35	43.074	5.9958e-06	53.217	152.139	165.455	158.434	91.313	231.602	219.814	91.382	96.116	225.697	229.397	95.660	99.730	100.456	105.038	231.653	104.277	-8191	255	
950.032	1	1	0	0	0.11456	0.037115	0.1948	0.18205	0.17407	0.22068	0.14173	0.14638	0.20444	0.27088	0.11486	0.28351	0.16736	0.24382	0.18132	0.39672	-1.8125	-1.1854	-1.6583	-2.1354	-1.2188	-1.9271	-1.9562	-1.5542	-2.1937	-1.4958	-1.7208	-2.1042	-1.2021	-2.0229	-1.6833	-1.5771	90.399	335.218	242.962	403.448	294.296	199.435	394.328	283.015	411.463	419.050	388.937	427.002	89.749	190.588	114.076	369.620	0.00058221	0.00050003	0.00013293	1367.2	6.196e-06	5.4476e-06	1365.3	368.83	5.8778e-06	3.7176e-06	421.42	140.72	122.06	41.967	5.4282e-06	51.727	0.00057885	0.00054719	0.00015403	1382.1	6.3847e-06	5.9401e-06	1383.5	375.56	6.0305e-06	5.9291e-06	429	143.77	125.06	43.075	6.2738e-06	53.21	151.947	158.048	191.749	91.505	225.418	227.282	91.544	96.242	221.212	236.940	95.736	100.126	100.430	104.981	228.961	104.353	-8191	255	
950.129	1	1	0	0	0.26599	0.13902	0.21034	0.21934	0.068677	0.10276	0.50218	0.36345	0.029486	0.13615	0.12879	0.050213	0.1478	0.06812	0.19387	0.048692	-1.9625	-1.4479	-1.6562	-2.225	-1.3	-1.7521	-2.1604	-1.4771	-2.1479	-1.4458	-1.6063	-2.3646	-1.4062	-1.8312	-1.8104	-1.3937	259.950	144.811	268.112	422.814	91.698	286.179	363.278	345.723	377.070	155.392	415.844	421.891	120.634	389.208	292.525	291.851	0.00057912	0.00037718	0.00013774	1360.4	4.7691e-06	5.0509e-06	1362.5	368.78	5.4882e-06	4.7833e-06	418.52	140.65	122.07	41.799	5.987e-06	51.927	0.00058166	0.0005554	0.00015576	1381.8	6.2355e-06	5.9478e-06	1380.1	375.65	6.159e-06	6.0345e-06	427.96	143.76	124.78	43.015	6.0249e-06	53.176	150.522	172.572	167.335	91.470	227.066	241.774	91.360	95.996	219.342	228.410	95.716	100.047	100.402	105.105	225.601	104.228	-8191	255	
950.200	1	1	0	0	0.1286	0.1254	0.07651	0.38887	0.035715	0.15519	0.11933	0.19596	0.22231	0.17716	0.41376	0.15341	0.17625	0.16779	0.17932	0.28421	-1.7833	-1.625	-1.3125	-2.4417	-1.4667	-1.8937	-2.1375	-1.2	-1.9729	-1.5896	-1.4833	-2.4271	-1.2313	-1.8271	-1.9833	-1.4792	397.932	213.387	341.889	91.570	423.516	375.227	83.591	362.277	95.717	225.767	398.765	420.950	429.280	374.965	370.086	414.167	0.00057814	0.00054674	0.00014201	1364.4	3.806e-06	4.9828e-06	1360.6	368.6	6.3413e-06	4.4579e-06	420.1	140.98	122.21	41.749	4.7356e-06	51.599	0.0005676	0.00055029	0.00015617	1382.2	6.0217e-06	6.1068e-06	1381	375.88	6.097e-06	6.0858e-06	428.65	143.78	125.24	42.997	6.1751e-06	53.133	148.487	163.818	147.214	91.508	208.381	224.567	91.270	96.222	223.136	209.562	95.620	99.766	100.716	105.102	219.508	104.472	-8191	255	
950.321	1	1	0	0	0.077905	0.16461	0.17609	0.23841	0.31755	0.24547	0.45582	0.22911	0.27781	0.23607	0.44003	0.044155	0.27972	0.16562	0.17205	0.18685	-1.5458	-1.8042	-1.3083	-2.1771	-1.425	-1.5792	-2.1708	-1.4271	-2.0958	-1.8917	-1.4646	-2.3375	-1.4062	-1.5458	-2.0938	-1.2667	417.802	228.730	113.558	422.189	423.438	308.135	422.539	346.158	221.064	275.902	435.881	134.492	84.024	393.383	357.152	425.777	0.00063568	0.00054367	0.00011545	1361.2	4.5316e-06	5.7788e-06	1368.6	368.44	5.5858e-06	4.6367e-06	421.49	140.83	122.24	41.828	5.4508e-06	51.737	0.00060504	0.00055872	0.00015857	1380.5	6.1499e-06	6.2663e-06	1381.7	375.21	5.8749e-06	6.1615e-06	428.82	143.93	125	42.97	6.2299e-06	53.159	151.495	174.859	176.393	91.508	236.963	235.645	91.317	96.156	230.269	227.666	95.841	99.892	100.374	105.171	238.491	104.114	-8191	255	
950.417	1	1	0	0	0.20962	0.058692	0.28073	0.073863	0.048385	0.12265	0.20515	0.33333	0.077979	0.35957	0.23783	0.060636	0.025955	0.33347	0.16293	0.16027	-1.4646	-1.8021	-1.1938	-2.3896	-1.3771	-1.3729	-2.3458	-1.4438	-1.6104	-1.8021	-1.4125	-1.9292	-1.5479	-1.6104	-2.0583	-1.4937	216.538	429.659	223.424	379.888	99.267	329.993	391.116	371.527	300.141	293.312	86.404	79.101	341.934	114.892	315.548	385.882	0.00059728	0.00050834	0.00013893	1359.5	6.8457e-06	4.8159e-06	1364	368.6	6.1298e-06	3.8854e-06	421.62	140.86	123.27	41.945	3.9663e-06	51.472	0.00058137	0.00056482	0.00015723	1380.1	6.1825e-06	6.2567e-06	1381.1	375.31	6.2542e-06	5.8266e-06	429.25	143.8	125.33	43.078	6.0189e-06	53.081	150.028	158.795	173.268	91.578	221.860	220.941	91.347	96.013	237.087	222.319	95.815	99.860	100.385	105.022	230.244	104.244	-8191	255	
950.512	1	1	0	0	0.15589	0.22515	0.039949	0.21662	0.23027	0.18005	0.13826	0.27443	0.14614	0.23687	0.37866	0.31078	0.16369	0.32081	0.25097	0.025133	-1.4562	-2.0875	-1.1187	-2.1542	-1.5292	-1.4104	-2.1937	-1.4771	-1.7021	-1.9688	-1.4062	-1.9292	-1.7771	-1.5688	-2.15	-1.3625	283.259	433.818	176.616	387.866	121.742	373.876	342.958	364.815	229.851	373.833	383.908	338.358	278.067	83.637	426.805	229.007	0.00058914	0.00047543	0.00015304	1363.9	6.535e-06	4.5363e-06	1361.7	367.41	5.6998e-06	5.2344e-06	419.22	140.92	122.89	41.747	5.821e-06	51.429	0.00058398	0.00055703	0.00015617	1378.9	6.2634e-06	6.286e-06	1381.2	374.77	6.3504e-06	5.9034e-06	428.09	143.66	125.02	42.96	6.1285e-06	53.127	152.375	157.190	169.963	91.675	223.527	214.228	91.643	95.786	223.320	225.889	95.398	100.079	100.571	105.093	218.288	104.076	-8191	255	
950.608	1	1	0	0	0.18767	0.11144	0.05468	0.23703	0.21574	0.30508	0.13129	0.23392	0.028113	0.1209	0.14176	0.18845	0.19635	0.059868	0.1652	0.077452	-1.2271	-1.9958	-1.3188	-1.9979	-1.95	-1.2979	-2.3854	-1.7604	-1.4188	-2.0667	-1.3604	-2.0083	-2.0417	-1.4438	-1.9042	-1.3021	185.801	382.268	193.731	373.071	187.446	287.580	326.990	375.897	383.975	234.522	405.320	264.049	417.145	139.124	83.159	89.922	0.00060824	0.00054141	0.00013949	1361.5	5.7257e-06	6.2782e-06	1357.8	368.05	3.9788e-06	4.6018e-06	418.99	140.32	122.29	41.622	5.4289e-06	51.693	0.00059243	0.00054614	0.00015926	1380.5	6.1856e-06	6.1844e-06	1378.9	374.85	6.1078e-06	5.9148e-06	427.32	143.55	124.93	42.98	6.2305e-06	53.17	148.719	175.953	166.608	91.418	217.352	215.543	91.452	96.026	220.365	239.852	95.524	99.992	100.348	105.063	217.251	104.229	-8191	255	
950.728	1	1	0	0	0.13567	0.20675	0.076175	0.079827	0.17071	0.21491	0.36833	0.20602	0.13411	0.080931	0.2963	0.17577	0.14691	0.08977	0.19421	0.19137	-1.1958	-2.2979	-1.3583	-2.0625	-1.9438	-1.2	-2.4896	-1.5667	-1.4875	-2.3312	-1.4312	-1.8	-1.8062	-1.2042	-1.9708	-1.8083	296.024	423.546	197.017	144.301	130.737	148.454	118.190	389.093	242.657	147.512	416.898	413.358	435.449	152.782	369.820	378.579	0.0006043	0.00068291	0.00012776	1359.3	4.6392e-06	5.0175e-06	1363.6	367.05	5.026e-06	6.0731e-06	419.83	140.33	122.25	41.729	5.1448e-06	51.742	0.00059424	0.00055387	0.00015865	1377.4	6.0868e-06	6.0829e-06	1379.3	374.48	6.1907e-06	6.2556e-06	427.61	143.63	125.09	42.974	6.2091e-06	53.212	150.450	176.005	164.683	91.665	227.013	231.689	91.323	96.007	217.306	238.251	95.489	99.958	100.479	105.185	236.980	103.884	-8191	255	
950.800	1	1	0	0	0.048484	0.081641	0.22982	0.080591	0.22561	0.17582	0.082317	0.14057	0.21168	0.14471	0.19389	0.12415	0.19102	0.40255	0.24658	0.16601	-0.90625	-2.1146	-1.4021	-1.8125	-1.675	-1.1604	-2.3083	-1.8229	-1.4292	-2.0979	-1.5646	-1.7062	-2.0938	-1.4021	-1.9021	-1.9521	369.860	373.907	399.207	97.894	143.080	180.381	429.081	425.373	379.803	205.396	104.245	315.886	334.181	393.393	334.888	289.363	0.00058164	0.00056591	0.00011706	1357.9	6.3308e-06	6.1772e-06	1358.7	369.26	6.2824e-06	7.7712e-06	420.38	140.67	122.26	41.953	6.6974e-06	51.911	0.00058038	0.00055708	0.00015218	1378.4	6.1467e-06	6.4258e-06	1380.6	375.9	6.4585e-06	6.202e-06	427.6	143.56	124.94	42.984	6.3982e-06	53.251	151.410	183.254	170.870	91.668	239.563	226.534	91.341	96.060	210.037	234.699	95.478	99.942	100.267	105.007	218.100	104.107	-8191	255	
950.896	1	1	0	0	0.10651	0.11623	0.21969	0.46352	0.091769	0.063635	0.072396	0.17614	0.15266	0.046242	0.30196	0.17846	0.15852	0.11521	0.1006	0.3317	-0.97292	-2.0583	-1.1875	-1.5479	-1.9917	-1.0854	-1.9479	-1.9417	-1.0458	-1.9625	-1.5	-1.6562	-2.0958	-1.2437	-1.6583	-2.0083	247.148	385.539	145.095	403.680	379.175	147.238	280.590	348.053	217.858	321.619	408.117	83.163	171.046	416.788	241.768	291.471	0.00057352	0.00054323	0.00014444	1360.7	5.5752e-06	5.0506e-06	1358.7	368.52	5.8615e-06	6.941e-06	419.57	140.69	121.97	41.857	5.2768e-06	51.687	0.00058687	0.00056666	0.00016112	1380.3	6.1031e-06	6.1797e-06	1380.4	375.28	6.2255e-06	6.0727e-06	427.96	143.68	124.98	43.001	6.0885e-06	53.112	148.665	160.595	179.477	91.650	228.799	229.107	91.273	95.925	223.899	241.606	95.420	99.874	100.367	104.778	235.406	104.121	-8191	255	
951.017	1	1	0	0	0.2859	0.054882	0.12179	0.2897	0.16435	0.26406	0.11196	0.32492	0.14222	0.24758	0.18341	0.2822	0.13212	0.12802	0.3258	0.16503	-0.84167	-2.1	-1.5063	-1.475	-1.9312	-1.4542	-2.0146	-2.0583	-1.3021	-1.9083	-2.025	-1.4125	-2.1792	-1.2917	-1.5521	-2.0458	384.128	349.590	146.063	424.684	400.113	385.585	363.797	387.965	117.741	430.885	395.277	89.005	381.621	270.807	171.990	347.231	0.00060087	0.00055045	0.00016988	1360.5	4.0621e-06	4.9226e-06	1364	368.26	5.2189e-06	6.8638e-06	419.32	140.36	122.36	41.831	6.246e-06	51.764	0.00060051	0.00055519	0.00015518	1378.9	5.9618e-06	6.5573e-06	1380.5	375.38	6.5081e-06	6.3897e-06	427.71	143.46	125.06	42.985	6.2568e-06	53.225	150.514	172.547	163.964	91.560	230.328	225.981	91.567	95.793	215.836	237.038	95.698	99.836	100.466	105.021	233.297	104.098	-8191	255	
951.113	1	1	0	0	0.12087	0.38221	0.14252	0.21191	0.078493	0.22409	0.29774	0.13113	0.30116	0.13561	0.29285	0.35648	0.067524	0.11778	0.14969	0.11583	-0.80625	-1.7833	-1.7729	-1.5854	-2.1021	-1.4042	-1.6812	-2.1646	-1.3083	-1.9583	-2.075	-1.4	-2.1271	-1.3729	-1.6542	-2.1979	88.137	304.803	240.647	344.805	172.235	257.172	381.889	403.028	233.157	85.494	368.922	351.406	413.022	333.600	324.147	433.948	0.00058645	0.00049477	0.00012446	1365.2	5.2052e-06	3.6075e-06	1354.7	367.85	5.1492e-06	6.1416e-06	417.42	140.87	122.2	41.689	6.1181e-06	51.623	0.00057695	0.00056619	0.00015801	1379	6.3721e-06	6.3577e-06	1377.7	375.24	6.3371e-06	6.0262e-06	426.98	143.44	124.95	42.943	6.3757e-06	53.041	150.265	157.152	180.816	91.495	228.840	218.504	91.383	96.325	222.698	219.474	95.505	100.057	100.637	104.981	226.773	104.280	-8191	255	
951.209	1	1	0	0	0.065309	0.22251	0.048806	0.2254	0.05406	0.1034	0.19995	0.31942	0.099855	0.33077	0.31059	0.10645	0.15716	0.08608	0.083298	0.27518	-0.88125	-1.9083	-1.7458	-1.3125	-2.175	-1.4312	-1.5562	-2.3646	-1.3937	-1.6292	-2.1688	-1.2854	-2.1604	-1.675	-1.4479	-2.1896	95.810	349.487	178.988	90.466	350.335	191.523	376.703	93.047	133.985	200.545	394.721	105.116	408.955	137.567	197.919	384.681	0.00058929	0.00044767	0.00013722	1360.9	5.2555e-06	4.3919e-06	1361.1	366.71	5.0416e-06	4.2736e-06	419.08	139.81	121.65	41.786	6.6351e-06	51.754	0.00057967	0.00055219	0.00015705	1379.2	5.8888e-06	6.0625e-06	1379.1	374.27	6.1902e-06	6.1096e-06	427.3	143.15	124.65	42.919	6.2491e-06	53.047	151.144	163.054	172.531	91.764	222.848	241.341	91.444	96.150	217.971	229.145	95.708	99.847	100.411	104.998	233.020	104.471	-8191	255	
951.305	1	1	0	0	0.25953	0.13008	0.18042	0.14655	0.21112	0.36008	0.2079	0.12347	0.27193	0.065999	0.34838	0.20057	0.2128	0.025038	0.3377	0.095314	-0.91042	-1.5375	-1.9021	-1.2604	-2.0875	-1.5833	-1.6375	-2.3396	-1.3646	-1.7917	-1.9062	-1.2375	-2.125	-1.7771	-1.3667	-2.1937	151.858	272.813	157.306	416.346	201.788	299.314	328.794	88.978	105.286	140.776	365.564	82.984	141.435	288.832	230.438	154.084	0.00056714	0.00055317	0.00011723	1359.7	5.1306e-06	5.8982e-06	1360.3	368.31	3.6772e-06	4.508e-06	421.56	140.24	122.62	41.699	4.7998e-06	51.551	0.00058032	0.00054614	0.00015073	1379.3	6.0537e-06	5.952e-06	1378.4	374.95	6.0156e-06	6.0828e-06	427.8	143.38	125.03	42.872	6.1641e-06	53.069	150.821	168.052	173.378	91.538	227.051	229.069	91.522	96.277	208.599	225.452	95.728	99.862	100.747	104.967	209.094	104.301	-8191	255	
951.401	1	1	0	0	0.21023	0.19453	0.14086	0.55075	0.25438	0.28487	0.22292	0.26172	0.46531	0.27498	0.32601	0.26879	0.20392	0.14639	0.1256	0.28577	-0.91667	-1.5583	-2.0187	-1.4104	-1.8625	-1.7646	-1.4438	-2.1375	-1.5333	-1.6229	-2.3729	-1.3167	-2.0438	-2	-1.4333	-2.3083	93.803	252.594	291.695	413.835	336.676	402.879	347.363	148.889	151.756	139.545	364.850	355.880	420.927	395.132	232.227	354.671	0.00057221	0.00047218	0.00013986	1356.3	3.765e-06	5.0846e-06	1356.6	369.02	4.9316e-06	4.6012e-06	419.11	140.1	122.13	41.73	5.3101e-06	51.694	0.00058483	0.0005494	0.00015414	1378	5.9019e-06	5.9622e-06	1377	374.53	6.0371e-06	5.8486e-06	426.3	143.31	124.66	42.854	6.2683e-06	53.082	150.270	161.728	170.807	91.655	238.649	201.439	91.560	96.170	239.391	246.468	95.587	99.873	100.602	105.223	227.399	104.255	-8191	255	
951.497	1	1	0	0	0.063141	0.076309	0.24154	0.25708	0.27415	0.089186	0.10284	0.26983	0.22398	0.13113	0.27819	0.41017	0.11443	0.053721	0.069957	0.17911	-1.1458	-1.3875	-1.9917	-1.4833	-1.9354	-1.8188	-1.4771	-2.2104	-1.5812	-1.5792	-2.2729	-1.625	-1.8583	-2.1875	-1.2667	-2.2562	340.284	154.688	364.433	327.621	359.298	252.509	83.007	328.422	377.113	438.058	356.222	376.103	357.083	297.838	97.645	412.282	0.00058496	0.00056557	0.00012772	1355.6	5.3304e-06	4.4823e-06	1355.7	366.91	4.6712e-06	5.4651e-06	419.71	140.33	121.85	41.704	4.5232e-06	51.965	0.00057431	0.00055498	0.00014833	1377	6.0348e-06	5.8301e-06	1376.8	373.95	6.0039e-06	6.2389e-06	427.82	143.26	124.77	42.905	5.8023e-06	53.183	150.029	162.175	169.491	91.727	225.785	227.091	91.447	96.231	222.790	219.461	95.759	100.090	100.687	104.939	228.395	104.170	-8191	255	
951.616	1	1	0	0	0.065802	0.072861	0.18847	0.18257	0.013087	0.29981	0.21401	0.23575	0.15673	0.10198	0.16577	0.26227	0.22744	0.053321	0.05987	0.26836	-1.2271	-1.3083	-2.1437	-1.5167	-1.7313	-2.0896	-1.6542	-1.9688	-1.575	-1.3708	-2.3438	-1.4292	-1.4833	-2.2271	-1.1208	-1.9292	146.685	277.698	227.986	428.094	182.176	200.470	343.657	383.427	399.797	80.133	417.342	299.592	327.540	283.902	353.134	391.175	0.00057949	0.0004343	0.00012178	1359.1	4.3105e-06	4.8215e-06	1364.5	367.65	5.3545e-06	7.0513e-06	420.21	140.18	121.93	41.554	5.7801e-06	51.462	0.0005729	0.00055577	0.00014657	1378.1	5.9608e-06	5.7776e-06	1378.6	374.01	6.0402e-06	6.146e-06	427.95	143.15	124.53	42.811	6.0139e-06	52.98	148.138	154.999	167.351	91.409	214.846	235.591	91.295	96.186	223.041	208.239	95.811	99.939	100.280	105.076	222.312	104.528	-8191	255	
951.713	1	1	0	0	0.13025	0.063714	0.05604	0.085256	0.080213	0.14032	0.30369	0.32889	0.27036	0.031742	0.30496	0.37315	0.065758	0.016399	0.26321	0.093024	-1.3875	-1.1042	-2.1542	-1.6104	-1.3667	-2.0062	-1.2167	-1.9896	-1.7542	-1.3417	-2.2521	-1.8521	-1.6042	-2.1937	-1.1917	-2.1521	340.508	381.062	188.232	276.644	238.935	411.192	361.610	121.780	129.160	171.649	419.375	405.909	129.126	359.015	371.019	411.890	0.00056948	0.00056711	0.00012323	1361.5	5.3085e-06	5.9782e-06	1357.9	368.03	5.4398e-06	5.1884e-06	420.14	139.89	122.32	41.648	4.775e-06	51.503	0.00056941	0.00055208	0.00014635	1376.9	6.1184e-06	5.7829e-06	1377.2	374.23	5.8738e-06	6.2067e-06	427.04	143.13	124.57	42.819	6.2447e-06	52.94	150.843	162.981	159.880	91.650	228.795	214.941	91.373	96.336	206.172	233.712	95.698	99.986	100.695	105.116	231.295	104.492	-8191	255	
951.809	1	1	0	0	0.39185	0.075276	0.22603	0.10685	0.10084	0.25936	0.19191	0.28748	0.20198	0.15744	0.11451	0.25065	0.030386	0.035912	0.11476	0.17969	-1.4188	-1.2875	-1.9146	-1.8271	-1.6083	-2.1771	-1.5063	-1.9688	-2.075	-1.4375	-2.1	-1.6021	-1.6354	-2.1562	-1.3417	-1.6708	79.250	325.913	175.025	105.959	107.217	383.221	305.750	422.378	192.264	351.820	395.655	117.258	175.778	273.060	353.285	420.289	0.00058123	0.0007218	0.00011787	1359	4.0162e-06	6.5486e-06	1356.3	368.18	5.5051e-06	5.9149e-06	419.56	140.36	121.93	41.755	4.7907e-06	51.297	0.00057417	0.00056535	0.00014479	1375.6	6.0112e-06	5.8546e-06	1375.7	374.27	6.0156e-06	6.1066e-06	427.76	143.1	124.52	42.823	5.969e-06	52.968	150.754	163.791	165.812	91.548	224.119	214.185	91.406	96.304	222.519	225.489	96.053	99.671	100.671	105.098	218.013	104.120	-8191	255	
951.905	1	1	0	0	0.15184	0.068695	0.21022	0.32021	0.19954	0.15255	0.16991	0.35157	0.10633	0.1213	0.14645	0.16345	0.32121	0.19163	0.22913	0.16626	-1.5979	-1.2583	-1.9292	-1.875	-1.3646	-2.2521	-1.6125	-1.7542	-2.0854	-1.3271	-2.0375	-1.7875	-1.4125	-2.1354	-1.4208	-1.7062	395.260	240.479	429.946	340.565	130.220	80.979	385.383	341.572	382.872	397.684	415.227	87.533	407.947	95.489	370.565	416.201	0.00060706	0.00053852	0.00011995	1359.9	5.4745e-06	4.3581e-06	1357.4	367.05	5.6019e-06	4.0483e-06	420.81	140.19	121.47	41.808	4.2771e-06	51.698	0.00059314	0.00055003	0.0001509	1378.4	6.0259e-06	5.9484e-06	1375.7	373.81	5.9337e-06	5.823e-06	427.37	143.05	124.31	42.861	5.9438e-06	52.94	151.905	175.938	157.920	91.611	231.125	229.640	91.391	96.510	228.629	238.917	95.604	99.836	100.615	104.957	233.034	104.499	-8191	255	
952.025	1	1	0	0	0.035842	0.10066	0.10814	0.17292	0.058935	0.08939	0.18641	0.029396	0.17188	0.19834	0.19931	0.33371	0.013326	0.14252	0.21131	0.24152	-1.7083	-0.93125	-1.8917	-1.8917	-1.0833	-1.9583	-1.7271	-1.6396	-2.0042	-1.3687	-1.8646	-1.9312	-1.4292	-2.1521	-1.4833	-1.5604	172.665	113.565	261.680	220.409	143.133	232.022	342.090	414.552	400.245	287.149	373.718	368.846	410.976	413.112	346.952	398.391	0.00060754	0.00043847	0.00012637	1357.8	4.7998e-06	5.6389e-06	1356.4	367.49	4.6667e-06	4.2374e-06	420.25	140.2	121.86	41.864	6.2774e-06	51.499	0.000571	0.00055166	0.00015268	1376.6	6.08e-06	5.9311e-06	1374.9	373.88	6.0459e-06	5.9189e-06	427.04	143.03	124.42	42.901	6.1428e-06	52.986	151.855	181.763	173.100	91.553	214.000	239.602	91.385	96.227	215.369	216.795	95.818	99.913	100.586	105.077	225.031	104.571	-8191	255	
952.097	1	1	0	0	0.046987	0.10513	0.12365	0.30272	0.21803	0.069939	0.21348	0.28968	0.25022	0.29548	0.11795	0.02718	0.42617	0.15407	0.18658	0.22135	-1.8271	-1.2917	-1.5208	-2.1125	-1.3292	-2.0062	-1.925	-1.4937	-2.0271	-1.3333	-1.8542	-2.0292	-1.1437	-2.1562	-1.7167	-1.3354	80.350	415.061	270.882	349.211	294.036	118.437	363.174	405.842	112.516	175.545	402.704	366.125	431.799	143.608	282.705	397.224	0.00054906	0.0004762	0.00014385	1359.3	4.6927e-06	4.594e-06	1360	367.88	6.484e-06	5.2812e-06	419.68	139.62	121.76	41.784	5.0593e-06	51.602	0.00056003	0.00055656	0.00015579	1378.5	6.0952e-06	5.8702e-06	1377.2	374.06	5.8928e-06	5.9821e-06	427.41	143.05	124.51	42.874	6.1159e-06	53.065	150.863	177.911	170.242	91.342	231.934	213.035	91.291	96.309	229.946	235.901	95.778	100.135	100.587	105.153	240.997	104.521	-8191	255	
952.193	1	1	0	0	0.19727	0.25495	0.25552	0.39049	0.17584	0.18256	0.22706	0.32092	0.10144	0.30828	0.20576	0.3058	0.32376	0.12873	0.12636	0.089796	-1.8229	-1.4104	-1.4312	-2.0292	-1.1896	-1.9396	-1.9333	-1.5667	-1.9958	-1.4167	-1.7833	-2.1792	-1.3542	-1.9	-1.9208	-1.3229	332.592	238.048	311.505	375.732	398.474	209.836	340.533	361.089	154.634	430.862	283.459	78.308	400.914	333.448	98.183	395.606	0.00060324	0.00047585	0.00016509	1358.9	5.7505e-06	5.6287e-06	1357.1	368.57	4.7455e-06	5.9273e-06	418.22	140.21	121.92	41.873	4.952e-06	51.631	0.00058285	0.00053677	0.00015399	1378.6	6.3443e-06	6.0058e-06	1377.6	374.06	5.9732e-06	5.9702e-06	427	143.26	124.39	42.895	5.8297e-06	52.972	149.764	180.283	168.389	91.541	220.687	219.671	91.486	96.185	240.731	222.840	95.685	99.998	100.354	105.516	232.854	104.369	-8191	255	
952.289	1	1	0	0	0.093702	0.1989	0.088271	0.10477	0.36232	0.047192	0.48014	0.29095	0.22131	0.32366	0.091595	0.44501	0.10541	0.21587	0.21819	0.40145	-1.6187	-1.3458	-1.4625	-2.2354	-1.2313	-1.975	-2.1083	-1.2563	-1.9937	-1.4688	-1.4771	-2.0771	-1.4688	-1.9312	-1.9312	-1.3771	389.172	389.577	408.695	335.972	202.485	105.594	361.876	405.030	251.856	396.000	358.724	388.948	307.600	413.101	296.762	376.350	0.000609	0.00048879	0.00011566	1360.3	5.3025e-06	3.6821e-06	1359.4	368.72	6.2355e-06	6.6378e-06	418.39	140.08	122.13	41.803	6.0575e-06	51.456	0.00057134	0.00054729	0.00014785	1376.1	6.1478e-06	5.7925e-06	1379.3	374.5	6.0863e-06	6.1299e-06	427.44	143.13	124.79	42.961	5.9887e-06	53.003	149.084	164.325	178.519	91.508	227.571	243.666	91.303	96.075	220.308	228.228	95.849	100.067	100.511	105.144	229.893	104.261	-8191	255	
952.408	1	1	0	0	0.20616	0.13588	0.35907	0.18733	0.16816	0.15288	0.38799	0.38523	0.29929	0.37403	0.14042	0.19614	0.15108	0.10919	0.047136	0.27012	-1.5583	-1.6271	-1.2208	-2.2771	-1.2354	-1.5458	-2.1396	-1.3854	-1.9375	-1.8062	-1.4271	-2.3812	-1.4417	-1.6396	-2.125	-1.3396	198.370	258.942	132.062	298.234	358.461	320.746	379.236	412.567	238.117	295.610	147.908	420.083	101.405	306.270	383.376	406.596	0.00061206	0.00055099	8.5167e-05	1361.6	4.3726e-06	4.8292e-06	1358.9	367.43	5.2372e-06	5.9494e-06	418.77	139.59	121.71	41.666	4.9941e-06	51.378	0.00058951	0.00054956	0.0001553	1378.6	6.0264e-06	5.9371e-06	1377.4	374.18	6.0996e-06	5.8611e-06	426.82	143.02	124.51	42.828	5.7924e-06	52.983	153.384	154.894	162.876	91.646	231.986	241.877	91.413	96.204	208.500	239.111	95.810	100.149	100.443	105.130	227.979	104.329	-8191	255	
952.504	1	1	0	0	0.23341	0.28899	0.052374	0.12384	0.1369	0.1118	0.056132	0.21513	0.12618	0.071237	0.19057	0.37921	0.16974	0.34521	0.11483	0.36515	-1.6458	-1.8104	-1.1896	-2.1646	-1.3208	-1.3792	-2.2875	-1.425	-1.8646	-1.8854	-1.5187	-2.1333	-1.55	-1.5271	-2.3542	-1.3542	238.128	319.337	297.155	354.520	172.026	81.240	430.655	418.043	180.384	202.355	93.978	367.596	293.012	88.107	381.600	384.498	0.00059932	0.00049281	0.00014094	1358.2	4.5763e-06	5.7011e-06	1362.3	367.46	5.233e-06	6.6541e-06	417.85	139.68	121.77	41.488	4.8401e-06	51.431	0.00058143	0.00053408	0.00015961	1377.2	6.1914e-06	6.0518e-06	1378.7	374.13	6.0223e-06	5.8361e-06	426.37	142.94	124.54	42.798	5.9745e-06	52.994	148.581	142.818	174.848	91.796	220.935	232.839	91.548	96.330	229.204	220.473	95.862	99.914	100.598	105.183	221.449	104.351	-8191	255	
952.601	1	1	0	0	0.13123	0.10292	0.069858	0.076067	0.096746	0.22181	0.51155	0.10667	0.1694	0.18145	0.28216	0.13428	0.22855	0.23959	0.078898	0.34976	-1.1646	-2.075	-1.1229	-2.15	-1.5312	-1.3563	-2.4313	-1.5042	-1.7417	-1.8104	-1.5646	-2.1188	-1.7542	-1.4438	-2.0354	-1.4937	349.137	299.949	288.180	290.573	330.249	409.187	342.203	408.666	330.203	136.557	200.316	116.743	80.460	414.789	140.156	391.471	0.00057557	0.00046641	0.00013763	1358.3	4.9817e-06	6.4367e-06	1359.2	366.22	5.5721e-06	4.8194e-06	418.48	140.96	121.85	41.753	4.8828e-06	51.438	0.00058066	0.00052566	0.00016073	1378.3	5.9912e-06	6.0811e-06	1378	373.78	5.943e-06	5.9088e-06	426.65	143.45	124.71	42.875	6.0342e-06	52.924	151.520	171.234	173.212	91.558	229.095	234.853	91.501	96.336	219.704	222.074	95.667	100.072	100.456	105.280	227.571	104.207	-8191	255	
952.697	1	1	0	0	0.3072	0.056701	0.29973	0.16833	0.2664	0.27565	0.28682	0.15815	0.14157	0.11313	0.29004	0.025878	0.18326	0.14898	0.1489	0.039421	-1.0917	-2.0708	-1.1292	-2.0958	-1.9042	-1.3146	-2.3063	-1.5938	-1.4688	-2.15	-1.4417	-2.0583	-1.9625	-1.4188	-2.0958	-1.7417	260.181	402.203	149.801	364.791	249.185	257.519	413.289	432.816	417.180	426.211	416.613	173.287	207.045	107.809	276.870	171.300	0.00057332	0.00050074	0.00012029	1364.1	4.8397e-06	4.7811e-06	1359.8	367.76	5.0726e-06	4.8055e-06	418.95	140.22	122.27	41.673	4.7712e-06	51.556	0.00057644	0.00054008	0.00016054	1380.1	6.0968e-06	6.2185e-06	1378.5	374.25	6.1441e-06	5.7098e-06	426.57	143.24	124.69	42.877	5.969e-06	53.042	148.812	149.300	164.901	91.774	233.254	230.743	91.603	96.193	222.159	223.425	95.593	99.942	100.570	105.028	234.067	104.298	-8191	255	
952.793	1	1	0	0	0.16238	0.12698	0.31901	0.26891	0.1059	0.18082	0.099405	0.23737	0.26542	0.22164	0.14496	0.13161	0.053695	0.25851	0.21031	0.46041	-1.1896	-2.1229	-1.0792	-1.8312	-1.8479	-1.2687	-2.3854	-1.6979	-1.35	-2.0042	-1.3542	-1.9375	-1.9021	-1.4	-2.05	-1.5771	274.063	211.487	172.941	99.762	362.251	260.588	391.286	392.250	262.428	285.112	273.261	403.851	245.171	127.547	243.725	395.495	0.00057508	0.00044944	0.00018854	1360.8	5.2455e-06	6.0943e-06	1359.2	367.05	5.6063e-06	6.5784e-06	416.79	140.53	122.05	41.67	5.7479e-06	51.632	0.00057182	0.00051755	0.00015597	1379.9	5.8263e-06	6.0327e-06	1379.6	374.29	5.9988e-06	5.8748e-06	426.48	143.33	124.85	42.873	5.7985e-06	53.001	150.967	175.485	172.864	91.910	216.687	220.173	91.512	96.133	227.179	228.696	95.935	100.043	100.668	105.067	223.538	104.498	-8191	255	
952.889	1	1	0	0	0.14105	0.13753	0.22508	0.19142	0.22871	0.055234	0.25925	0.3941	0.094604	0.09601	0.11974	0.20632	0.024417	0.12174	0.083108	0.3344	-1.0417	-2.2146	-1.1729	-1.8125	-2.0167	-1.1187	-2.3083	-1.7292	-1.3375	-2.15	-1.3563	-1.925	-2.1937	-1.375	-1.975	-1.7396	226.156	326.302	206.325	397.654	394.980	335.960	366.762	361.918	126.610	142.515	344.398	411.675	340.913	428.912	149.521	318.984	0.00060401	0.00054518	0.00012198	1363.6	6.4994e-06	3.9213e-06	1360.6	367.56	5.2784e-06	5.1594e-06	419.95	140.57	121.83	41.913	5.4382e-06	51.601	0.00059285	0.00052997	0.0001558	1379.9	5.9755e-06	6.2788e-06	1380.1	374.88	6.1452e-06	5.5817e-06	427.83	143.45	124.83	43.035	5.9361e-06	53.076	150.080	156.745	168.993	91.634	216.804	215.980	91.581	96.340	226.691	229.415	95.673	99.853	100.426	105.230	242.826	104.324	-8191	255	
952.985	1	1	0	0	0.18171	0.1517	0.30182	0.25004	0.16897	0.21833	0.15218	0.17641	0.37482	0.24691	0.076576	0.16815	0.06943	0.15209	0.23751	0.19973	-0.9375	-2.1708	-1.2083	-1.7292	-2.025	-1.3979	-2.2292	-1.8521	-1.3854	-2.1021	-1.5542	-1.5833	-2.2375	-1.3396	-1.7521	-2.1375	168.745	342.235	173.972	409.284	268.998	100.640	409.725	345.777	85.420	356.029	177.334	435.635	283.478	131.308	320.189	386.634	0.0005815	0.00049741	0.0001224	1363.9	5.1709e-06	4.3008e-06	1361.4	367.95	5.6767e-06	5.8995e-06	419.29	140.71	122.43	41.659	5.32e-06	51.686	0.0005765	0.00054466	0.00015632	1379.1	5.9581e-06	6.2974e-06	1380.5	374.53	6.1928e-06	6.0423e-06	427.9	143.63	125.05	42.897	6.1899e-06	53.026	150.728	173.713	181.009	91.756	218.367	234.326	91.685	96.359	218.272	219.135	95.707	99.808	100.740	105.107	226.371	104.493	-8191	255	
953.106	1	1	0	0	0.2286	0.321	0.041797	0.25612	0.22966	0.1468	0.27707	0.1721	0.25629	0.26584	0.28754	0.11267	0.32864	0.19236	0.008127	0.057181	-0.84583	-2.1188	-1.6042	-1.6125	-1.9479	-1.1854	-2.0583	-2.0667	-1.3021	-2.0708	-1.7563	-1.6542	-2.2458	-1.3542	-1.9	-2.1208	86.444	404.148	247.807	374.250	185.018	428.693	386.520	416.961	323.436	198.479	374.193	94.587	370.748	354.824	272.070	263.204	0.00057651	0.0005468	0.00015837	1360.8	4.3101e-06	4.9503e-06	1359.4	368.49	5.3532e-06	4.2304e-06	421.03	141.31	122.48	41.982	5.8991e-06	51.49	0.00058083	0.00053845	0.00015653	1378.7	5.9161e-06	6.2747e-06	1378.9	374.88	6.1303e-06	6.0131e-06	428.14	143.67	124.94	42.988	6.1428e-06	53.089	151.315	158.393	179.146	91.691	223.924	227.169	91.686	96.287	219.121	216.947	95.682	100.064	100.557	105.110	223.864	104.427	-8191	255	
953.202	1	1	0	0	0.22041	0.092414	0.04725	0.059194	0.12366	0.10997	0.1701	0.096208	0.39177	0.24768	0.21441	0.27876	0.11346	0.11489	0.22435	0.26202	-0.81042	-2.0563	-1.6583	-1.425	-2.0958	-1.2979	-1.7229	-2.275	-1.2062	-2.0563	-1.7333	-1.5146	-2.075	-1.3229	-1.625	-2.2417	149.134	308.058	162.876	270.237	327.576	293.213	387.207	119.505	315.097	332.908	353.232	377.498	127.041	150.465	322.311	94.037	0.00060664	0.00041031	9.8832e-05	1362.6	5.1209e-06	6.5597e-06	1358.4	368.49	5.5749e-06	4.7628e-06	419.35	140.29	122.12	41.789	6.3371e-06	51.734	0.00059192	0.00055566	0.00015804	1379	5.852e-06	6.2137e-06	1378.9	374.92	6.3484e-06	6.1424e-06	427.89	143.45	124.87	42.967	6.3467e-06	53.114	151.071	154.190	177.753	91.705	222.189	232.584	91.743	96.167	216.648	241.256	95.675	100.032	100.527	105.132	230.432	104.549	-8191	255	
953.298	1	1	0	0	0.16618	0.18585	0.1705	0.20965	0.22286	0.32531	0.16492	0.18133	0.16855	0.1643	0.32187	0.037943	0.099849	0.24628	0.10609	0.10716	-0.82708	-1.8083	-1.5771	-1.3396	-2.3	-1.4562	-1.5187	-2.2458	-1.4562	-1.7104	-2.1833	-1.1896	-2.0833	-1.7542	-1.3958	-2.1937	374.948	194.159	168.798	372.596	416.863	273.861	368.534	387.371	117.668	221.186	85.095	322.250	139.152	97.393	129.626	376.416	0.00057053	0.00071866	0.00011953	1368.8	4.9467e-06	3.7953e-06	1362.6	368.51	5.1892e-06	5.2044e-06	419.52	140.72	122.67	41.745	4.7326e-06	51.912	0.00058809	0.00057588	0.00015329	1381.6	6.0695e-06	6.0584e-06	1380.9	375.46	6.1861e-06	6.1948e-06	427.47	143.4	125.01	42.917	6.0764e-06	53.162	150.107	160.297	153.665	91.868	217.664	234.833	91.792	96.359	222.337	218.354	95.711	100.127	100.838	105.040	229.143	104.201	-8191	255	
953.394	1	1	0	0	0.2867	0.15753	0.129	0.14297	0.17338	0.19631	0.4887	0.39593	0.14238	0.1874	0.049541	0.33512	0.30632	0.26895	0.15102	0.13093	-0.87083	-1.8271	-1.9458	-1.3854	-2.1729	-1.5771	-1.6729	-2.45	-1.2333	-1.975	-2.1479	-1.2938	-2.1521	-1.6979	-1.3479	-2.1292	287.113	261.601	266.659	79.010	169.054	297.606	346.773	424.419	385.021	134.233	311.903	378.911	388.556	402.997	272.751	207.511	0.00061565	0.00050192	0.00012072	1365.7	4.8399e-06	4.5388e-06	1362.6	368.28	5.0853e-06	4.8349e-06	421.94	141.09	122.24	41.861	6.064e-06	51.833	0.00060555	0.00056019	0.00015418	1380.1	6.0259e-06	6.2555e-06	1381.2	375.31	6.2173e-06	6.2848e-06	428.37	143.74	125.11	42.949	6.5068e-06	53.232	150.108	172.349	156.684	91.846	231.652	230.506	91.537	96.386	228.199	216.004	95.929	99.873	101.005	104.936	223.637	104.303	-8191	255	
953.489	1	1	0	0	0.17752	0.28438	0.1241	0.34197	0.1938	0.075129	0.29701	0.24859	0.3077	0.11192	0.13387	0.2219	0.24334	0.33707	0.15111	0.16343	-0.94375	-1.7687	-1.9104	-1.3833	-2.0354	-1.7896	-1.5729	-2.25	-1.375	-1.7188	-2.1542	-1.2875	-2.1708	-1.8771	-1.175	-2.0958	290.500	94.534	80.583	397.768	436.110	123.653	399.722	369.961	181.555	102.869	339.808	161.636	94.145	375.778	322.511	285.114	0.00058417	0.00048417	0.00011619	1361.8	5.8188e-06	5.8311e-06	1357.5	367.97	5.338e-06	6.0321e-06	419.74	140.49	123.28	41.807	5.5772e-06	51.837	0.00058948	0.0005593	0.0001529	1379.1	6.1793e-06	6.0333e-06	1378.3	375.38	6.352e-06	6.2014e-06	428.14	143.56	125.36	43.057	6.3549e-06	53.282	151.410	153.674	181.296	91.612	219.620	223.762	91.396	96.214	213.940	218.804	95.598	100.051	100.675	105.306	218.277	104.460	-8191	255	
953.585	1	1	0	0	0.12849	0.3031	0.15206	0.37904	0.10772	0.12345	0.44445	0.351	0.19236	0.37696	0.11121	0.093431	0.14603	0.075312	0.024023	0.27542	-1.15	-1.3417	-2.0208	-1.2875	-1.9042	-1.8229	-1.4042	-2.2375	-1.5458	-1.5104	-2.1292	-1.2625	-1.7854	-1.925	-1.1125	-2.2438	138.968	327.100	270.144	374.120	380.195	103.940	389.430	282.249	173.184	318.612	304.204	392.176	392.374	312.610	328.587	342.815	0.00058463	0.00041308	0.00013418	1361.8	5.6291e-06	5.0256e-06	1360.4	370.1	5.7442e-06	5.0073e-06	419.78	140.94	122.24	41.967	4.3471e-06	51.628	0.00058526	0.00057614	0.00014806	1381.1	6.224e-06	6.2711e-06	1383.2	376.63	6.1923e-06	6.1668e-06	428.04	143.73	124.8	43.028	6.2497e-06	53.161	150.380	162.154	166.589	91.680	225.776	232.319	91.610	96.240	221.090	228.406	95.724	100.021	100.515	105.334	242.662	104.345	-8191	255	
953.705	1	1	0	0	0.17945	0.052471	0.18491	0.20919	0.086004	0.11709	0.082251	0.36158	0.03492	0.11045	0.18308	0.16187	0.067955	0.21431	0.054975	0.15266	-1.1417	-1.0938	-2.025	-1.3333	-1.6792	-1.9208	-1.4271	-2.0854	-1.6354	-1.4917	-2.3917	-1.3833	-1.8208	-2.0271	-1.1104	-2.0208	345.801	412.439	351.625	78.962	431.796	357.308	159.729	404.332	88.436	233.977	416.608	146.766	380.776	347.672	119.586	372.922	0.00059344	0.00069759	9.8509e-05	1363.5	5.7818e-06	4.9011e-06	1363.3	369.23	4.3073e-06	6.4566e-06	420.2	140.52	122.8	41.785	4.84e-06	51.649	0.00058477	0.00055166	0.00014376	1381.4	6.1656e-06	6.2938e-06	1380.9	375.35	6.0812e-06	6.2759e-06	428.45	143.39	125.1	42.973	6.2365e-06	53.141	151.331	162.799	174.055	91.783	231.870	227.211	91.402	96.549	224.182	239.453	95.845	100.035	100.649	105.284	226.194	104.624	-8191	255	
953.802	1	1	0	0	0.083371	0.40498	0.17777	0.24481	0.078218	0.13592	0.23567	0.15982	0.15094	0.14651	0.30854	0.25847	0.18754	0.51443	0.20898	0.14867	-1.2354	-1.2292	-2.0229	-1.6625	-1.4062	-2.1771	-1.4354	-2.1646	-1.7417	-1.2458	-2.0396	-1.4688	-1.5562	-2.1312	-1.2146	-1.9271	112.915	257.639	189.649	411.495	295.960	259.307	328.302	412.962	338.430	276.700	424.598	406.934	392.834	87.540	278.969	372.838	0.00061678	0.00045952	0.00011203	1361.4	4.9138e-06	4.4657e-06	1360.5	369.13	5.349e-06	6.0575e-06	420.13	139.85	122.78	41.774	5.1225e-06	51.67	0.00058829	0.00055198	0.00015445	1381.3	6.0884e-06	6.0751e-06	1381.6	375.56	6.011e-06	6.1227e-06	428.11	143.13	125.22	42.943	6.4059e-06	53.048	151.544	168.958	169.349	91.609	229.811	234.903	91.487	96.510	217.066	225.017	95.896	99.932	100.849	104.855	207.703	104.487	-8191	255	
953.898	1	1	0	0	0.32643	0.03925	0.1838	0.099492	0.043744	0.12715	0.069366	0.099725	0.18854	0.15478	0.28685	0.21474	0.14063	0.15666	0.078835	0.16211	-1.3604	-1.1083	-2.2521	-1.6125	-1.5688	-2.1604	-1.2188	-1.7125	-1.8333	-1.3271	-2.2271	-1.5917	-1.4479	-2.2229	-1.3208	-1.5792	327.632	187.765	359.661	397.876	247.771	132.706	367.005	379.320	273.564	168.601	121.655	309.896	416.732	78.930	170.983	362.706	0.00059948	0.00061352	0.00016905	1359.5	5.4521e-06	6.9451e-06	1364.6	368.41	4.7704e-06	6.9304e-06	419.74	140.22	122.21	41.876	5.1047e-06	51.749	0.00057315	0.00055487	0.00015093	1378.1	6.3259e-06	5.955e-06	1380.2	375.13	5.9624e-06	6.2324e-06	428.2	143.33	124.92	42.915	6.2732e-06	53.126	150.932	173.348	162.094	91.582	228.024	226.348	91.478	96.336	209.852	229.896	95.846	99.914	100.395	105.298	232.613	104.541	-8191	255	
953.969	1	1	0	0	0.15345	0.42111	0.10052	0.12576	0.21812	0.10511	0.42639	0.2676	0.12968	0.1589	0.21379	0.20215	0.19677	0.13273	0.14643	0.1607	-1.6437	-1.3333	-2.025	-1.8104	-1.1875	-2.1708	-1.4896	-1.6979	-2.0021	-1.0833	-1.9188	-1.7208	-1.5	-2.15	-1.3833	-1.8417	433.398	214.945	85.701	425.606	387.785	216.898	372.254	336.207	239.902	149.199	320.678	134.025	394.345	432.961	371.100	324.798	0.00058421	0.00057309	0.00015855	1357.6	3.1711e-06	5.6244e-06	1355.5	369.25	6.0812e-06	6.832e-06	418.52	140.64	122.45	41.905	3.8698e-06	51.778	0.0005721	0.00054556	0.00014708	1380	6.0585e-06	5.9628e-06	1378.2	375.19	5.8959e-06	6.2026e-06	427.4	143.37	125.01	42.946	6.174e-06	53.074	148.732	156.241	162.810	91.803	244.800	215.116	91.531	96.412	220.337	240.108	96.035	99.988	100.876	105.172	230.127	104.239	-8191	255	
954.090	1	1	0	0	0.25742	0.24482	0.28574	0.27342	0.21896	0.037744	0.29579	0.18516	0.1924	0.13044	0.15379	0.34798	0.25109	0.24559	0.1518	0.060579	-1.4479	-1.2479	-2.0417	-2.0979	-1.2854	-2.075	-1.7979	-1.5021	-2.0375	-1.3771	-1.9125	-1.8417	-1.1854	-2.0771	-1.2521	-1.65	343.776	198.889	360.156	401.293	114.621	176.049	393.869	373.836	150.604	426.240	353.328	394.755	94.223	370.629	272.395	357.804	0.0005972	0.00033735	0.00016567	1362.1	4.0554e-06	4.5555e-06	1366.1	369.71	5.699e-06	7.1717e-06	420.51	140.64	122.6	41.884	6.4335e-06	51.53	0.00058537	0.00056824	0.00015893	1380.9	6.2413e-06	6.1605e-06	1381.5	376.06	6.0459e-06	6.4141e-06	428.77	143.49	125.2	43.079	6.2601e-06	53.066	151.180	168.514	169.998	91.670	231.349	212.235	91.580	96.204	223.796	232.336	95.432	99.452	100.470	104.708	210.000	103.987	-8191	255	
954.186	1	1	0	0	0.24012	0.20355	0.19565	0.20422	0.21937	0.32883	0.28652	0.30791	0.13205	0.19373	0.1508	0.25983	0.28571	0.16569	0.0507	0.26491	-1.7104	-1.2833	-1.8229	-2.0542	-1.3563	-2.0354	-1.7563	-1.5521	-1.8875	-1.4062	-1.6417	-2.1396	-1.0667	-2.0458	-1.5458	-1.4208	106.023	183.466	168.390	86.303	303.660	370.103	384.261	431.902	361.822	299.334	341.367	398.962	89.001	348.592	302.317	323.132	0.00058196	0.00035512	0.00013843	1361.2	5.5153e-06	4.2433e-06	1361.3	368.24	4.8874e-06	5.1159e-06	419.83	140.77	122.17	41.984	5.0223e-06	51.876	0.00058089	0.00058346	0.00015509	1380.2	6.4635e-06	5.9885e-06	1379.7	375.55	6.118e-06	6.339e-06	428.31	143.63	124.95	43.068	6.5347e-06	53.256	151.035	159.718	163.214	91.046	211.703	226.556	91.161	95.931	225.090	217.543	95.434	99.697	100.125	104.751	231.611	104.072	-8191	255	
954.282	1	1	0	0	0.22575	0.11471	0.15627	0.14258	0.13475	0.2484	0.4516	0.062891	0.11089	0.29853	0.29912	0.11642	0.057268	0.16742	0.033621	0.0374	-1.8167	-1.3083	-1.6187	-2.1312	-1.0792	-2.0396	-1.9854	-1.5333	-2.0625	-1.4438	-1.7875	-2.2292	-1.3896	-2.0542	-1.7938	-1.3062	81.535	213.840	232.292	100.066	194.086	368.184	401.778	351.256	391.103	348.638	322.897	408.606	266.936	434.692	377.313	342.718	0.00054181	0.00056786	0.00011618	1359.5	4.8149e-06	6.8275e-06	1353.8	368.71	5.9619e-06	5.8432e-06	420.61	141.34	122.11	41.948	4.0152e-06	51.494	0.00057287	0.0005653	0.00016168	1379.7	6.2928e-06	6.0835e-06	1379.1	375.92	6.0254e-06	6.2205e-06	428.64	143.72	124.98	43.019	6.1367e-06	53.132	151.154	158.571	162.475	91.026	229.734	216.985	91.157	95.991	217.323	224.856	95.513	99.658	100.262	104.909	242.610	104.434	-8191	255	
954.378	1	1	0	0	0.040133	0.053819	0.29849	0.090174	0.28038	0.24383	0.39656	0.13105	0.2829	0.11787	0.11558	0.23002	0.094389	0.025721	0.12387	0.050236	-1.575	-1.3896	-1.5896	-2.3312	-1.3417	-1.75	-2.1125	-1.3417	-1.8792	-1.2917	-1.5063	-2.325	-1.2167	-1.9521	-1.8813	-1.3167	147.384	356.817	435.402	432.169	130.566	415.793	392.595	137.447	348.845	135.243	432.920	353.959	96.694	306.617	161.642	351.145	0.00059265	0.00043666	0.00010874	1361.3	4.3764e-06	4.7343e-06	1358	368.64	6.0132e-06	4.3665e-06	419.78	140.81	122.59	41.832	5.0457e-06	51.447	0.00058064	0.00056888	0.00015591	1383.3	6.4819e-06	5.7835e-06	1380.3	375.28	5.9501e-06	6.0345e-06	427.85	143.5	125.15	42.932	5.9054e-06	53.048	149.387	148.021	194.356	91.341	211.578	224.388	91.076	96.026	227.127	238.369	95.577	99.716	100.304	104.947	225.071	104.174	-8191	255	
954.497	1	1	0	0	0.15373	0.058582	0.19455	0.15114	0.15937	0.19	0.39158	0.22897	0.17868	0.1305	0.084666	0.24123	0.10479	0.21338	0.18443	0.3397	-1.4667	-1.5417	-1.4167	-2.075	-1.2958	-1.6333	-2.2625	-1.2729	-1.8417	-1.7	-1.5625	-2.1271	-1.3708	-1.8396	-1.9458	-1.2354	342.662	332.321	306.008	388.823	357.506	157.582	332.435	99.771	398.668	379.901	139.942	102.487	399.534	321.097	116.444	378.102	0.00057698	0.00054257	0.00011977	1365.3	4.5561e-06	4.1438e-06	1361	368.1	6.5583e-06	5.2578e-06	419.35	140.79	122.23	41.838	3.8763e-06	51.599	0.00058877	0.00054282	0.0001543	1381.2	6.0905e-06	6.1241e-06	1378.2	374.72	6.1457e-06	6.0256e-06	427.93	143.41	124.72	42.932	6.0644e-06	53.021	152.930	162.594	176.624	91.361	222.027	232.372	91.174	95.933	222.788	218.712	95.588	99.557	100.274	105.152	221.467	104.256	-8191	255	
954.569	1	1	0	0	0.099478	0.17487	0.12836	0.35038	0.23243	0.26556	0.3301	0.39544	0.26007	0.12205	0.31736	0.15156	0.16351	0.14443	0.19255	0.11254	-1.5646	-1.5792	-1.3271	-2.3479	-1.4312	-1.3792	-2.2021	-1.3458	-1.9562	-1.8146	-1.2875	-2.05	-1.4604	-1.4875	-2.075	-1.2854	289.589	78.543	297.925	398.089	89.510	105.170	342.487	402.684	282.202	359.253	349.520	409.017	383.692	78.962	326.937	412.601	0.0005692	0.00049131	0.00014731	1362.3	4.706e-06	4.4731e-06	1357.9	367.55	5.9937e-06	4.312e-06	420.64	140.53	121.93	41.626	4.835e-06	51.594	0.00056898	0.00054519	0.00015306	1378.6	6.1399e-06	6.0703e-06	1378.1	374.41	6.1411e-06	5.997e-06	428.12	143.37	124.65	42.893	5.9794e-06	53.086	150.578	166.169	172.708	91.423	211.298	235.659	91.373	96.096	225.351	248.554	95.343	99.942	100.302	105.003	216.676	103.999	-8191	255	
954.667	1	1	0	0	0.062311	0.21415	0.076289	0.28629	0.20982	0.22958	0.27068	0.20641	0.27413	0.14819	0.25054	0.17283	0.088343	0.11721	0.064286	0.30624	-1.4083	-1.7396	-1.375	-2.0833	-1.4354	-1.3875	-2.2562	-1.3979	-1.5146	-2.0833	-1.1708	-2.1542	-1.4688	-1.5187	-2.1396	-1.475	177.106	266.037	429.544	387.626	183.953	166.912	330.794	100.909	314.158	189.180	389.412	389.091	104.390	204.138	283.075	369.482	0.00057671	0.00052479	0.00011377	1358.8	5.021e-06	4.5223e-06	1361.6	368.47	5.1414e-06	4.3593e-06	417.72	140.4	122.04	41.754	5.8724e-06	51.44	0.00058511	0.00054392	0.00015714	1378.9	6.1656e-06	6.3141e-06	1378	374.96	6.0801e-06	5.9702e-06	426.84	143.16	124.9	42.801	5.9065e-06	52.938	148.455	156.127	165.306	91.496	219.421	239.052	91.267	96.065	223.880	237.384	95.507	100.015	100.374	105.127	231.121	104.349	-8191	255	
954.786	1	1	0	0	0.060165	0.2103	0.18672	0.17654	0.17365	0.15354	0.31665	0.32697	0.10249	0.22171	0.040618	0.44329	0.11049	0.34306	0.057512	0.11659	-1.1917	-1.8354	-1.2292	-2.2313	-1.6625	-1.1938	-2.4979	-1.5521	-1.5333	-1.975	-1.1396	-1.9396	-1.7292	-1.1292	-2.1396	-1.5417	409.854	334.899	414.978	102.587	337.699	324.399	344.433	89.063	422.579	401.071	132.383	412.066	394.771	361.405	330.768	373.228	0.00057436	0.00067457	0.00012878	1359.7	6.4014e-06	6.174e-06	1356.6	367.41	4.8363e-06	4.8259e-06	418.67	140.42	121.81	41.776	6.0164e-06	51.561	0.00058149	0.00054977	0.00015726	1377.5	6.038e-06	6.1892e-06	1376.4	373.94	6.3269e-06	5.9308e-06	426.2	143.14	124.54	42.883	6.0315e-06	53.068	150.891	170.063	156.776	91.597	220.941	240.162	91.355	96.048	220.643	215.259	95.730	99.893	100.463	104.984	224.604	104.255	-8191	255	
954.882	1	1	0	0	0.20855	0.25169	0.18467	0.32484	0.24799	0.067879	0.15995	0.33536	0.25954	0.075831	0.22926	0.12697	0.25926	0.27614	0.098236	0.13598	-1.3062	-1.8333	-1.2479	-2.0229	-1.7396	-1.2604	-2.1063	-1.5292	-1.5312	-2.1521	-1.3229	-1.8396	-1.8875	-1.1896	-1.9979	-1.6167	282.311	142.133	397.318	390.045	117.804	395.703	380.655	372.039	341.863	188.761	386.053	328.654	412.559	432.290	352.682	94.895	0.00058189	0.00068649	0.00013018	1359.2	4.913e-06	5.413e-06	1362.9	368.3	5.9668e-06	5.9822e-06	418.22	140.87	122.58	41.759	4.423e-06	51.554	0.00059302	0.00053545	0.00015635	1379.4	6.0548e-06	6.5537e-06	1379.1	375.21	6.3469e-06	6.1436e-06	427.41	143.47	125.24	43.004	6.1817e-06	53.118	149.982	165.154	182.676	91.813	237.419	230.591	91.267	95.928	210.728	222.834	95.747	99.827	100.324	104.904	242.494	104.467	-8191	255	
954.978	1	1	0	0	0.44585	0.24677	0.2683	0.14727	0.08626	0.03947	0.34095	0.13637	0.082539	0.038906	0.26939	0.15923	0.14053	0.13313	0.13584	0.28783	-0.83125	-1.8188	-1.2229	-1.8167	-1.8062	-1.2146	-2.1833	-1.4583	-1.3208	-2.1875	-1.3354	-1.7208	-2.1167	-1.3979	-1.8521	-1.8542	339.711	431.374	324.254	173.277	107.696	175.312	365.904	127.717	382.598	275.353	417.168	177.550	191.965	126.503	307.049	340.565	0.00057942	0.00047194	0.00015204	1359.8	4.4155e-06	6.6807e-06	1361.1	368.83	5.1524e-06	4.9506e-06	418.94	140.53	122.67	41.756	5.2141e-06	51.48	0.00059512	0.00051324	0.00015847	1380.2	6.1578e-06	6.2418e-06	1380	375.94	6.2747e-06	5.6979e-06	427.92	143.52	125	42.944	5.8703e-06	53.018	153.700	171.948	154.862	91.566	227.863	216.085	91.269	96.064	234.325	224.465	95.318	99.875	100.721	104.972	211.120	104.306	-8191	255	
955.099	1	1	0	0	0.24813	0.2086	0.088	0.1591	0.21497	0.14408	0.37661	0.21242	0.12658	0.20501	0.096068	0.23117	0.13581	0.040654	0.27362	0.12073	-0.79375	-2.1125	-1.5083	-1.575	-1.9062	-1.0104	-2.1146	-1.7687	-1.2563	-2.0021	-1.4917	-1.7083	-2.1188	-1.3167	-1.8083	-1.7104	187.893	147.693	380.221	249.666	236.925	299.891	398.495	308.479	130.797	378.580	98.974	112.843	388.096	252.779	373.529	98.808	0.00054957	0.00055083	0.00011959	1362	6.457e-06	3.8052e-06	1359.7	368.05	4.8405e-06	4.649e-06	418.41	140.36	122.22	41.651	5.9607e-06	51.71	0.0005719	0.00051792	0.00015299	1381	5.9949e-06	5.9986e-06	1378.9	375.09	5.8697e-06	6.0208e-06	427.67	143.46	124.59	42.844	6.0962e-06	53.098	150.168	155.825	180.019	91.555	218.969	210.384	91.207	96.259	216.150	241.539	95.479	99.776	100.276	104.736	219.602	104.383	-8191	255	
955.195	1	1	0	0	0.026175	0.12141	0.11183	0.23275	0.1208	0.32326	0.18387	0.52237	0.22429	0.23005	0.23071	0.28774	0.21416	0.28815	0.11965	0.22953	-0.75417	-1.9854	-1.35	-1.6021	-2.1021	-1.2479	-2.1667	-1.8417	-1.0354	-1.9958	-1.6708	-1.5833	-2.0854	-1.3708	-1.7417	-2.1021	321.712	252.278	394.360	410.363	242.004	276.278	353.595	365.493	233.724	292.516	404.958	256.552	394.353	86.409	267.799	327.538	0.00059167	0.00060355	0.0001496	1365.5	3.92e-06	4.039e-06	1360.9	368.45	6.9267e-06	7.396e-06	419.41	140.4	121.83	41.957	5.1619e-06	51.487	0.00059498	0.00055708	0.00016317	1379	5.9981e-06	6.2251e-06	1378.8	374.66	6.2598e-06	6.1299e-06	427.4	143.23	124.69	42.969	5.9958e-06	53.022	149.894	145.362	178.812	91.569	217.320	242.971	91.530	96.100	226.183	216.176	95.581	99.924	100.236	105.069	230.812	104.123	-8191	255	
955.267	1	1	0	0	0.12277	0.18952	0.377	0.14072	0.36881	0.18006	0.12704	0.20407	0.15512	0.17928	0.42316	0.09972	0.047	0.28835	0.10966	0.15708	-0.73125	-1.8396	-1.45	-1.4604	-2.0771	-1.3375	-1.8979	-2.1229	-1.0229	-2.0042	-1.6167	-1.4354	-2.0583	-1.5063	-1.7167	-2.2854	284.799	433.781	412.503	428.422	320.956	189.663	346.123	339.484	283.553	218.213	394.291	332.844	127.157	392.074	161.511	253.977	0.0005635	0.00058849	0.00016634	1358.6	3.6934e-06	4.6278e-06	1360	366.35	6.0992e-06	4.888e-06	419.13	139.98	122.02	41.886	5.1599e-06	51.401	0.00058265	0.00054108	0.00015963	1378.7	6.0711e-06	6.1205e-06	1378.1	374.21	6.3105e-06	5.8468e-06	427.62	143.13	124.63	42.839	6.06e-06	52.98	151.527	164.565	177.439	91.620	234.793	209.052	91.479	95.989	218.060	227.907	95.758	100.187	100.271	104.912	221.556	104.085	-8191	255	
955.387	1	1	0	0	0.14626	0.090738	0.094164	0.073697	0.16311	0.19886	0.34266	0.18128	0.30228	0.063442	0.39188	0.04651	0.16912	0.37738	0.18995	0.14637	-0.74167	-2.0083	-1.4667	-1.4542	-1.9438	-1.4125	-1.7667	-2.2229	-1.0979	-2.0354	-1.9125	-1.2563	-2.2833	-1.5542	-1.2687	-2.1583	296.951	345.359	422.225	365.817	99.399	338.162	386.232	425.664	186.485	432.699	411.102	432.646	152.562	104.894	391.781	84.885	0.000577	0.00052566	0.00013893	1360.9	4.8072e-06	3.8158e-06	1363.7	368.68	6.1418e-06	4.8776e-06	419.55	141.16	122.01	41.719	5.1874e-06	51.48	0.00057772	0.0005176	0.00014763	1379.4	5.9261e-06	6.1779e-06	1379.1	374.56	6.244e-06	5.9529e-06	426.7	143.39	124.9	42.862	6.134e-06	53.046	151.354	166.276	164.966	91.575	227.651	216.774	91.458	96.266	223.558	231.306	95.564	99.877	100.539	105.059	216.967	104.272	-8191	255	
955.482	1	1	0	0	0.075303	0.078461	0.023332	0.20695	0.16364	0.050857	0.36138	0.35994	0.35225	0.10381	0.080213	0.12654	0.11911	0.10635	0.2868	0.20891	-0.89583	-1.7375	-1.7396	-1.4729	-1.9083	-1.6229	-1.6021	-2.3854	-1.2125	-1.6187	-2.1	-1.3208	-1.9062	-1.5938	-1.2271	-2.1792	304.510	383.560	171.272	94.285	108.477	280.146	381.036	382.904	351.013	324.209	350.391	105.360	238.837	360.651	235.419	372.360	0.00056799	0.00047461	0.00015663	1362.2	4.5343e-06	3.6696e-06	1360.6	369.2	6.3172e-06	4.4197e-06	420.01	140.51	121.64	41.742	5.0653e-06	51.875	0.0005759	0.00054893	0.00014992	1380.1	6.1115e-06	5.8032e-06	1379.8	375.22	6.2972e-06	6.0989e-06	428.2	143.47	124.77	43.002	6.2124e-06	53.213	150.589	154.131	182.326	91.607	229.206	235.955	91.525	96.129	216.390	221.871	95.741	99.835	100.616	104.812	219.464	104.106	-8191	255	
955.578	1	1	0	0	0.20008	0.13477	0.31888	0.058852	0.030702	0.50456	0.30628	0.22706	0.14134	0.054992	0.16493	0.26231	0.24831	0.23547	0.075344	0.076818	-0.82083	-1.7583	-1.9583	-1.3854	-1.6792	-1.6083	-1.5896	-2.3063	-1.2479	-1.7354	-2.1562	-1.4146	-1.9375	-1.9042	-1.5167	-2.1021	222.818	289.313	87.550	159.203	196.786	93.287	365.702	79.198	277.781	339.965	383.440	381.076	426.077	355.712	374.724	350.939	0.00058359	0.000523	0.00011203	1365.8	4.3267e-06	5.3005e-06	1361.9	369.95	5.1729e-06	5.1889e-06	420.41	140.22	122.11	41.806	5.5154e-06	51.67	0.00057618	0.00055629	0.00015172	1383.7	6.2387e-06	6.0189e-06	1381.2	375.6	6.01e-06	5.972e-06	428.78	143.38	125.13	42.968	6.0638e-06	53.221	150.308	159.267	167.373	91.620	222.994	243.747	91.438	96.091	232.712	227.493	95.446	99.903	100.759	104.701	237.766	104.220	-8191	255	
955.674	1	1	0	0	0.10906	0.23876	0.15789	0.075647	0.19385	0.088506	0.10815	0.41201	0.15282	0.0651	0.22452	0.24781	0.14515	0.10481	0.13364	0.36035	-0.9625	-1.4354	-2.175	-1.4771	-1.8479	-1.8417	-1.1458	-2.3083	-1.375	-1.35	-2.175	-1.2646	-1.9104	-1.95	-1.2125	-2.2833	402.974	142.015	252.853	353.043	232.014	157.473	223.827	368.918	104.006	189.186	113.022	89.205	164.890	85.397	256.919	370.923	0.00056902	0.00051074	0.00012989	1361.5	5.1072e-06	4.7601e-06	1362.6	369.41	5.0969e-06	5.2373e-06	421.51	140.65	122.62	41.755	5.4561e-06	51.824	0.00057633	0.00056198	0.0001472	1384.1	5.9828e-06	5.9e-06	1382	375.61	6.1078e-06	6.3527e-06	428.9	143.54	125.34	42.938	6.3248e-06	53.175	150.057	170.692	169.235	91.743	226.805	224.928	91.526	96.197	232.203	201.154	95.641	99.701	100.787	104.883	227.540	104.217	-8191	255	
955.770	1	1	0	0	0.18604	0.12356	0.11056	0.36941	0.14614	0.099907	0.25823	0.24513	0.21098	0.13884	0.3094	0.18818	0.15089	0.28344	0.181	0.28894	-1.0708	-1.4146	-2.1083	-1.6063	-1.6104	-1.9271	-1.4	-2.3458	-1.5479	-1.2687	-2.3146	-1.6354	-1.9562	-2.0854	-1.3292	-1.9854	198.360	206.501	327.619	430.662	170.792	222.168	415.948	394.733	395.002	304.665	84.552	118.609	323.360	401.460	94.825	429.302	0.00056901	0.00050641	0.00012592	1364.8	4.1381e-06	5.8919e-06	1363.4	369.8	6.8231e-06	7.0222e-06	420.89	140.53	122.87	41.703	7.0307e-06	51.588	0.00057429	0.00055572	0.00015247	1383	6.0889e-06	5.7734e-06	1382.7	375.66	6.2772e-06	5.9869e-06	428.55	143.49	125.28	42.987	6.327e-06	53.125	149.958	173.204	172.674	91.470	226.187	207.753	91.533	96.276	215.827	218.847	95.569	100.061	100.691	105.168	235.354	104.521	-8191	255	
955.866	1	1	0	0	0.23555	0.20328	0.080509	0.2897	0.20223	0.10421	0.33536	0.13091	0.21404	0.20378	0.057004	0.094816	0.27275	0.11797	0.11083	0.26464	-1.4125	-0.95417	-1.9937	-1.45	-1.4562	-2.15	-1.2062	-2.1437	-1.725	-1.2687	-2.2	-1.2	-1.4604	-2.1437	-1.2625	-1.8687	200.260	312.745	423.869	421.236	189.598	342.759	425.589	364.860	339.580	167.742	207.530	335.319	317.598	291.570	136.736	353.674	0.00057524	0.00047508	0.00013752	1356.2	5.3797e-06	4.2164e-06	1361.4	369.55	6.3237e-06	6.1408e-06	418.41	140.6	122.12	41.876	5.5424e-06	51.478	0.00055575	0.00056514	0.00015259	1378.9	6.0574e-06	5.6802e-06	1382.3	375.7	6.139e-06	5.9708e-06	427.7	143.3	124.85	42.984	6.3659e-06	53.099	154.270	156.285	165.760	91.647	224.853	227.564	91.495	96.339	212.618	230.277	96.028	99.716	100.608	105.033	223.902	104.292	-8191	255	
955.962	1	1	0	0	0.066224	0.1708	0.17479	0.064285	0.22174	0.09328	0.39347	0.4497	0.33413	0.14041	0.3475	0.33218	0.15169	0.19152	0.32464	0.11201	-1.2625	-0.925	-2.0542	-1.575	-1.3375	-1.9	-1.5063	-1.8979	-1.8188	-1.1771	-2.0833	-1.5063	-1.3563	-2.2396	-1.4062	-1.9292	325.787	149.907	256.612	347.866	333.130	286.087	329.015	380.464	432.391	394.599	424.309	399.098	154.564	433.129	308.830	250.030	0.00057143	0.00058788	0.0001402	1361.5	5.5842e-06	5.2857e-06	1361.8	368.32	6.4965e-06	5.3346e-06	420.41	140.04	122.29	41.751	6.1078e-06	51.67	0.00055997	0.00055035	0.0001468	1380.5	6.121e-06	5.8015e-06	1378.3	374.48	5.7756e-06	6.0423e-06	428.04	143.03	124.65	42.9	5.9947e-06	53.041	151.844	157.471	163.184	91.640	227.947	237.957	91.400	96.285	211.890	231.034	95.392	99.772	100.625	105.079	234.276	104.367	-8191	255	
956.058	1	1	0	0	0.25847	0.030827	0.25815	0.24426	0.22265	0.30583	0.30718	0.34549	0.12302	0.17063	0.23904	0.45577	0.047722	0.11173	0.16605	0.34599	-1.4396	-1.0958	-1.9583	-1.5667	-1.2854	-2.175	-1.5083	-1.8104	-2.0729	-1.3625	-1.9375	-1.7667	-1.325	-2.05	-1.175	-1.7938	362.353	325.260	184.307	213.887	436.337	111.058	408.509	367.558	429.669	331.653	423.576	385.468	355.152	436.462	357.568	300.773	0.0005842	0.00052493	0.00012318	1357.9	4.8913e-06	6.2924e-06	1359.3	367.21	5.2949e-06	3.219e-06	419.49	140.25	121.84	41.745	4.2865e-06	51.3	0.00058205	0.00051887	0.00014438	1378.8	5.8804e-06	5.8672e-06	1379.3	373.91	5.8298e-06	6.199e-06	426.77	143.09	124.62	42.899	5.8785e-06	52.914	150.424	164.551	160.770	91.542	228.218	214.677	91.360	96.213	219.189	212.497	95.535	99.642	100.629	104.725	226.008	103.808	-8191	255	
956.179	1	1	0	0	0.098396	0.085991	0.31538	0.2158	0.093695	0.33337	0.14032	0.12882	0.2919	0.027372	0.33389	0.22604	0.22204	0.36456	0.12245	0.18032	-1.2812	-1.1083	-1.9708	-1.9208	-1.1583	-2.1271	-1.6375	-1.6146	-2.1729	-0.9875	-1.9625	-1.8917	-1.3229	-2.0021	-1.2208	-1.6063	363.170	307.215	352.048	98.280	198.665	136.840	354.027	167.407	270.969	392.259	381.691	118.676	395.854	434.467	267.146	319.121	0.00056946	0.00037947	0.00012121	1359.4	6.6484e-06	6.4461e-06	1356.6	368.54	5.3287e-06	5.5528e-06	419.06	140.56	122.69	41.839	6.1908e-06	51.495	0.00056805	0.00052603	0.00014879	1376.9	6.1136e-06	5.9078e-06	1377.9	374.55	5.7382e-06	6.0333e-06	427.18	143.34	124.85	42.895	6.0364e-06	53.078	149.070	169.499	160.869	91.286	230.031	215.236	91.217	96.164	207.976	220.977	95.582	99.642	100.550	104.997	231.598	104.147	-8191	255	
956.275	1	1	0	0	0.13511	0.084144	0.060965	0.085287	0.28669	0.20789	0.018361	0.21057	0.41661	0.14957	0.30534	0.11398	0.27462	0.14491	0.11095	0.086767	-1.575	-1.2417	-1.8271	-1.9062	-1.0021	-2.0938	-1.675	-1.5083	-2.15	-1.1646	-1.85	-2.0146	-1.2875	-2.1375	-1.7458	-1.4771	287.987	406.062	403.582	372.508	188.660	93.800	304.382	327.152	262.600	321.781	387.081	83.040	344.103	366.353	290.338	322.736	0.00058556	0.00062945	0.00013859	1358.2	3.9701e-06	5.2079e-06	1355.6	367.15	5.1964e-06	5.0466e-06	418.66	139.53	122.16	41.704	5.1442e-06	51.322	0.00057006	0.0005375	0.00014945	1378.6	6.411e-06	5.8947e-06	1376.9	374.61	5.6931e-06	6.2276e-06	426.9	143.09	124.68	42.904	6.0073e-06	52.972	150.884	160.604	173.087	91.300	232.421	233.116	91.329	96.166	216.679	225.163	95.587	99.724	100.408	104.879	215.765	104.168	-8191	255	
956.371	1	1	0	0	0.05382	0.19249	0.29608	0.32458	0.25443	0.028688	0.31576	0.092343	0.064765	0.22271	0.33188	0.11352	0.33822	0.1545	0.24668	0.096278	-1.6979	-1.2938	-1.6979	-2.1562	-0.98125	-1.7812	-1.8521	-1.5021	-2.1292	-1.1104	-1.7729	-1.9458	-1.3792	-2.0917	-1.8708	-1.4125	274.718	145.119	117.063	86.672	306.994	321.562	336.155	256.571	245.687	89.329	385.833	117.680	359.164	95.281	368.712	186.558	0.00057513	0.00039931	0.00016073	1365.8	5.1135e-06	6.4644e-06	1360.7	367.53	5.0175e-06	5.0612e-06	419.51	140.42	122.9	41.9	4.8349e-06	51.678	0.00057981	0.0005495	0.00015542	1381.4	6.1152e-06	5.8935e-06	1379.1	374.52	5.7827e-06	5.9839e-06	426.88	143.45	124.92	42.996	5.9279e-06	53.068	147.945	149.066	166.644	91.371	223.069	226.565	91.350	96.102	223.074	228.752	95.473	99.720	100.592	104.892	223.405	104.514	-8191	255	
956.468	1	1	0	0	0.092959	0.079717	0.14488	0.32784	0.16315	0.076558	0.37403	0.24263	0.22296	0.22585	0.16334	0.2892	0.37496	0.20838	0.19232	0.11299	-1.7188	-1.2687	-1.4646	-2.05	-1.275	-1.9521	-2.1813	-1.3833	-1.9708	-1.4896	-1.4813	-2.2229	-1.3083	-1.9792	-1.7375	-1.1812	352.936	96.203	365.628	426.223	106.784	390.805	382.918	349.047	150.650	236.104	399.523	378.049	375.496	343.391	265.214	141.697	0.00061559	0.00050394	0.00015288	1363.5	5.455e-06	4.9213e-06	1361.4	368.98	6.682e-06	6.4825e-06	419.69	140.32	122.19	41.732	5.613e-06	51.534	0.00056811	0.00052761	0.00015419	1379.8	6.2008e-06	5.9586e-06	1378.5	374.93	5.9655e-06	6.1287e-06	427.71	143.22	124.65	42.94	5.9273e-06	53.11	151.774	173.295	177.095	91.496	226.323	225.973	91.367	96.222	227.956	212.676	95.477	100.014	100.542	104.843	237.740	104.019	-8191	255	
956.562	1	1	0	0	0.3587	0.17389	0.13526	0.081466	0.14347	0.084425	0.13735	0.18829	0.29393	0.2067	0.30842	0.10591	0.088508	0.25017	0.16993	0.15971	-1.6521	-1.4833	-1.2854	-2.3458	-1.275	-1.7625	-2.0896	-1.1021	-1.9354	-1.5042	-1.3312	-2.3083	-1.5167	-2.05	-1.8646	-1.2687	259.109	160.200	382.439	322.437	300.790	269.507	282.553	434.711	220.511	219.379	375.561	306.406	356.623	102.932	350.365	341.777	0.00058482	0.00046077	0.00015153	1361.8	6.4316e-06	6.1116e-06	1357.5	369.23	5.0538e-06	5.697e-06	420.03	141	122.17	41.735	5.8329e-06	51.442	0.00056754	0.00052234	0.00015774	1379.1	6.0805e-06	5.9938e-06	1378.7	374.73	5.8395e-06	6.0679e-06	427.51	143.45	124.95	42.94	5.7963e-06	53.009	151.343	157.798	177.502	91.389	228.867	225.216	91.313	96.069	215.067	232.019	95.818	99.529	100.604	105.032	229.284	104.315	-8191	255	
956.658	1	1	0	0	0.14309	0.165	0.19757	0.18668	0.20524	0.13249	0.23435	0.39765	0.2793	0.16082	0.22891	0.26921	0.20618	0.16603	0.11504	0.22717	-1.6979	-1.7687	-1.4562	-2.5208	-1.3042	-1.6875	-2.3146	-1.4188	-2.0042	-1.8521	-1.5792	-2.35	-1.6	-1.8604	-2.1792	-1.275	254.530	119.094	313.778	386.698	319.755	245.843	377.123	378.105	315.563	218.694	391.164	411.649	292.793	104.025	258.969	401.416	0.00057198	0.00056089	0.00010946	1355.8	4.5896e-06	6.4588e-06	1363	368.91	5.4755e-06	5.7846e-06	418.56	140.42	121.7	41.782	6.0822e-06	51.427	0.00055623	0.00055419	0.00015397	1379.8	6.0264e-06	6.0315e-06	1381.1	374.35	5.7443e-06	5.963e-06	427.15	143.32	124.64	42.903	6.0035e-06	52.939	150.388	164.376	179.102	91.485	213.715	214.304	91.256	95.919	232.760	222.825	95.636	99.885	100.322	104.945	217.067	104.209	-8191	255	
956.779	1	1	0	0	0.34968	0.23272	0.13701	0.12039	0.20706	0.29237	0.41719	0.21827	0.10227	0.20868	0.41898	0.38732	0.040062	0.54309	0.12998	0.10457	-1.7333	-1.7979	-1.3021	-2.3896	-1.4875	-1.4917	-2.4771	-1.4562	-1.9167	-1.8521	-1.3312	-2.2292	-1.8042	-1.6979	-2.0333	-1.2437	254.130	268.430	402.938	408.040	263.636	350.214	405.755	386.348	92.283	205.305	379.141	332.796	405.740	341.837	294.822	404.485	0.00058528	0.0004621	0.00011614	1354.5	5.2066e-06	5.3743e-06	1355.1	365.88	5.0334e-06	5.7573e-06	418.62	140.76	122.15	41.881	4.7497e-06	51.569	0.00058883	0.0005325	0.00015131	1376.7	6.3012e-06	5.9699e-06	1376.5	373.54	5.9025e-06	5.7706e-06	426.58	143.32	124.76	42.884	5.8939e-06	53.012	148.725	169.460	169.820	91.396	215.839	231.221	91.411	95.989	210.619	220.449	95.522	99.921	100.288	105.108	222.205	104.282	-8191	255	
956.875	1	1	0	0	0.20389	0.15654	0.093049	0.59394	0.21232	0.061281	0.31954	0.24377	0.034888	0.20363	0.11895	0.18355	0.2058	0.40282	0.19482	0.33884	-1.4083	-2.0542	-1.3458	-2.1292	-1.5375	-1.3312	-2.2708	-1.5979	-1.7583	-2.0583	-1.3354	-2.425	-1.7062	-1.4854	-2.1688	-1.5229	426.527	293.379	192.222	368.316	163.970	202.195	420.864	392.306	167.215	91.566	406.015	353.584	359.978	403.756	436.936	412.147	0.00060527	0.00056598	0.0001727	1366.1	5.3819e-06	4.795e-06	1358.7	367.68	5.5571e-06	4.4983e-06	418.19	140.44	121.67	41.441	4.8571e-06	51.632	0.00058554	0.00053877	0.00015595	1379.8	6.0233e-06	6.0685e-06	1378.4	374.04	5.9839e-06	5.9547e-06	426.8	143.08	124.47	42.722	5.9821e-06	52.992	150.138	159.862	162.288	91.435	219.436	236.648	91.460	96.048	229.369	231.282	95.656	99.820	100.513	104.958	234.839	103.988	-8191	255	
956.971	1	1	0	0	0.087749	0.11293	0.018092	0.28738	0.19241	0.037587	0.17396	0.31589	0.22962	0.067421	0.35935	0.13299	0.23872	0.054218	0.056459	0.19414	-1.3771	-1.9375	-1.3625	-2.1979	-1.9167	-1.3292	-2.2396	-1.6521	-1.4875	-2.1688	-1.4896	-1.9354	-2.0438	-1.3417	-2.1021	-1.5979	323.890	155.244	107.458	373.818	334.568	240.292	91.859	402.270	262.815	394.688	435.580	422.618	306.178	90.640	340.533	92.821	0.00058314	0.00037225	0.00015427	1359.5	4.1162e-06	5.0832e-06	1356.3	365.7	5.8033e-06	5.8965e-06	417.81	139.47	121.78	41.35	4.1337e-06	51.25	0.00058239	0.00053303	0.00015615	1377.6	5.7942e-06	6.2669e-06	1376.2	373.29	5.9522e-06	5.8093e-06	426.76	142.77	124.3	42.601	5.8363e-06	52.764	151.418	145.255	162.679	91.576	231.642	227.536	91.417	95.999	216.284	225.680	95.775	100.041	100.383	104.889	226.606	103.853	-8191	255	
957.067	1	1	0	0	0.084513	0.19537	0.069745	0.1148	0.10716	0.36826	0.35931	0.172	0.29821	0.13267	0.18942	0.31118	0.15587	0.225	0.17128	0.097107	-1.0125	-2.125	-1.3042	-2.1896	-1.8896	-1.3479	-2.5125	-1.6417	-1.2833	-2.3208	-1.5042	-1.8875	-1.8792	-1.3521	-1.9979	-1.8479	152.855	294.141	228.022	405.861	361.648	137.982	370.060	430.276	96.964	110.046	241.057	416.051	321.841	427.732	425.277	364.135	0.00059209	0.00049605	0.00013752	1354.8	3.7701e-06	5.4897e-06	1358.4	366.28	5.4077e-06	6.3165e-06	420.33	139.46	121.97	41.498	5.7531e-06	51.598	0.00058934	0.00052808	0.00015406	1373.6	5.8289e-06	5.9574e-06	1375.9	372.85	5.9563e-06	5.6055e-06	426.91	142.88	124.36	42.734	5.9492e-06	52.926	151.987	176.805	154.726	91.509	217.370	234.333	91.296	95.822	220.063	234.230	95.487	99.634	100.458	104.791	241.619	104.235	-8191	255	
957.163	1	1	0	0	0.22412	0.39373	0.076871	0.12603	0.30598	0.27704	0.28071	0.35694	0.095337	0.11984	0.27909	0.29249	0.087951	0.25822	0.10802	0.14626	-0.93125	-2.0896	-1.575	-1.9479	-2.0812	-1.2458	-2.2833	-1.875	-1.3208	-2.225	-1.5479	-1.5833	-2.3667	-1.3896	-1.8292	-1.8854	343.363	94.017	125.716	278.429	122.414	134.673	391.477	410.155	329.028	354.218	87.321	387.335	325.025	402.805	412.323	410.023	0.00057297	0.00049615	0.0001249	1359.9	5.2765e-06	4.2218e-06	1360.1	367.41	5.11e-06	5.8998e-06	417.24	140.03	121.97	41.431	4.8446e-06	51.477	0.00057397	0.00052887	0.00015393	1378.1	5.7532e-06	6.0177e-06	1377.7	373.8	5.9435e-06	5.8188e-06	425.95	142.58	124.35	42.678	6.0238e-06	52.863	149.708	165.861	183.320	91.773	223.457	231.584	91.379	96.065	215.264	225.918	95.518	100.053	100.247	104.877	211.717	104.322	-8191	255	
#DATA ENDS
