BOXY.EXE: ISS Imagent and Oximeter Data Acquisition Program Version 0.80
Ascii Record File

#ACQ INFORMATION
2  Detector Channels 
16  External MUX Channels 
1  Auxiliary Channels 
5000  Waveform (CCF) Frequency (Hz)
1  Waveforms Skipped 
30  Waveforms Averaged 
1  Cycles Averaged 
16  Acquisitions per Waveform 
10.0806  Updata Rate (Hz) 

#FILE INFORMATION
TRUE -- External MUX Channel results are PARSED.
FALSE -- AC DC and Phase are NOT grouped.
TRUE -- Companion Program Settings File CREATED.
FALSE -- AC data not excluded
FALSE -- DC data not excluded
FALSE -- Phase data not excluded
FALSE -- Auxillary Chn. data not excluded
Tab delimiters

#CALIBRATION STATE
TRUE -- Waveform Calibration Values APPLIED.


#AUX CALIBRATION VALUES
Val Type	aux-1	

Term	1.0000e+00	
Factor	0.0000e+00	


#WF CALIBRATION VALUES
A = Detector Channel
Val Type	A-AC1	A-AC2	A-AC3	A-AC4	A-AC5	A-AC6	A-AC7	A-AC8	A-AC9	A-AC10	A-AC11	A-AC12	A-AC13	A-AC14	A-AC15	A-AC16	A-DC1	A-DC2	A-DC3	A-DC4	A-DC5	A-DC6	A-DC7	A-DC8	A-DC9	A-DC10	A-DC11	A-DC12	A-DC13	A-DC14	A-DC15	A-DC16	A-Ph1	A-Ph2	A-Ph3	A-Ph4	A-Ph5	A-Ph6	A-Ph7	A-Ph8	A-Ph9	A-Ph10	A-Ph11	A-Ph12	A-Ph13	A-Ph14	A-Ph15	A-Ph16	

Term	0.00000e+00	0.00000e+00	0.00000e+00	0.00000e+00	0.00000e+00	0.00000e+00	0.00000e+00	0.00000e+00	0.00000e+00	0.00000e+00	0.00000e+00	0.00000e+00	0.00000e+00	0.00000e+00	0.00000e+00	0.00000e+00	0.00000e+00	0.00000e+00	0.00000e+00	0.00000e+00	0.00000e+00	0.00000e+00	0.00000e+00	0.00000e+00	0.00000e+00	0.00000e+00	0.00000e+00	0.00000e+00	0.00000e+00	0.00000e+00	0.00000e+00	0.00000e+00	0.00000e+00	0.00000e+00	0.00000e+00	0.00000e+00	0.00000e+00	0.00000e+00	0.00000e+00	0.00000e+00	0.00000e+00	0.00000e+00	0.00000e+00	0.00000e+00	0.00000e+00	0.00000e+00	0.00000e+00	0.00000e+00	
Factor	1.00000e+00	1.00000e+00	1.00000e+00	1.00000e+00	1.00000e+00	1.00000e+00	1.00000e+00	1.00000e+00	1.00000e+00	1.00000e+00	1.00000e+00	1.00000e+00	1.00000e+00	1.00000e+00	1.00000e+00	1.00000e+00	1.00000e+00	1.00000e+00	1.00000e+00	1.00000e+00	1.00000e+00	1.00000e+00	1.00000e+00	1.00000e+00	1.00000e+00	1.00000e+00	1.00000e+00	1.00000e+00	1.00000e+00	1.00000e+00	1.00000e+00	1.00000e+00	X	X	X	X	X	X	X	X	X	X	X	X	X	X	X	X	

B = Detector Channel
Val Type	B-AC1	B-AC2	B-AC3	B-AC4	B-AC5	B-AC6	B-AC7	B-AC8	B-AC9	B-AC10	B-AC11	B-AC12	B-AC13	B-AC14	B-AC15	B-AC16	B-DC1	B-DC2	B-DC3	B-DC4	B-DC5	B-DC6	B-DC7	B-DC8	B-DC9	B-DC10	B-DC11	B-DC12	B-DC13	B-DC14	B-DC15	B-DC16	B-Ph1	B-Ph2	B-Ph3	B-Ph4	B-Ph5	B-Ph6	B-Ph7	B-Ph8	B-Ph9	B-Ph10	B-Ph11	B-Ph12	B-Ph13	B-Ph14	B-Ph15	B-Ph16	

Term	0.00000e+00	0.00000e+00	0.00000e+00	0.00000e+00	0.00000e+00	0.00000e+00	0.00000e+00	0.00000e+00	0.00000e+00	0.00000e+00	0.00000e+00	0.00000e+00	0.00000e+00	0.00000e+00	0.00000e+00	0.00000e+00	0.00000e+00	0.00000e+00	0.00000e+00	0.00000e+00	0.00000e+00	0.00000e+00	0.00000e+00	0.00000e+00	0.00000e+00	0.00000e+00	0.00000e+00	0.00000e+00	0.00000e+00	0.00000e+00	0.00000e+00	0.00000e+00	-9.29852e+01	-1.33296e+02	-1.17972e+02	-1.83514e+02	-6.10041e+01	-6.68737e+01	-1.55681e+02	-1.62015e+02	-6.37700e+01	-6.08445e+01	-1.71225e+02	-1.69747e+02	-1.80595e+02	-1.76656e+02	-4.62200e+01	-1.49255e+02	
Factor	1.72239e-05	1.51077e-04	3.90219e-05	1.52671e-01	1.29822e-06	1.61351e-06	1.77629e-01	5.79230e-02	1.04663e-06	1.52934e-06	9.62527e-02	2.99250e-02	2.79958e-02	9.77860e-03	1.33337e-06	1.40708e-02	2.65951e-06	2.92866e-06	8.15356e-07	7.75076e-02	3.17008e-08	3.21495e-08	8.47087e-02	2.93650e-02	3.17257e-08	3.22051e-08	4.70433e-02	1.47731e-02	1.43622e-02	4.97118e-03	3.19154e-08	6.90677e-03	X	X	X	X	X	X	X	X	X	X	X	X	X	X	X	X	



#DISTANCE SETTINGS
A = Detector Channel
A-1	A-2	A-3	A-4	A-5	A-6	A-7	A-8	A-9	A-10	A-11	A-12	A-13	A-14	A-15	A-16	

2.5000e+00	3.0000e+00	2.5000e+00	3.0000e+00	2.0000e+00	3.0000e+00	1.5000e+00	3.0000e+00	3.0000e+00	3.0000e+00	3.0000e+00	3.0000e+00	3.0000e+00	3.0000e+00	1.5000e+00	3.0000e+00	

B = Detector Channel
B-1	B-2	B-3	B-4	B-5	B-6	B-7	B-8	B-9	B-10	B-11	B-12	B-13	B-14	B-15	B-16	

1.0000e+01	1.0000e+01	1.0000e+01	1.4400e+00	1.0000e+01	1.0000e+01	1.5100e+00	1.9400e+00	1.0000e+01	1.0000e+01	1.9900e+00	2.4900e+00	2.4100e+00	2.9000e+00	1.0000e+01	2.9800e+00	




#DATA BEGINS
time	group	step	mark	flag	A-AC1	A-AC2	A-AC3	A-AC4	A-AC5	A-AC6	A-AC7	A-AC8	A-AC9	A-AC10	A-AC11	A-AC12	A-AC13	A-AC14	A-AC15	A-AC16	A-DC1	A-DC2	A-DC3	A-DC4	A-DC5	A-DC6	A-DC7	A-DC8	A-DC9	A-DC10	A-DC11	A-DC12	A-DC13	A-DC14	A-DC15	A-DC16	A-Ph1	A-Ph2	A-Ph3	A-Ph4	A-Ph5	A-Ph6	A-Ph7	A-Ph8	A-Ph9	A-Ph10	A-Ph11	A-Ph12	A-Ph13	A-Ph14	A-Ph15	A-Ph16	B-AC1	B-AC2	B-AC3	B-AC4	B-AC5	B-AC6	B-AC7	B-AC8	B-AC9	B-AC10	B-AC11	B-AC12	B-AC13	B-AC14	B-AC15	B-AC16	B-DC1	B-DC2	B-DC3	B-DC4	B-DC5	B-DC6	B-DC7	B-DC8	B-DC9	B-DC10	B-DC11	B-DC12	B-DC13	B-DC14	B-DC15	B-DC16	B-Ph1	B-Ph2	B-Ph3	B-Ph4	B-Ph5	B-Ph6	B-Ph7	B-Ph8	B-Ph9	B-Ph10	B-Ph11	B-Ph12	B-Ph13	B-Ph14	B-Ph15	B-Ph16	aux-1	digaux	

631.873	1	1	0	256	0.13035	0.24182	0.41324	0.46645	0.046587	0.1511	0.27331	0.27832	0.22746	0.14672	0.15388	0.11088	0.23335	0.15338	0.13424	0.092052	-0.72292	-1.9937	-1.1896	-1.4542	-1.8792	-0.90417	-1.8271	-1.65	-0.825	-1.9146	-1.4021	-1.2167	-1.8958	-1.2458	-1.6313	-1.6271	399.342	268.725	116.693	381.691	299.552	242.869	356.482	63.458	327.184	368.248	313.211	358.841	211.713	97.469	117.572	377.393	0.00054067	0.0004307	0.00015288	807.63	3.476e-06	9.5999e-06	869.99	293.57	3.9394e-06	3.2621e-06	371.48	147.39	111.02	54.707	3.2829e-06	79.879	0.00044183	0.00040621	0.00011604	809.43	4.4284e-06	4.4915e-06	869.02	294.95	4.499e-06	4.4862e-06	370.79	149.03	112.58	55.355	4.5331e-06	80.422	189.829	106.410	137.626	54.387	141.938	217.939	54.337	60.561	200.955	166.592	58.589	64.437	66.391	71.717	236.259	69.237	-8191	255	
631.969	1	1	0	0	0.13067	0.24223	0.1957	0.30591	0.067006	0.25014	0.067053	0.31847	0.1681	0.31029	0.13181	0.17138	0.049198	0.3005	0.18459	0.096492	-0.66458	-1.725	-1.4146	-1.1646	-2.0583	-1.0083	-1.725	-1.8771	-1.0729	-1.775	-1.5812	-1.0917	-2.1146	-1.1354	-1.4562	-1.9833	218.425	58.822	300.463	73.506	184.417	298.926	324.028	350.538	176.182	166.350	196.598	340.379	191.284	354.731	333.319	325.661	0.00058659	0.00030315	0.00011316	807.37	8.2735e-07	6.9232e-06	876.58	292.51	3.2406e-06	3.0995e-06	371.66	147.58	111.28	54.794	5.458e-06	80.69	0.00043928	0.00040958	0.00011537	808.85	4.4892e-06	4.5195e-06	873.63	294.82	4.5081e-06	4.466e-06	371.73	149.53	112.91	55.615	4.5214e-06	81.065	190.753	76.537	97.560	54.318	142.408	223.479	54.272	60.597	185.706	194.221	58.670	64.473	66.260	71.634	209.176	69.310	-8191	255	
632.065	1	1	0	0	0.20349	0.23643	0.13095	0.13008	0.21062	0.19039	0.3237	0.079654	0.23746	0.020313	0.27823	0.23397	0.28016	0.23717	0.1365	0.17946	-0.6125	-1.7	-1.4021	-0.87292	-1.9521	-1.0187	-1.3417	-2.0396	-0.9625	-1.7792	-1.7396	-1	-1.8312	-1.3042	-1.2437	-1.9688	237.647	228.808	80.143	199.529	336.436	43.489	344.131	47.817	349.482	210.129	167.205	100.079	75.833	353.029	391.861	369.299	0.00053102	0.00037347	4.4371e-05	807.82	5.3779e-06	3.8499e-06	876.73	294.44	4.4043e-06	6.2165e-06	371.18	148.21	111.43	54.782	4.0532e-06	79.97	0.00043549	0.00041257	0.00011424	809.97	4.4575e-06	4.4705e-06	873.33	295.99	4.4212e-06	4.4763e-06	371.42	149.4	112.78	55.595	4.4392e-06	80.441	191.130	123.949	253.257	54.546	205.031	266.675	54.241	60.700	206.368	187.310	58.833	64.570	66.316	71.664	217.558	68.915	-8191	255	
632.162	1	1	0	0	0.047782	0.1981	0.30331	0.14838	0.10373	0.026626	0.164	0.16073	0.35722	0.085399	0.21141	0.23059	0.12272	0.10556	0.1863	0.27603	-0.66875	-1.6875	-1.4667	-1.1958	-1.8396	-1.2583	-1.1792	-1.8479	-0.97292	-1.3937	-1.8479	-0.95208	-1.9042	-1.2583	-1.1646	-2.0042	362.529	47.876	238.414	162.873	220.787	350.115	395.386	64.400	244.180	399.421	373.195	337.457	323.399	135.999	378.651	353.486	0.00047225	0.00066218	0.00012505	808.68	5.503e-06	2.4293e-06	868.65	292.39	4.7959e-06	6.1541e-06	368.02	146.73	110.69	54.753	6.23e-06	79.664	0.00043151	0.00040688	0.00011326	807.27	4.4423e-06	4.4272e-06	866.95	294.15	4.495e-06	4.465e-06	368.62	148.03	112.08	55.408	4.4204e-06	79.87	193.750	130.557	138.945	54.638	222.970	159.008	54.439	60.663	187.982	179.749	58.572	64.572	66.366	71.752	209.288	69.381	-8191	255	
632.258	1	1	0	0	0.17909	0.35238	0.16677	0.12765	0.15322	0.18661	0.11783	0.2888	0.25289	0.2724	0.14607	0.093271	0.17	0.095111	0.11916	0.15699	-0.72708	-1.2812	-1.7563	-1.0333	-1.6313	-1.4354	-1.1042	-2.1958	-1.2292	-1.35	-2.0563	-0.90833	-1.925	-1.6917	-0.86458	-1.8458	141.122	254.800	93.267	101.726	141.594	309.694	102.324	59.446	158.186	388.995	56.968	155.604	389.023	365.011	117.528	393.439	0.00050715	0.00062106	0.00022853	805.6	4.2075e-06	6.1646e-06	868.37	291.84	4.5601e-06	6.2101e-06	368.41	146.67	110.92	54.673	6.4063e-06	80.306	0.00043096	0.00040333	0.00011122	805.81	4.4105e-06	4.3818e-06	868.11	293.44	4.4496e-06	4.3753e-06	368.94	148.24	112.22	55.376	4.3668e-06	80.434	190.037	100.377	138.794	54.403	238.293	163.843	54.150	60.789	209.845	193.089	58.708	64.450	66.348	71.668	250.953	69.513	-8191	255	
632.354	1	1	0	0	0.20904	0.22334	0.28484	0.19138	0.093499	0.13709	0.32997	0.52188	0.035606	0.11953	0.041117	0.22118	0.0095879	0.1966	0.050601	0.1795	-0.73125	-1.3396	-1.7	-1.35	-1.7188	-1.5688	-1.075	-1.9021	-1.2375	-1.2437	-1.8563	-1.1646	-1.7062	-1.6979	-0.99375	-1.9146	281.877	371.015	46.603	64.153	375.688	316.959	380.057	52.481	200.038	208.010	269.455	111.231	130.406	328.032	161.255	314.519	0.00049564	0.00061725	9.5353e-05	804.78	2.5988e-06	3.3526e-06	872.43	292.52	5.4833e-06	5.751e-06	367.99	147.73	111.28	54.819	5.4917e-06	80.595	0.00043172	0.00040502	0.00011112	806.05	4.3903e-06	4.3722e-06	869.13	294.45	4.4342e-06	4.4307e-06	369.72	149.21	112.58	55.59	4.4203e-06	81.144	191.617	132.959	227.134	54.528	208.098	206.148	54.329	60.691	195.635	193.747	58.912	64.637	66.357	71.666	219.443	69.345	-8191	255	
632.450	1	1	0	0	0.24222	0.12432	0.10593	0.06133	0.19224	0.22171	0.23303	0.32183	0.089771	0.15731	0.064475	0.037628	0.16904	0.24847	0.25587	0.18822	-0.93333	-1.2646	-1.8083	-1.1812	-1.4562	-1.6354	-1.0854	-1.8333	-1.3854	-1.0604	-2.0938	-1.0875	-1.4583	-1.8583	-0.91667	-1.9083	203.027	113.783	46.028	169.113	398.908	168.125	298.558	343.581	223.816	239.755	107.569	103.041	198.291	378.619	216.361	321.717	0.00053779	0.00056843	0.00014036	804.45	5.8612e-06	7.0187e-06	871.84	292.23	3.3335e-06	5.8548e-06	371.97	149.56	111.91	55.362	6.4511e-06	81.645	0.00043269	0.00040733	0.00011241	803.28	4.517e-06	4.4101e-06	869.75	294.5	4.4846e-06	4.5476e-06	372.24	150.85	113.42	56.024	4.5444e-06	81.934	192.322	157.579	145.272	54.326	217.419	180.829	54.441	60.742	202.664	194.772	59.025	64.418	66.332	71.810	229.157	69.522	-8191	255	
632.546	1	1	0	0	0.1245	0.12697	0.12072	0.10844	0.1441	0.16819	0.07581	0.10995	0.29501	0.21762	0.13849	0.11978	0.17461	0.39905	0.1932	0.24497	-1.0833	-1.0979	-1.6604	-1.2188	-1.3687	-1.7812	-1.1604	-1.7938	-1.5604	-1.0917	-1.9792	-1.2188	-1.2938	-2.0021	-0.75417	-1.8813	58.376	317.936	142.073	171.027	253.308	122.505	76.824	322.504	58.178	51.880	387.992	393.290	251.014	340.635	365.282	310.976	0.00054991	0.00039978	7.3891e-05	803.31	9.4672e-06	4.4086e-06	871.07	291.93	4.3408e-06	4.7628e-06	369.21	147.98	111.34	54.794	2.8664e-06	80.032	0.00043734	0.00041118	0.00011446	803.45	4.4847e-06	4.4342e-06	869.56	293.95	4.4682e-06	4.454e-06	370.34	149.69	112.84	55.55	4.4967e-06	80.633	190.342	90.431	169.290	54.662	220.132	202.735	54.328	60.722	183.168	181.810	58.932	64.565	66.397	71.802	243.088	69.331	-8191	255	
632.665	1	1	0	0	0.13929	0.086997	0.12189	0.49348	0.30978	0.11175	0.10863	0.15751	0.27661	0.17152	0.086869	0.45286	0.26152	0.36715	0.14625	0.4007	-1.3104	-0.94375	-1.9542	-1.2313	-1.1167	-1.9937	-1.0562	-1.6479	-1.5063	-0.88333	-1.8667	-1.4625	-1.2854	-1.9958	-0.9125	-1.6688	55.669	347.617	79.423	395.265	107.619	133.976	51.808	55.259	402.070	330.354	254.695	334.853	62.971	139.537	103.407	340.403	0.00058861	0.00064548	0.0001366	803.35	6.1086e-06	3.0403e-06	866.38	290.06	6.7052e-06	6.7951e-06	365.13	146.39	109.91	54.165	6.3202e-06	79.312	0.00043502	0.00040001	0.00011182	804.3	4.3647e-06	4.3696e-06	864.93	292.8	4.2995e-06	4.4167e-06	366.54	147.5	111.55	54.801	4.443e-06	79.569	194.920	105.725	103.750	54.455	213.476	217.661	54.275	60.752	186.972	215.388	59.188	64.560	66.366	71.855	227.591	69.537	-8191	255	
632.761	1	1	0	0	0.0098242	0.36774	0.20065	0.18401	0.12003	0.1419	0.26801	0.19424	0.24653	0.1969	0.23867	0.11113	0.22518	0.15349	0.20743	0.20816	-1.3729	-0.96667	-1.8292	-1.3687	-1.175	-1.9979	-1.2229	-1.6167	-1.775	-1.0521	-1.7229	-1.5979	-1.2625	-2.1104	-1.1354	-1.6604	294.174	72.934	225.306	338.783	55.668	145.901	372.382	373.901	117.971	147.200	307.686	372.416	327.484	94.531	292.410	307.074	0.0005213	0.00080329	0.00014977	802.26	4.8886e-06	4.2297e-06	864.32	289.9	3.5637e-06	2.7472e-06	370.55	147.08	110.95	54.638	7.3599e-06	80.154	0.00042551	0.00039432	0.00011032	803.03	4.3139e-06	4.3129e-06	862.51	292.66	4.3563e-06	4.4179e-06	368.69	148.6	112.38	55.38	4.4346e-06	80.577	190.714	147.015	139.030	54.466	203.398	151.223	54.274	60.810	228.274	213.962	58.981	64.747	66.404	71.721	225.252	69.341	-8191	255	
632.857	1	1	0	0	0.13661	0.12423	0.18526	0.20292	0.043854	0.1403	0.29729	0.038908	0.21564	0.097093	0.14181	0.21557	0.09707	0.13591	0.19772	0.27879	-1.6562	-0.99375	-1.7729	-1.7375	-0.92083	-2.0229	-1.3667	-1.4208	-1.9396	-0.89792	-1.775	-1.6875	-0.98125	-1.9354	-1.2188	-1.2667	247.271	391.967	243.595	119.980	334.134	278.132	379.732	244.593	101.435	199.503	50.787	367.729	69.721	82.468	59.861	49.185	0.00056155	0.00063502	9.015e-05	798.13	4.4634e-06	4.462e-06	867.3	290.91	6.1737e-06	5.6656e-06	368.95	147.96	110.8	54.579	5.6358e-06	80.223	0.00042525	0.0003984	0.00011151	798.58	4.3898e-06	4.3569e-06	863.54	292.51	4.3863e-06	4.402e-06	369.07	149.3	112.1	55.364	4.4104e-06	80.623	194.738	132.632	143.899	54.352	189.261	195.770	54.231	60.574	183.201	206.545	58.928	64.785	66.563	72.147	260.923	69.334	-8191	255	
632.953	1	1	0	0	0.26057	0.30249	0.24609	0.12831	0.2077	0.14556	0.13946	0.11567	0.19353	0.37251	0.032481	0.10594	0.17444	0.36748	0.37419	0.12322	-1.4354	-0.97708	-1.6	-1.825	-0.78958	-1.9625	-1.5	-1.2354	-1.8958	-1.0979	-1.6396	-1.9229	-1.1292	-1.8979	-1.3417	-1.2542	369.725	369.652	45.152	178.078	251.954	305.674	307.607	42.829	221.921	300.325	334.988	231.837	341.469	398.040	348.220	344.173	0.00055032	0.00035066	0.00019779	798.28	3.8275e-06	5.1075e-06	868.55	290.73	3.5246e-06	2.9669e-06	368.19	147.91	109.47	54.095	8.5517e-06	79.754	0.00042754	0.0003999	0.00011335	801.08	4.3515e-06	4.3569e-06	867.61	291.76	4.3203e-06	4.4031e-06	369.07	148.81	111.29	54.698	4.3823e-06	80.222	190.093	111.926	134.076	54.703	187.495	239.032	54.194	60.674	215.075	220.466	58.880	64.557	66.459	71.909	216.551	69.471	-8191	255	
633.050	1	1	0	0	0.3574	0.1215	0.079035	0.49492	0.047773	0.13918	0.30905	0.23168	0.24449	0.056304	0.22332	0.2297	0.3072	0.37503	0.15219	0.2145	-1.4937	-1.0542	-1.4667	-1.8854	-0.94792	-1.6979	-1.7792	-1.1417	-1.7563	-1.2542	-1.425	-1.9771	-1.2437	-1.7896	-1.675	-1.3646	391.373	61.489	103.431	383.717	240.340	109.575	81.048	44.448	100.485	58.667	381.074	299.792	322.847	309.673	305.234	397.066	0.00052519	0.00060702	0.00014401	805.59	2.6809e-06	3.7131e-06	870.12	290.36	3.1273e-06	6.6788e-06	366.58	146.86	109.68	54.018	2.6593e-06	79.55	0.0004235	0.00039992	0.00011186	804.98	4.366e-06	4.3903e-06	869.82	291.69	4.3828e-06	4.3227e-06	367.95	148.2	111.05	54.735	4.3569e-06	79.979	191.767	78.399	158.586	54.299	244.149	180.762	54.177	60.625	217.488	228.332	59.164	64.574	66.354	72.105	214.287	69.284	-8191	255	
633.146	1	1	0	0	0.086177	0.25086	0.16892	0.17179	0.3232	0.066683	0.26421	0.10549	0.2713	0.16872	0.32201	0.13273	0.14202	0.086213	0.32892	0.12795	-1.5938	-1.1792	-1.3042	-1.8833	-0.98958	-1.6042	-1.6812	-1.0562	-1.8042	-1.1917	-1.3333	-2.0708	-1.1125	-1.6313	-1.5375	-1.0583	143.700	318.227	229.977	355.467	129.935	346.532	394.349	195.710	265.545	174.801	309.121	61.062	348.788	146.195	89.698	44.375	0.00053642	0.00080024	0.00010736	795.74	3.9038e-06	6.8757e-06	858.71	287.61	4.3606e-06	2.7714e-06	365.15	145.39	109.93	54.014	5.8819e-06	79.174	0.00042416	0.00039725	0.00010997	798.62	4.3365e-06	4.3206e-06	858.84	290.2	4.36e-06	4.3829e-06	365.88	147.21	111.19	54.835	4.4166e-06	79.445	190.505	125.438	137.784	54.701	160.651	210.799	54.120	60.630	218.622	225.257	58.968	64.388	66.309	71.694	257.166	69.498	-8191	255	
633.266	1	1	0	0	0.15545	0.058168	0.24409	0.064877	0.1787	0.1439	0.24694	0.25085	0.19402	0.30384	0.088455	0.085566	0.27811	0.13411	0.19605	0.34784	-1.3833	-1.2062	-1.1958	-1.9688	-0.91875	-1.5729	-1.7583	-0.98333	-1.7417	-1.3958	-0.97917	-2.0083	-1.2104	-1.4667	-1.8646	-1.2396	345.955	315.387	102.402	311.445	258.402	386.459	369.518	355.305	223.092	296.030	344.194	299.813	304.360	387.280	330.982	388.712	0.00046567	0.00074775	0.00015735	796.55	2.9147e-06	6.7308e-06	855.47	286.38	3.9645e-06	2.7233e-06	364.54	146.06	109.17	53.876	5.7816e-06	78.589	0.00042868	0.00040172	0.00011068	796.14	4.3305e-06	4.4705e-06	856.32	289.67	4.332e-06	4.3604e-06	364.38	147.24	110.65	54.517	4.2959e-06	79.103	193.084	125.540	121.494	54.380	234.300	213.530	54.249	60.662	197.722	203.612	58.793	64.534	66.096	71.977	210.827	69.243	-8191	255	
633.363	1	1	0	0	0.073157	0.21331	0.1398	0.26699	0.15913	0.22939	0.29764	0.066055	0.37623	0.29338	0.15874	0.42072	0.16337	0.11631	0.11563	0.18463	-1.5771	-1.2875	-0.90625	-2.025	-1.1354	-1.3687	-1.9562	-1.1333	-1.6479	-1.5333	-0.93958	-1.9167	-1.3333	-1.4042	-1.9438	-1.0979	230.838	55.776	134.805	105.689	357.648	91.781	363.793	70.742	310.736	259.562	336.725	367.909	305.293	186.458	52.193	349.205	0.00050887	0.00056885	0.0001321	801.28	3.9636e-06	6.6147e-06	864.49	288.14	5.7337e-06	3.971e-06	363.65	145.54	108.58	53.155	5.7054e-06	78.656	0.00042692	0.00039694	0.00011166	799.52	4.323e-06	4.3966e-06	864.56	289.29	4.3679e-06	4.3594e-06	365.87	147.13	110.02	53.901	4.3275e-06	79.08	189.680	131.313	140.765	54.623	227.658	180.109	54.093	60.567	196.005	200.639	58.799	64.483	66.135	72.006	221.618	69.296	-8191	255	
633.457	1	1	0	0	0.055115	0.10013	0.037154	0.16073	0.15567	0.19458	0.12117	0.47016	0.34886	0.18486	0.17791	0.37295	0.13027	0.20135	0.051982	0.1145	-1.1979	-1.2917	-0.82083	-1.8396	-1.1604	-1.1271	-1.9833	-1.0646	-1.6063	-1.4625	-1.0083	-1.9771	-1.3354	-1.2208	-1.8146	-1.1667	55.117	221.018	323.078	390.026	152.899	193.921	236.083	324.085	205.352	392.006	183.632	361.114	148.776	328.365	140.037	239.735	0.0005286	0.00057397	0.00011893	801.9	3.3299e-06	2.7666e-06	868.87	287.11	5.8111e-06	9.1458e-07	367.36	147.28	109.79	54.129	6.6419e-06	80.409	0.00042419	0.00039952	0.00011128	802.52	4.3071e-06	4.3931e-06	867.07	289.8	4.3456e-06	4.309e-06	368.45	148.8	111.08	54.81	4.38e-06	80.931	188.532	97.116	117.658	54.460	245.520	208.889	54.092	60.546	198.941	114.558	58.780	64.510	66.118	71.976	228.856	69.673	-8191	255	
633.555	1	1	0	0	0.27173	0.095732	0.15778	0.25177	0.020569	0.21785	0.39708	0.31971	0.11678	0.16576	0.38197	0.16263	0.13303	0.1577	0.37864	0.10329	-1.3563	-1.5187	-0.81667	-1.9104	-1.2604	-1.0688	-2.0583	-1.1542	-1.3958	-1.8583	-0.95625	-1.7958	-1.6313	-1.1	-1.8333	-1.3083	276.625	184.748	197.862	338.056	205.287	184.355	358.317	337.734	284.180	162.404	345.152	242.004	69.284	105.590	196.126	80.166	0.00050219	0.00040276	0.00023476	798.25	3.3869e-06	7.6443e-06	862.01	288.53	6.0476e-06	7.5891e-06	364.32	146.47	109.3	53.908	7.1096e-06	79.205	0.00043241	0.00039613	0.0001116	796.94	4.3779e-06	4.4317e-06	860.9	290.23	4.4912e-06	4.3892e-06	366.07	148.25	110.94	54.73	4.5272e-06	79.731	194.215	125.588	166.831	54.522	229.147	201.241	54.350	60.769	181.472	208.839	59.040	64.503	66.278	71.822	220.072	69.518	-8191	255	
633.649	1	1	0	0	0.2266	0.31628	0.23956	0.16305	0.036013	0.28008	0.17312	0.083191	0.30474	0.19923	0.14539	0.036392	0.2181	0.18461	0.14588	0.46991	-0.93333	-1.7667	-0.89167	-1.8542	-1.3417	-0.9	-2.0354	-1.2542	-1.2521	-1.925	-1.0146	-1.6979	-1.5833	-1.2625	-1.8667	-1.1833	382.329	332.975	65.341	217.243	141.590	137.280	382.981	85.303	366.808	78.622	382.997	334.410	276.882	69.682	199.009	313.181	0.00052495	0.00071878	0.00016319	792.68	5.4781e-06	6.0784e-06	855.15	286.34	4.7505e-06	3.7631e-06	362.9	144.46	108.47	52.922	2.5474e-06	77.52	0.00043994	0.0004066	0.00011533	793.88	4.4611e-06	4.5221e-06	856.48	288.06	4.5251e-06	4.4545e-06	363.11	145.97	109.64	53.654	4.557e-06	77.896	195.688	105.167	162.891	54.625	187.471	194.526	54.186	60.744	181.506	224.695	58.771	64.775	66.122	71.784	175.957	69.359	-8191	255	
633.745	1	1	0	0	0.1709	0.2005	0.40856	0.45816	0.065185	0.10458	0.062613	0.18428	0.28474	0.11053	0.35112	0.27489	0.25256	0.17397	0.20059	0.15849	-0.80833	-1.8646	-0.93125	-1.5771	-1.7	-1.0063	-1.8667	-1.5	-1.1479	-1.9562	-1.2563	-1.525	-1.8917	-1.05	-1.6562	-1.5521	365.080	183.346	361.489	327.285	279.858	305.630	291.228	330.644	208.088	126.496	310.787	338.387	288.634	47.883	164.830	338.608	0.00052454	0.00069405	0.00013934	794.61	5.4589e-06	5.1028e-06	860.63	284.6	6.2802e-06	4.1089e-06	363.35	143.44	107.06	51.96	5.9146e-06	76.716	0.00043563	0.00041572	0.0001148	795.99	4.4388e-06	4.4791e-06	862.21	286.69	4.516e-06	4.5277e-06	362.78	144.93	108.44	52.825	4.5751e-06	77.199	190.809	165.140	146.964	54.514	213.127	147.464	54.381	60.342	204.919	166.669	58.796	64.729	66.226	72.042	211.668	69.288	-8191	255	
633.842	1	1	0	0	0.11624	0.13258	0.18616	0.26977	0.077728	0.29453	0.25552	0.19619	0.27282	0.044154	0.0095976	0.076336	0.10077	0.22014	0.43321	0.30389	-0.84375	-1.9208	-1.2354	-1.4792	-1.6771	-1.1125	-1.6729	-1.5771	-1.0896	-1.9396	-1.2146	-1.5167	-1.9271	-1	-1.65	-1.6125	174.592	154.156	189.307	68.137	134.708	281.206	323.612	341.799	186.239	127.663	261.117	185.323	81.189	106.618	239.142	331.341	0.0005123	0.00066563	5.9128e-05	799.39	7.6061e-06	7.5158e-06	865.7	284.67	3.0524e-06	2.9149e-06	363.18	143.59	107.3	52.366	6.2084e-06	77.54	0.00043958	0.00041724	0.00011496	801.36	4.4253e-06	4.4577e-06	865.83	286.4	4.5092e-06	4.4115e-06	363.89	145.37	108.66	53.023	4.4503e-06	78.15	192.763	105.855	112.651	54.728	166.315	186.322	54.191	60.590	195.081	177.478	59.043	65.008	66.436	71.867	194.300	69.370	-8191	255	
633.938	1	1	0	0	0.10135	0.071639	0.1517	0.37875	0.18583	0.28578	0.41549	0.078006	0.19363	0.25636	0.23765	0.20594	0.20082	0.21698	0.35949	0.077661	-0.60625	-1.7938	-1.175	-1.2458	-1.9417	-1.175	-1.7437	-1.6771	-0.91875	-1.8333	-1.2854	-1.3312	-1.7896	-1.0542	-1.7812	-1.8771	191.286	63.750	273.381	395.861	265.118	397.962	290.171	334.461	225.995	113.433	333.072	88.514	281.646	45.720	84.579	376.750	0.00053049	0.00055262	0.00011042	795.46	5.1337e-06	3.837e-06	865.82	285.04	4.9285e-06	3.9363e-06	366.71	146.79	108.67	53.293	6.5869e-06	80.023	0.00043009	0.0004069	0.00011465	794.97	4.4263e-06	4.4325e-06	861.7	287.17	4.5499e-06	4.5191e-06	366.67	148.13	110.03	54.134	4.5842e-06	80.315	196.322	144.297	162.465	54.470	201.838	173.238	54.260	60.826	186.579	241.364	58.988	64.755	66.311	71.702	266.713	69.461	-8191	255	
634.058	1	1	0	0	0.33144	0.022345	0.037442	0.28827	0.21859	0.28527	0.24396	0.40661	0.28755	0.10651	0.23351	0.14856	0.16401	0.18208	0.069681	0.35224	-0.76875	-1.8771	-1.3062	-1.3563	-1.9667	-0.96667	-1.4896	-1.7021	-0.82708	-1.8771	-1.5125	-1.2396	-2.0583	-1.3292	-1.3667	-1.9667	346.417	257.426	188.513	376.249	279.632	231.740	316.285	295.795	112.468	319.593	200.694	337.702	72.058	326.560	254.116	307.877	0.00051689	0.00039192	0.00014832	788.09	5.7711e-06	2.5146e-06	852.78	285.15	5.2528e-06	4.8045e-06	363.11	145.14	107.8	53.026	3.7834e-06	77.9	0.00044579	0.00042208	0.00011668	790.14	4.6078e-06	4.5677e-06	857.37	287.1	4.6264e-06	4.643e-06	364.01	146.65	109.43	53.657	4.6186e-06	78.291	192.576	80.283	149.463	54.504	197.803	211.078	54.109	60.661	188.508	259.664	58.543	64.682	66.394	71.745	214.124	69.179	-8191	255	
634.155	1	1	0	0	0.034122	0.14513	0.12137	0.48688	0.081079	0.10385	0.30909	0.11221	0.34178	0.14064	0.37194	0.43158	0.075327	0.2872	0.14735	0.10285	-0.6625	-1.8333	-1.6063	-1.3479	-2.0187	-1.3625	-1.5458	-2.0271	-1.0562	-1.9021	-1.6688	-1.2333	-1.9688	-1.3604	-1.2479	-2.0917	290.422	395.533	64.276	330.883	206.359	163.053	308.795	318.123	135.658	270.909	332.956	361.194	160.942	64.485	91.120	398.651	0.00051576	0.00038151	0.00016421	788.07	3.7459e-06	1.7189e-06	852.99	282.97	7.5432e-06	8.802e-06	360.38	143.18	107.01	51.972	5.7395e-06	76.36	0.00044852	0.00042123	0.00011707	789.8	4.6047e-06	4.596e-06	854.85	285.83	4.5336e-06	4.5667e-06	360.76	144.67	108.31	52.752	4.6163e-06	76.791	190.264	178.637	153.953	54.701	172.199	171.463	54.247	60.392	229.385	189.139	58.905	64.722	66.294	71.837	235.650	69.358	-8191	255	
634.226	1	1	0	0	0.12099	0.25478	0.1757	0.021041	0.097586	0.12963	0.19045	0.10343	0.19342	0.20359	0.29159	0.57363	0.23477	0.20942	0.2264	0.11372	-0.83125	-1.5167	-1.5521	-1.1958	-1.9146	-1.2146	-1.1729	-2.0333	-1.0479	-1.4562	-1.8625	-0.98958	-1.9833	-1.4542	-1.2938	-2.0417	129.364	274.709	231.085	47.162	179.163	317.960	321.999	328.416	274.386	251.735	365.253	395.029	230.191	76.267	124.041	391.736	0.00053168	0.00060814	0.00021913	795.46	2.107e-06	7.2974e-06	863.99	282.87	3.8688e-06	4.2303e-06	360.15	142.15	106.4	51.057	4.1411e-06	75.725	0.00044409	0.00041328	0.00011517	796.09	4.5355e-06	4.502e-06	861.45	284.95	4.5764e-06	4.6183e-06	360.83	143.76	107.48	51.867	4.5481e-06	76.277	191.991	151.200	143.680	54.883	193.563	196.233	54.513	60.457	182.444	189.742	58.885	64.696	65.947	71.764	221.212	69.399	-8191	255	
634.347	1	1	0	0	0.17178	0.26735	0.2298	0.14492	0.13234	0.17289	0.22604	0.21097	0.15375	0.19654	0.23376	0.1541	0.13148	0.20608	0.2505	0.12784	-0.75208	-1.4104	-1.725	-1.3104	-1.8083	-1.6646	-1.1896	-1.9854	-1.0104	-1.4042	-1.7958	-1.0375	-1.6604	-1.6771	-1.0729	-2.0604	344.136	65.468	341.901	301.656	337.727	214.426	387.463	365.930	366.626	118.773	78.006	48.978	217.542	308.354	268.258	285.404	0.00049482	0.00080268	0.00019475	799.44	6.2814e-06	6.0193e-06	865.24	284.31	4.0169e-06	3.4829e-06	363.27	143.94	107.44	52.112	5.0121e-06	78.086	0.0004372	0.00041281	0.00011144	800.7	4.467e-06	4.489e-06	865.05	286.24	4.493e-06	4.508e-06	363.6	145.33	108.71	52.925	4.4997e-06	78.408	197.068	141.473	159.501	54.383	222.791	224.044	54.202	60.445	201.174	243.876	58.505	64.547	66.408	71.696	204.699	69.421	-8191	255	
634.443	1	1	0	0	0.066809	0.18715	0.16028	0.27177	0.10861	0.068742	0.12016	0.11876	0.18757	0.37951	0.15075	0.083312	0.32086	0.16258	0.1411	0.21841	-0.89792	-1.1708	-1.7417	-1.15	-1.7354	-1.6313	-1.0187	-2	-1.2646	-1.1437	-1.95	-1.1708	-1.7833	-1.7313	-0.92917	-1.8937	222.184	87.893	170.877	363.912	70.608	65.381	332.762	124.601	284.386	62.984	294.218	385.703	386.780	245.779	392.365	308.967	0.00044929	0.00063965	0.0001082	791.41	4.0811e-06	4.3156e-06	863.06	285.42	4.7212e-06	7.7208e-06	364.43	146.76	108.57	53.736	7.5248e-06	79.871	0.00044088	0.00041088	0.0001135	793.21	4.4795e-06	4.4143e-06	860.43	287.29	4.5024e-06	4.6044e-06	366.37	148.25	110.1	54.314	4.5621e-06	80.409	186.744	137.446	132.214	54.506	174.070	177.828	54.326	60.752	177.618	213.969	59.117	64.840	66.486	71.715	234.511	69.465	-8191	255	
634.537	1	1	0	0	0.2237	0.022627	0.096552	0.14955	0.34933	0.066226	0.26952	0.18147	0.098533	0.069803	0.31953	0.21724	0.21592	0.22776	0.070222	0.33313	-0.9625	-1.2229	-1.9271	-1.1396	-1.6708	-1.8667	-0.93958	-1.9604	-1.2542	-1.1688	-1.9208	-1.2604	-1.5854	-1.9062	-0.96458	-1.8417	47.801	144.726	277.274	180.022	169.013	216.132	55.962	71.670	144.343	307.726	263.619	59.142	64.118	94.328	203.189	390.337	0.00051283	0.00050178	0.00014423	788.03	5.1457e-06	4.9258e-06	853.23	285.14	2.039e-06	5.5093e-06	362.99	144.84	108.56	53.057	4.5474e-06	78.272	0.00044559	0.00042343	0.00011628	789.71	4.6688e-06	4.6233e-06	857.69	287.4	4.6247e-06	4.6826e-06	363.86	146.61	109.77	53.683	4.6542e-06	78.637	192.509	151.847	155.203	54.540	199.239	218.677	54.354	60.891	206.268	186.467	58.887	64.456	66.399	71.744	205.793	69.529	-8191	255	
634.635	1	1	0	0	0.24532	0.23214	0.29358	0.052942	0.1243	0.053323	0.11202	0.15274	0.13695	0.21775	0.28364	0.51618	0.065234	0.31919	0.06208	0.071067	-0.96875	-1.0625	-1.6938	-1.0792	-1.5208	-1.8146	-1.2333	-1.8771	-1.5042	-1.0187	-2.0667	-1.3354	-1.3083	-1.9208	-1.1083	-1.7875	127.998	68.513	73.377	208.030	53.389	377.282	79.072	176.009	278.475	362.303	295.107	393.143	50.124	402.418	232.292	47.592	0.00049284	0.00053867	0.00014731	789.58	3.1315e-06	4.6673e-06	853.62	284.33	5.2898e-06	1.2294e-05	362.06	143.79	107.53	52.253	5.0649e-06	76.756	0.00044895	0.00042989	0.00011651	790.6	4.624e-06	4.565e-06	855.15	286.17	4.6162e-06	4.6185e-06	362.36	145.34	108.62	52.768	4.6045e-06	77.127	190.036	133.958	163.835	54.442	197.919	206.507	54.251	60.660	208.185	198.349	59.150	64.755	66.646	71.972	208.724	69.640	-8191	255	
634.754	1	1	0	0	0.085539	0.22733	0.12676	0.13429	0.18687	0.020461	0.099215	0.23688	0.17096	0.17591	0.20387	0.11309	0.053362	0.21644	0.19524	0.14154	-1.4146	-1.0521	-1.9521	-1.4083	-1.1792	-1.9542	-1.2396	-1.5896	-1.5771	-0.87708	-2.0812	-1.4333	-1.175	-2.0917	-0.92708	-1.7437	312.108	284.398	84.354	329.144	299.324	208.662	385.253	386.874	266.767	263.775	382.764	250.523	397.908	86.900	118.118	359.212	0.00052864	0.00028356	0.00013832	796.84	3.3751e-06	7.0888e-06	865.11	283.67	3.4067e-06	4.9628e-06	362.09	142.95	106.46	51.523	6.9501e-06	76.193	0.00044344	0.00042195	0.0001155	796.17	4.5598e-06	4.5787e-06	862.25	285.91	4.5585e-06	4.5645e-06	362.35	144.49	107.84	52.261	4.6229e-06	76.781	191.572	153.303	117.330	54.409	197.349	178.073	54.294	60.740	194.651	208.993	59.051	64.354	66.543	72.053	224.755	69.731	-8191	255	
634.850	1	1	0	0	0.25447	0.3342	0.1074	0.17328	0.17187	0.080886	0.18433	0.21564	0.2587	0.12896	0.23484	0.079874	0.42601	0.19713	0.20771	0.29131	-1.475	-0.91458	-1.8042	-1.4479	-1.2188	-1.875	-1.3937	-1.6667	-1.9625	-1.0958	-1.9042	-1.6833	-1.1437	-2.1333	-1.2708	-1.4833	207.847	55.194	370.328	390.039	165.747	292.164	345.910	324.938	147.339	80.819	386.810	86.850	383.296	338.935	319.059	345.922	0.0004813	0.00029721	0.00013086	800.74	3.2487e-06	5.882e-06	870.55	284.26	4.6554e-06	8.4262e-06	364.49	143.59	106.36	51.767	3.7448e-06	77.263	0.00044012	0.00041671	0.00011675	800.66	4.5315e-06	4.4819e-06	868.01	285.87	4.5084e-06	4.537e-06	364.28	145.18	107.85	52.379	4.5101e-06	77.649	192.686	139.466	197.637	54.243	167.854	196.846	54.124	60.650	209.021	139.109	58.871	64.655	66.206	71.850	201.370	69.507	-8191	255	
634.946	1	1	0	0	0.21389	0.093648	0.18297	0.10989	0.26686	0.11055	0.084267	0.075081	0.22165	0.047088	0.18247	0.35095	0.30039	0.062431	0.22004	0.11428	-1.3146	-1.0438	-1.9188	-1.8875	-1.2271	-1.8875	-1.2062	-1.3354	-1.8708	-1.0833	-1.825	-1.7583	-1.3771	-2.0375	-1.1896	-1.3292	379.812	68.561	124.696	42.823	100.044	272.946	186.488	186.310	133.762	122.274	141.737	367.318	338.999	56.292	52.944	283.616	0.00053871	0.00049675	0.00015448	799.87	4.7931e-06	2.2645e-06	869.39	284.93	3.3076e-06	2.9464e-06	363.16	145.81	107.11	52.748	3.6286e-06	78.38	0.0004289	0.00041334	0.00011277	799.89	4.408e-06	4.3748e-06	867.27	286.46	4.4184e-06	4.4077e-06	364.83	146.8	108.82	53.244	4.4091e-06	78.894	196.842	119.852	159.963	54.553	202.729	136.006	54.143	60.653	244.919	217.082	59.286	64.940	66.825	71.869	223.379	69.614	-8191	255	
635.043	1	1	0	0	0.14875	0.067919	0.14147	0.045298	0.24906	0.14687	0.23266	0.29421	0.029121	0.31319	0.19551	0.29701	0.1756	0.13914	0.15387	0.12869	-1.4083	-0.87917	-1.6187	-1.825	-0.99792	-1.8125	-1.3917	-1.3292	-1.85	-0.95833	-1.7687	-1.9125	-0.875	-1.9937	-1.4875	-1.3083	289.670	115.964	175.676	180.330	385.333	338.542	47.112	314.883	125.178	110.760	367.786	367.625	159.392	317.464	351.825	83.236	0.00052466	0.00045002	0.00011027	790.94	6.901e-06	3.63e-06	856.39	284.44	3.654e-06	5.567e-06	362.25	143.47	107.16	52.248	5.1563e-06	77.332	0.00043272	0.00040303	0.00011323	792	4.4208e-06	4.4306e-06	857.39	285.98	4.545e-06	4.5642e-06	362.22	145.5	108.61	53.027	4.5783e-06	77.54	196.006	100.823	79.775	54.466	204.342	200.884	54.093	60.658	235.101	193.623	59.233	64.674	66.389	72.066	227.581	69.228	-8191	255	
635.139	1	1	0	0	0.1288	0.10237	0.16032	0.2275	0.10167	0.097443	0.097069	0.12204	0.28225	0.13393	0.13563	0.43017	0.23288	0.37606	0.13013	0.040582	-1.6979	-1.1187	-1.4292	-1.8396	-1.0625	-1.775	-1.5104	-1.2042	-1.8833	-1.2625	-1.3875	-2.0333	-1.0458	-1.8208	-1.6604	-1.1271	208.253	94.925	279.195	86.886	132.439	182.413	292.217	345.083	122.954	314.816	270.669	363.832	343.531	352.943	391.656	388.972	0.00051514	0.00034475	0.00012019	790.32	5.5266e-06	5.5755e-06	856.71	282.47	1.5341e-06	3.7689e-06	359.88	143.16	107.41	51.892	7.2514e-06	76.989	0.00043972	0.00041796	0.0001152	791.35	4.5044e-06	4.5799e-06	855.5	284.48	4.476e-06	4.5941e-06	360.74	144.97	108.3	52.676	4.4954e-06	77.335	194.006	136.721	134.089	54.798	169.031	145.092	54.382	60.587	181.675	207.463	58.996	64.771	66.397	72.099	237.802	69.578	-8191	255	
635.235	1	1	0	0	0.13012	0.13279	0.19286	0.35456	0.1542	0.093676	0.13919	0.26757	0.12422	0.23766	0.15681	0.28922	0.086045	0.22534	0.3483	0.23157	-1.5854	-1.0917	-1.2208	-1.9333	-0.98542	-1.6958	-1.8375	-1.2667	-1.7542	-1.2854	-1.2208	-1.8875	-1.1667	-1.6458	-1.7938	-1.1187	190.604	243.075	294.450	362.234	159.640	190.219	309.257	237.975	232.237	115.297	344.486	342.133	373.054	400.666	85.142	310.315	0.00052947	0.00057908	0.0002339	792.25	1.5285e-06	3.0793e-06	862.2	282.82	3.6365e-06	7.2855e-06	363.91	144.04	106.04	51.807	4.7113e-06	76.792	0.00044115	0.00041372	0.00011424	793.45	4.476e-06	4.4798e-06	861.73	285.06	4.5021e-06	4.5328e-06	363.29	145.44	107.96	52.576	4.5436e-06	77.585	190.893	109.328	112.145	54.270	159.651	225.996	54.347	60.709	185.775	218.128	58.984	64.617	66.525	72.012	216.264	69.496	-8191	255	
635.356	1	1	0	0	0.10055	0.056183	0.16021	0.21795	0.13304	0.071866	0.029228	0.18107	0.18299	0.24735	0.074592	0.21872	0.33385	0.2859	0.23341	0.081928	-1.5667	-1.1729	-1.0625	-2.1104	-1.1583	-1.5438	-1.8479	-1.1292	-1.8104	-1.425	-1.275	-2.0292	-1.2687	-1.6583	-1.8542	-1.1146	194.656	393.871	90.336	47.352	296.561	137.521	371.588	278.879	186.557	101.755	282.525	43.081	334.494	55.664	309.737	326.587	0.00049179	0.00025719	0.00018736	800.44	3.8084e-06	7.5615e-06	865.87	283.38	3.7837e-06	3.2232e-06	364.27	144.4	106.4	51.959	4.3882e-06	78.021	0.00043896	0.00041737	0.00011492	798.31	4.6059e-06	4.5609e-06	865.31	285.16	4.4854e-06	4.5233e-06	364.63	145.85	108.03	52.601	4.548e-06	78.11	188.720	112.279	165.753	54.641	205.487	216.421	54.390	60.650	167.624	244.218	58.976	64.761	66.511	71.950	208.984	69.395	-8191	255	
635.450	1	1	0	0	0.1331	0.4123	0.24606	0.26693	0.14016	0.11817	0.27892	0.12923	0.23182	0.23914	0.10947	0.12265	0.4112	0.48635	0.19829	0.25213	-1.5187	-1.4854	-0.96875	-1.8125	-0.98958	-1.4625	-2.0333	-1.1938	-1.75	-1.6688	-1.1354	-2.0229	-1.15	-1.2792	-1.7625	-1.1271	204.486	48.926	260.853	356.073	284.361	280.532	353.659	387.870	247.790	299.230	306.327	401.546	241.942	343.035	76.893	392.927	0.00051994	0.00056113	5.7527e-05	803.11	3.81e-06	3.1144e-06	868.71	282.62	3.8508e-06	3.1963e-06	364.85	144.12	105.87	51.72	6.9362e-06	77.383	0.0004331	0.00041424	0.00011486	800.53	4.5955e-06	4.4618e-06	867.61	285.1	4.5137e-06	4.4424e-06	364.02	145.92	107.82	52.488	4.4805e-06	77.852	190.292	142.243	142.778	54.492	185.656	127.456	54.418	60.488	168.858	167.788	58.962	64.748	66.535	72.137	218.430	69.313	-8191	255	
635.523	1	1	0	0	0.14963	0.11398	0.11258	0.33923	0.25832	0.13805	0.14046	0.24065	0.10667	0.060062	0.12022	0.12957	0.09556	0.2283	0.09374	0.47472	-1.3708	-1.3854	-0.77083	-1.9917	-1.0875	-1.2687	-2.0729	-1.1854	-1.5479	-1.7375	-0.9625	-1.9771	-1.3604	-1.2042	-1.6792	-1.0396	205.673	303.295	402.651	352.923	151.061	182.223	215.021	351.473	363.533	320.773	370.844	295.431	274.657	304.288	189.055	328.001	0.00049984	0.0007669	0.00019139	795.41	5.3977e-06	7.56e-06	860.19	282.41	5.9036e-06	2.2605e-06	361.63	143.86	107.36	52.128	3.6246e-06	77.191	0.00042324	0.00040061	0.00011021	795.17	4.4326e-06	4.3763e-06	859.42	284.48	4.3682e-06	4.3221e-06	361.63	145.35	108.49	52.825	4.3511e-06	77.691	194.734	112.170	141.064	54.742	196.488	231.406	54.294	60.677	184.953	205.970	59.166	64.674	66.392	72.015	255.313	69.601	-8191	255	
635.619	1	1	0	0	0.05245	0.12686	0.15173	0.1098	0.19874	0.21663	0.18481	0.37649	0.094404	0.17672	0.14735	0.080795	0.21571	0.26181	0.16401	0.095756	-0.90833	-1.8813	-0.96042	-1.8958	-1.3771	-1.1042	-2.0563	-0.92917	-1.4312	-1.7875	-1.1083	-1.8375	-1.5146	-1.2146	-1.8667	-1.4271	153.871	145.692	244.082	381.390	210.495	362.779	343.354	304.549	244.562	349.285	318.250	364.918	199.635	248.903	48.271	305.542	0.000538	4.6641e-05	0.00016913	788.87	4.8233e-06	4.3439e-06	852.63	283.12	5.6235e-06	4.4744e-06	362.15	145.36	107.4	52.215	7.7128e-06	77.99	0.00042936	0.00040589	0.00011319	790.38	4.4616e-06	4.4146e-06	855.22	285.31	4.4653e-06	4.5106e-06	362.87	146.45	108.87	53.035	4.4787e-06	78.293	186.238	75.303	172.103	54.365	207.651	277.229	54.366	60.511	246.331	154.007	58.868	65.071	66.302	71.826	240.668	69.381	-8191	255	
635.738	1	1	0	0	0.17196	0.26213	0.067403	0.29217	0.19933	0.13782	0.11501	0.20071	0.21294	0.2055	0.17227	0.112	0.201	0.37865	0.22869	0.36311	-0.96667	-1.8292	-0.89375	-1.6938	-1.5375	-1.0958	-2.0312	-1.2771	-1.2792	-2.1188	-1.1229	-1.7646	-1.8438	-1.0729	-1.775	-1.3104	313.757	79.941	256.110	341.357	334.687	88.136	391.521	378.873	103.199	167.780	346.750	338.672	309.213	376.281	392.575	329.172	0.00053687	0.00072128	0.00016401	793.66	3.1182e-06	5.1215e-06	858.69	283.22	2.0501e-06	2.6809e-06	362.66	144.79	107.36	52.305	8.0534e-06	78.195	0.00044062	0.00040733	0.00011327	794.1	4.5026e-06	4.4603e-06	859.36	285.42	4.4754e-06	4.4653e-06	363.78	146.46	108.84	53.019	4.5353e-06	78.565	193.866	133.375	109.364	54.440	264.093	207.460	54.557	60.497	226.234	263.693	59.145	65.035	66.457	72.048	223.255	69.518	-8191	255	
635.835	1	1	0	0	0.13893	0.047443	0.36252	0.15644	0.243	0.34135	0.26078	0.17596	0.18458	0.16348	0.14569	0.07692	0.14019	0.34303	0.25473	0.27763	-1.0646	-1.8583	-1.0063	-1.6917	-1.4917	-0.82708	-2.0375	-1.3667	-1.0229	-2.0646	-1.0729	-1.7479	-1.6604	-1.0646	-1.7687	-1.575	380.756	103.191	207.873	353.286	234.717	394.532	314.057	181.749	153.634	308.547	360.921	167.361	255.793	314.556	306.142	201.153	0.00053553	0.00070746	0.00013141	793.9	4.8488e-06	4.4513e-06	863.5	283.48	3.4196e-06	5.8382e-06	365.44	144.96	107.06	52.437	6.382e-06	78.289	0.00043109	0.0004065	0.0001137	794.09	4.4061e-06	4.5116e-06	863.79	285.61	4.4301e-06	4.4587e-06	365.4	146.74	108.57	53.108	4.4622e-06	78.88	190.692	121.580	135.052	54.331	183.078	209.136	54.269	60.813	213.569	197.006	58.826	64.902	66.399	72.126	225.952	69.515	-8191	255	
635.931	1	1	0	0	0.14627	0.25873	0.10837	0.19198	0.13336	0.11498	0.22781	0.19012	0.0087569	0.087654	0.23336	0.26583	0.35683	0.24867	0.24294	0.10289	-0.75417	-1.9813	-0.95833	-1.4854	-1.9146	-0.88333	-1.9813	-1.6292	-1.2396	-2.1083	-1.3125	-1.4125	-1.9167	-1.2271	-1.8646	-1.9062	337.354	103.398	238.108	69.416	63.687	92.388	397.021	374.919	328.800	230.430	312.663	117.431	392.782	307.290	262.120	240.071	0.00052845	0.00071854	0.00020391	792.97	3.4775e-06	2.7339e-06	866.92	284.21	3.491e-06	5.2071e-06	362.35	144	106.82	51.998	5.4008e-06	77.315	0.00043791	0.00040417	0.00011359	794.64	4.4109e-06	4.4597e-06	866.11	285.73	4.4689e-06	4.4663e-06	363.79	145.95	108.09	52.671	4.4707e-06	77.82	190.839	140.638	122.705	54.555	217.285	162.178	54.434	60.704	241.815	213.949	58.919	65.082	66.490	71.894	214.106	69.421	-8191	255	
636.027	1	1	0	0	0.16726	0.31139	0.18726	0.21732	0.16786	0.46023	0.045879	0.22344	0.26301	0.15549	0.13368	0.33614	0.18726	0.11354	0.11981	0.056325	-0.56042	-1.825	-1.2563	-1.4583	-1.9375	-0.875	-1.7313	-1.9229	-0.92917	-1.8208	-1.3104	-1.4542	-2.1396	-1.1792	-1.6042	-1.9458	120.230	215.263	235.935	385.549	206.856	400.860	89.312	49.249	367.794	238.662	47.585	59.875	122.216	398.065	82.027	145.950	0.00052913	0.00088828	0.00018745	792.44	2.4817e-06	6.3027e-06	858.69	281.3	3.4783e-06	8.4018e-06	359.66	142.01	105.54	51.404	4.8394e-06	76.191	0.00043172	0.00041065	0.00011434	793.9	4.4641e-06	4.5078e-06	859.12	284.02	4.4466e-06	4.4711e-06	360.59	144.01	107.35	52.055	4.5001e-06	76.641	190.277	107.788	119.196	54.625	221.444	227.901	54.569	60.715	180.117	164.622	59.091	64.808	66.474	71.885	224.641	69.549	-8191	255	
636.123	1	1	0	0	0.22756	0.17186	0.26431	0.11634	0.21956	0.1425	0.39162	0.084499	0.22495	0.17825	0.11632	0.03827	0.22997	0.1507	0.098668	0.1649	-0.5	-1.8167	-1.3979	-1.2667	-1.9229	-1.1167	-1.6146	-1.8687	-1.1562	-1.8521	-1.4417	-1.1292	-2.0625	-1.3354	-1.5042	-1.9792	89.002	66.166	297.716	50.178	44.914	370.118	327.593	229.169	390.840	150.363	356.715	390.166	150.735	54.633	333.613	341.212	0.00050585	0.00018165	0.00016314	792.12	3.1167e-06	5.911e-06	864.06	281.86	6.2103e-06	5.0934e-06	360.87	143.41	106.3	51.522	2.7793e-06	77.001	0.00043309	0.00041339	0.00011447	793.38	4.4634e-06	4.481e-06	860.04	284.06	4.5401e-06	4.4642e-06	362.09	144.8	107.67	52.208	4.5318e-06	77.468	189.644	95.049	113.917	54.533	164.289	178.564	54.404	60.707	237.366	153.970	58.964	64.760	66.397	71.832	173.487	69.456	-8191	255	
636.219	1	1	0	0	0.10143	0.23986	0.12455	0.090863	0.17941	0.1102	0.27984	0.33188	0.11314	0.076688	0.11509	0.28974	0.16184	0.090038	0.12462	0.075626	-0.54167	-1.7458	-1.5333	-1.0771	-1.875	-1.3708	-1.3438	-1.9583	-1.0729	-1.9479	-1.5396	-1.1313	-1.8646	-1.3958	-1.275	-1.9583	285.839	365.486	178.837	57.013	237.206	45.303	317.242	396.281	374.689	369.410	386.375	335.432	357.043	387.760	270.642	176.157	0.000478	0.00071526	0.00016012	792.89	8.7509e-06	4.2497e-06	862.69	282.68	3.6858e-06	6.8759e-06	362.65	145.06	106.78	52.106	4.3656e-06	78.57	0.00043371	0.000411	0.00011341	793.2	4.4349e-06	4.4906e-06	862.1	284.43	4.4955e-06	4.4918e-06	364.06	146.45	108.45	52.873	4.5813e-06	78.838	194.104	154.144	89.732	54.687	200.916	224.102	54.435	60.553	226.117	169.258	58.908	64.934	66.697	71.620	277.990	69.799	-8191	255	
636.315	1	1	0	0	0.1783	0.1184	0.1196	0.28743	0.2372	0.12783	0.15097	0.11004	0.156	0.30117	0.055448	0.24755	0.24114	0.012184	0.19821	0.29554	-0.52083	-1.5083	-1.6063	-0.94583	-1.8542	-1.3188	-1.3646	-1.9333	-1.1333	-1.6396	-1.7437	-0.99375	-1.9854	-1.5167	-1.2542	-1.85	116.427	114.069	294.548	47.435	77.185	313.835	125.782	170.509	88.607	303.215	142.715	292.887	365.620	51.257	326.228	352.586	0.00055751	0.00036014	4.7195e-05	787.74	2.6777e-06	2.3916e-06	860.15	283.89	5.4452e-06	3.2901e-06	366.87	147.05	108.3	52.799	4.0648e-06	79.483	0.00044915	0.00041887	0.00011456	790.28	4.5357e-06	4.5766e-06	860.99	285.76	4.5597e-06	4.5729e-06	366.85	148.48	109.61	53.597	4.6795e-06	79.961	188.081	91.457	134.267	54.886	247.845	145.519	54.332	60.647	217.460	174.115	59.323	64.732	66.595	72.006	204.485	69.429	-8191	255	
636.436	1	1	0	0	0.20635	0.14451	0.36623	0.24936	0.020409	0.24555	0.13798	0.24138	0.19157	0.033178	0.18293	0.18647	0.23221	0.16979	0.0395	0.20069	-0.7875	-1.2729	-1.6521	-1.1812	-1.7417	-1.5229	-1.3312	-1.95	-1.0542	-1.5938	-1.8771	-0.91667	-1.8563	-1.6979	-0.88125	-2.0479	305.429	87.378	239.759	383.971	100.819	69.607	311.665	117.237	179.388	142.445	329.664	392.815	309.958	337.719	137.519	351.379	0.00052552	0.00061817	0.00019098	788.92	4.0707e-06	3.4408e-06	859.42	283.37	2.5888e-06	3.8716e-06	364.22	145.45	107.28	52.509	4.7404e-06	78.018	0.00045376	0.00042054	0.00011847	790.3	4.698e-06	4.6403e-06	859.88	286.33	4.6959e-06	4.7168e-06	364.84	147.18	109.01	53.218	4.6025e-06	78.584	194.978	139.396	128.760	54.565	222.393	206.517	54.354	60.860	229.621	201.705	59.325	64.886	66.646	71.928	225.250	69.733	-8191	255	
636.530	1	1	0	0	0.17023	0.13146	0.24836	0.2886	0.21752	0.37184	0.1029	0.034509	0.14498	0.22895	0.30147	0.21052	0.083923	0.18911	0.18017	0.12562	-1	-1.325	-1.8833	-1.2188	-1.5208	-1.6437	-1.1917	-2.1437	-1.1479	-1.0833	-1.9062	-1.125	-1.8375	-1.6875	-1.0792	-1.8521	152.748	47.410	198.116	390.552	211.202	75.500	273.908	187.038	58.216	101.104	306.106	203.994	292.780	44.333	301.269	387.936	0.0004922	0.00064507	0.00018169	790.54	5.3569e-06	5.4802e-06	852.17	284.31	5.3699e-06	7.6459e-06	360.63	143.47	107.21	52.029	5.1137e-06	77.36	0.00044754	0.00042031	0.00011676	790.11	4.6354e-06	4.6092e-06	857.3	285.31	4.6569e-06	4.6028e-06	362.48	145.71	108.67	52.73	4.6283e-06	77.883	192.481	127.398	119.759	54.624	197.413	171.150	54.467	60.903	226.469	216.307	58.967	65.004	66.496	71.809	201.628	69.364	-8191	255	
636.628	1	1	0	0	0.22017	0.18062	0.16142	0.1501	0.18652	0.12013	0.33202	0.17371	0.16358	0.12111	0.1503	0.14193	0.28665	0.11314	0.17282	0.088538	-0.925	-1.1292	-2.0771	-1.1437	-1.5521	-1.7292	-1.1604	-1.9688	-1.2021	-1.2125	-1.9792	-1.1437	-1.4479	-1.9417	-0.85833	-2.0396	153.025	80.813	332.366	396.158	262.467	109.457	222.947	352.038	61.294	193.608	85.201	397.284	123.488	54.054	154.971	381.999	0.00049786	0.00036175	9.4646e-05	788.08	5.1316e-06	5.0577e-06	860.06	281.72	5.2568e-06	4.1941e-06	362.18	144.27	106.56	51.747	4.9502e-06	77.452	0.00044784	0.00042593	0.000116	791.46	4.6022e-06	4.5593e-06	861.41	284	4.6606e-06	4.5534e-06	362.79	145.74	108.04	52.508	4.6271e-06	77.974	192.709	142.077	134.456	54.596	195.729	188.201	54.465	60.784	214.401	213.693	59.078	64.804	66.682	71.856	247.114	69.628	-8191	255	
636.747	1	1	0	0	0.15893	0.015526	0.046932	0.072089	0.24619	0.13213	0.15922	0.2745	0.2018	0.079563	0.32004	0.13015	0.18469	0.08377	0.25747	0.35515	-1.0417	-1.0542	-1.8208	-1.2146	-1.3854	-1.8646	-1.0688	-1.8625	-1.6042	-1.2812	-2.0812	-1.1771	-1.5333	-1.9875	-0.78333	-1.6396	381.662	65.358	200.624	67.314	192.612	378.453	43.478	293.923	81.195	126.848	309.148	345.705	373.379	231.770	45.450	401.095	0.00053343	0.00019162	0.00015878	793.11	8.8548e-06	3.9406e-06	862.4	283.73	5.1104e-06	1.6395e-06	364.02	145.01	106.85	52.294	3.3792e-06	79.022	0.0004518	0.00041801	0.00011762	794.28	4.5736e-06	4.5679e-06	862.18	285.45	4.6325e-06	4.6077e-06	364.81	146.56	108.32	52.833	4.6083e-06	79.011	190.449	217.392	166.957	54.457	195.835	132.909	54.378	60.756	222.976	228.953	59.298	64.785	66.321	72.145	223.917	69.476	-8191	255	
636.819	1	1	0	0	0.098533	0.033244	0.18622	0.41052	0.12645	0.40772	0.21764	0.15874	0.21072	0.16831	0.14554	0.1373	0.18679	0.11743	0.18143	0.095008	-1.0792	-0.96042	-1.7833	-1.3104	-1.3	-1.8813	-1.1854	-1.7292	-1.5771	-1.1146	-1.9292	-1.5479	-1.225	-2.0479	-0.93542	-1.8396	311.744	66.950	333.453	358.052	220.408	168.160	310.060	94.084	79.206	295.276	92.910	401.100	333.614	109.751	115.202	390.465	0.00054538	0.00052997	0.00012811	789.05	8.7105e-06	4.3153e-06	860.84	282.72	3.8982e-06	7.6097e-06	366.89	146.38	107.12	52.515	4.0811e-06	78.872	0.00044741	0.00041957	0.00011618	793.4	4.6449e-06	4.5404e-06	863.97	285.43	4.6367e-06	4.5608e-06	366.81	147.83	108.84	53.233	4.5632e-06	79.376	192.577	87.772	170.240	54.633	225.961	178.415	54.417	60.856	204.828	185.338	59.255	64.808	66.643	71.861	242.950	69.521	-8191	255	
636.915	1	1	0	0	0.37218	0.24104	0.17074	0.11003	0.089856	0.25801	0.29116	0.48713	0.17299	0.19202	0.2327	0.28222	0.3392	0.22835	0.084427	0.14173	-1.2563	-0.98125	-1.6833	-1.2479	-1.0396	-1.7563	-1.0187	-1.6708	-1.6708	-0.96667	-1.9354	-1.5	-1.1479	-1.9896	-1.1875	-1.6938	209.255	174.054	363.501	55.905	255.335	365.955	387.025	343.280	371.378	247.430	344.289	384.102	365.725	325.058	122.192	340.538	0.000501	0.00051653	0.00014118	791.59	5.4077e-06	5.2132e-06	860.63	282.65	5.2645e-06	3.0576e-06	360.35	144.79	106.88	52.336	5.9856e-06	77.983	0.00043953	0.00041588	0.00011601	792.76	4.5578e-06	4.5538e-06	859	284.65	4.561e-06	4.5745e-06	363.05	146.25	108.45	53.027	4.6417e-06	78.497	189.051	158.405	149.517	54.555	199.617	213.463	54.469	60.801	200.666	194.818	59.045	64.875	66.364	71.766	234.604	69.567	-8191	255	
637.036	1	1	0	0	0.16318	0.24308	0.25425	0.1654	0.020436	0.11858	0.20371	0.25829	0.077867	0.1368	0.072084	0.16881	0.22049	0.29187	0.12679	0.061554	-1.6333	-1.0771	-1.7792	-1.55	-0.88958	-1.9583	-1.0917	-1.425	-1.8542	-1.0125	-1.7979	-1.6771	-1.1167	-1.9292	-1.4396	-1.5583	369.318	187.437	257.443	390.310	45.115	290.089	350.654	276.836	308.226	82.572	344.091	367.774	345.162	390.883	310.227	254.848	0.00051738	0.0005334	0.00018063	785.39	4.5301e-06	3.4443e-06	853.79	282.07	2.1693e-06	5.933e-06	361.85	144.59	107.46	52.616	2.6153e-06	78.317	0.0004386	0.00041569	0.00011642	787.96	4.5629e-06	4.5373e-06	854.32	285.12	4.5939e-06	4.6656e-06	362.96	146.38	109.08	53.316	4.6532e-06	78.955	190.928	149.509	132.281	54.272	217.733	206.873	54.150	60.816	190.038	184.482	59.161	64.360	66.367	71.655	198.505	69.537	-8191	255	
637.132	1	1	0	0	0.061584	0.092815	0.26853	0.23804	0.29596	0.058983	0.38705	0.18666	0.053871	0.30472	0.12684	0.26114	0.42408	0.24999	0.067909	0.33361	-1.4042	-1.0604	-1.5938	-1.9208	-0.88542	-1.8646	-1.3583	-1.0146	-2.0875	-1.3292	-1.7104	-1.8625	-0.9875	-1.8542	-1.325	-1.3042	210.275	303.167	244.462	341.161	251.617	393.530	356.560	121.185	159.756	142.860	321.158	49.767	45.887	370.908	341.693	320.883	0.0004766	0.00056671	0.00018237	786.14	5.689e-06	5.5694e-06	859.21	283.8	3.8237e-06	7.2206e-06	365.14	145.39	107.6	52.871	7.5255e-06	79.2	0.00044051	0.00041823	0.00011564	788.07	4.5417e-06	4.5248e-06	859.09	285.55	4.536e-06	4.5374e-06	364.86	147.13	109.18	53.465	4.6169e-06	79.508	196.288	151.908	141.141	54.233	217.165	201.413	54.291	60.830	213.100	215.003	58.832	64.563	66.454	71.808	225.860	69.575	-8191	255	
637.228	1	1	0	0	0.10638	0.5352	0.12975	0.22431	0.12376	0.13531	0.24536	0.20843	0.34708	0.15413	0.22929	0.14767	0.34088	0.20711	0.21587	0.058503	-1.6333	-0.925	-1.5104	-1.8896	-1.0479	-1.5875	-1.6063	-1.1833	-1.9	-1.1396	-1.3542	-1.9271	-1.0604	-1.8271	-1.5083	-1.1792	293.850	318.252	43.179	356.556	252.102	104.953	348.528	361.173	48.337	291.077	371.681	398.562	320.251	61.955	273.633	249.778	0.00048262	0.00060057	0.00024449	789.02	4.676e-06	2.3856e-06	865.59	282.66	4.6919e-06	3.0188e-06	365.9	145.6	106.71	52.614	5.6341e-06	79.458	0.00044128	0.00041943	0.0001167	791.96	4.597e-06	4.5524e-06	864.83	285.38	4.6229e-06	4.6172e-06	365.63	147.44	108.73	53.263	4.5871e-06	79.699	192.147	123.286	115.946	54.676	210.691	84.297	54.553	60.707	229.831	185.704	59.159	64.745	66.534	71.935	209.774	69.401	-8191	255	
637.324	1	1	0	0	0.10967	0.10866	0.072636	0.12444	0.032213	0.40401	0.14752	0.17246	0.18213	0.27572	0.056579	0.25262	0.30836	0.22019	0.29657	0.25555	-1.5625	-1.1917	-1.2	-1.8896	-1.1208	-1.6562	-1.8521	-1.0458	-1.8208	-1.2146	-1.4021	-1.9021	-1.2875	-1.8188	-1.5104	-1.0854	177.314	173.389	179.175	190.549	65.786	226.726	249.133	294.036	69.074	286.789	359.850	353.210	371.039	350.978	117.329	386.086	0.00052009	0.00047017	0.00017078	793.82	7.687e-06	5.8862e-06	866.75	284.27	4.3745e-06	6.8503e-06	364.83	147.4	107.42	52.947	3.5367e-06	79.466	0.00044568	0.00042548	0.00011799	792.58	4.5515e-06	4.5796e-06	864.52	286.18	4.5723e-06	4.5785e-06	366.24	148.44	109.27	53.755	4.6361e-06	80.009	197.637	82.172	143.115	54.731	226.570	219.253	54.327	60.551	218.552	197.920	59.204	64.780	66.343	71.778	225.587	69.519	-8191	255	
637.420	1	1	0	0	0.089371	0.0048573	0.12669	0.11958	0.099313	0.029301	0.20108	0.2428	0.22737	0.079829	0.2111	0.26627	0.19365	0.13459	0.072149	0.19501	-1.3813	-1.4	-1.2271	-2.0021	-1.1313	-1.6646	-1.8479	-1.1542	-1.7125	-1.4354	-1.0938	-1.9813	-1.15	-1.7417	-1.7875	-0.9875	278.737	78.849	151.069	367.483	129.887	386.994	353.694	347.345	348.395	391.558	280.040	233.368	390.473	113.766	289.667	385.671	0.000526	0.00070569	0.00017328	787.06	5.2104e-06	4.6984e-06	855.33	282.69	3.0508e-06	5.0091e-06	364.36	145.63	108.5	53.136	5.9122e-06	79.483	0.00044561	0.00041674	0.00011785	785.96	4.5388e-06	4.514e-06	855.12	285.42	4.5495e-06	4.5886e-06	364.04	147.61	109.6	53.921	4.6116e-06	79.65	184.573	100.776	144.080	54.592	223.960	142.840	54.241	60.593	225.940	196.715	58.659	64.705	65.964	72.003	234.534	69.163	-8191	255	
637.516	1	1	0	0	0.31774	0.22733	0.18435	0.29867	0.26549	0.22081	0.22139	0.31678	0.050601	0.20042	0.062577	0.31081	0.12146	0.19869	0.082918	0.15917	-1.5187	-1.5	-0.88125	-1.9312	-0.975	-1.5396	-1.8896	-1.2042	-1.6542	-1.5187	-1.0646	-2.0646	-1.3417	-1.3646	-1.8021	-1.0167	166.478	86.198	47.947	77.958	95.229	338.590	281.896	71.217	150.989	158.257	203.334	400.828	175.333	371.261	188.791	116.942	0.00051463	0.00046764	8.1276e-05	782.44	2.8955e-06	6.3778e-06	857.35	283.13	3.5242e-06	3.8973e-06	362.6	146.57	109.09	52.99	7.1031e-06	79.349	0.00044346	0.00041984	0.00011672	784.69	4.5796e-06	4.5271e-06	853.96	285.48	4.5712e-06	4.5684e-06	363.92	147.74	109.97	53.843	4.551e-06	79.725	194.199	137.326	152.714	54.757	212.947	177.709	54.092	60.507	199.751	189.582	59.045	64.680	66.319	71.733	204.140	69.344	-8191	255	
637.611	1	1	0	0	0.26337	0.27995	0.14403	0.08039	0.15244	0.08879	0.25613	0.29723	0.24197	0.04654	0.20933	0.032249	0.19876	0.11574	0.027713	0.18677	-1.2	-1.7563	-1.05	-1.9354	-1.1938	-1.1938	-2.0771	-1.0562	-1.6271	-1.8104	-0.93542	-2.0167	-1.4167	-1.4062	-1.9604	-1.3417	143.498	382.886	147.373	270.620	267.405	276.470	255.282	326.761	294.488	101.333	391.696	315.083	300.730	232.971	46.228	294.633	0.00059567	0.00040635	3.9065e-05	785.59	6.0644e-06	5.8278e-06	857.95	283.78	6.1642e-06	5.3357e-06	364.17	146.13	108.18	52.565	4.8491e-06	79.131	0.00045082	0.00042101	0.00011605	787.03	4.5787e-06	4.6059e-06	856.98	285.62	4.6535e-06	4.6206e-06	364.22	147.74	109.28	53.338	4.6721e-06	79.427	192.936	112.387	132.192	54.934	213.659	210.344	54.406	60.879	203.699	217.483	58.902	64.879	66.244	71.954	220.665	69.245	-8191	255	
637.709	1	1	0	0	0.26284	0.36867	0.20811	0.21204	0.25016	0.05965	0.18832	0.19839	0.04301	0.23465	0.30731	0.23353	0.15287	0.077458	0.11843	0.20869	-1.2583	-1.8042	-0.87708	-1.85	-1.4583	-1.0583	-2.1125	-1.1875	-1.4125	-1.8833	-1.1	-2.0417	-1.6063	-1.2354	-2.0167	-1.4354	112.388	247.211	184.349	53.404	395.340	69.263	359.586	304.467	402.706	382.974	310.967	62.915	67.952	346.055	324.112	368.262	0.00052156	0.00023079	0.00016374	788.09	6.3895e-06	4.6678e-06	858.54	282.89	3.2026e-06	3.213e-06	363.51	145.38	107.2	52.121	4.2754e-06	78.887	0.00044919	0.00041958	0.00011774	791.34	4.6977e-06	4.6455e-06	860.63	284.65	4.7059e-06	4.6187e-06	364.68	147.19	108.59	52.975	4.6305e-06	79.293	194.235	160.165	127.801	54.571	204.973	254.524	54.230	60.694	191.452	216.850	58.792	64.628	66.482	71.992	251.662	69.370	-8191	255	
637.827	1	1	0	0	0.13831	0.18846	0.13676	0.071482	0.11024	0.099129	0.20575	0.11756	0.18062	0.16811	0.10193	0.16936	0.093872	0.16408	0.18873	0.39855	-1.0688	-1.9188	-0.82708	-1.7812	-1.5958	-1.0312	-2.125	-1.3687	-1.2792	-1.8792	-1.1958	-1.9125	-1.3937	-1.1875	-1.7729	-1.3687	77.467	190.502	104.304	389.485	317.802	136.734	92.801	285.670	320.622	265.778	394.153	312.776	361.484	298.067	206.482	326.435	0.00051498	0.00035316	0.00011182	788.55	6.3677e-06	5.7514e-06	861.19	282.67	4.3958e-06	1.0437e-05	363.58	146.09	106.92	52.338	4.2367e-06	78.446	0.00044666	0.00042146	0.00011755	790.58	4.5761e-06	4.6078e-06	860.88	284.49	4.6264e-06	4.5322e-06	363.11	147.13	108.36	53.151	4.6309e-06	78.817	189.587	189.746	156.460	54.768	164.537	226.179	54.224	60.721	197.998	172.873	58.917	64.917	66.221	72.106	262.897	69.574	-8191	255	
637.924	1	1	0	0	0.11257	0.081085	0.23428	0.1178	0.14495	0.25653	0.16583	0.24899	0.11119	0.13971	0.35494	0.13238	0.11813	0.21113	0.059613	0.080825	-1.0125	-1.7854	-0.8	-1.65	-1.5729	-1.0854	-1.85	-1.5167	-1.1896	-2.0167	-1.1979	-1.7062	-1.6625	-0.99583	-1.8896	-1.4979	197.705	118.949	104.313	114.844	303.437	356.174	397.458	340.866	140.095	181.958	314.935	381.602	367.031	285.077	123.086	272.797	0.00053683	0.00034139	0.00018373	777.02	6.693e-06	5.3342e-06	852.73	281.18	5.6787e-06	3.0267e-06	360.57	145.04	107.31	52.492	1.4607e-06	78.81	0.00044684	0.00042006	0.00011711	782.6	4.6183e-06	4.6177e-06	851.57	283.5	4.6951e-06	4.6012e-06	361.25	146.63	108.97	53.35	4.6896e-06	78.999	189.526	77.651	133.036	54.490	211.379	190.740	54.317	60.781	173.687	79.687	58.888	64.598	66.205	71.998	193.473	69.395	-8191	255	
638.020	1	1	0	0	0.31785	0.30433	0.094651	0.040207	0.091133	0.16694	0.15995	0.35612	0.19786	0.25792	0.10961	0.1798	0.13707	0.15641	0.12453	0.20611	-0.68958	-1.8854	-1.0458	-1.5854	-1.9604	-1.1938	-1.8083	-1.5292	-0.94167	-1.9312	-1.2583	-1.4542	-2.0104	-1.0521	-1.7333	-1.5917	318.636	228.111	54.367	64.745	62.196	114.314	58.033	338.157	88.099	83.061	218.444	328.387	183.474	359.426	199.687	375.168	0.00054181	0.00030683	9.8807e-05	780.63	3.3275e-06	4.113e-06	851.97	280.42	2.9005e-06	6.5195e-06	360.96	146.09	107.86	52.811	6.5433e-06	78.824	0.00045263	0.00042866	0.000119	783.54	4.6802e-06	4.6922e-06	851.26	284.02	4.6662e-06	4.6693e-06	362.42	147.48	109.38	53.541	4.731e-06	79.289	196.959	129.012	153.370	54.905	223.604	158.330	54.658	60.750	175.010	169.224	58.701	64.974	66.391	71.817	192.570	69.259	-8191	255	
638.116	1	1	0	0	0.3005	0.12007	0.42062	0.054679	0.24093	0.20231	0.15867	0.22415	0.28491	0.14903	0.39154	0.077566	0.35099	0.06864	0.11723	0.074855	-0.63958	-1.7771	-1.1146	-1.1354	-1.8083	-0.95208	-1.7563	-1.525	-0.73125	-2.0021	-1.4604	-1.1729	-1.7792	-1.0333	-1.5708	-1.9188	45.443	48.312	134.390	57.825	324.055	182.840	276.662	384.979	147.791	259.880	344.958	295.281	353.522	355.940	173.051	45.037	0.00051526	0.00067522	0.00012385	785.13	5.2835e-06	6.3141e-06	853.63	282.49	3.191e-06	6.4337e-06	362.39	146.46	107.71	52.735	4.7977e-06	79.05	0.00045022	0.00041998	0.00011848	785.35	4.6168e-06	4.7088e-06	856.04	285.08	4.637e-06	4.6789e-06	363.33	148.05	109.13	53.485	4.7103e-06	79.569	192.030	162.851	124.997	54.701	201.281	189.867	54.339	60.617	193.982	139.475	59.226	64.946	66.393	72.045	267.017	69.310	-8191	255	
638.212	1	1	0	0	0.13238	0.26873	0.2518	0.12165	0.11981	0.241	0.25616	0.38704	0.10232	0.12337	0.28497	0.18971	0.20484	0.089689	0.37579	0.14573	-0.64583	-1.7458	-1.2167	-1.2687	-1.9208	-0.98958	-1.4312	-1.6917	-0.81458	-1.7229	-1.4125	-1.2896	-1.8792	-1.3125	-1.3813	-1.8125	237.030	398.688	197.532	239.794	76.014	349.102	319.374	48.717	341.491	52.719	47.949	357.053	326.089	346.592	245.013	290.592	0.00050247	0.00052628	0.00017831	787.27	5.5972e-06	7.7554e-06	858.88	283.35	4.7549e-06	4.0405e-06	363.5	146.37	107.41	52.343	6.686e-06	79.064	0.00044912	0.00042508	0.00011929	790.87	4.6633e-06	4.6848e-06	862.25	285.23	4.637e-06	4.6709e-06	364.98	147.86	108.81	53.035	4.6412e-06	79.416	191.369	138.621	124.610	54.538	215.741	196.823	54.527	60.665	179.219	225.323	59.206	64.865	66.521	71.864	243.394	69.509	-8191	255	
638.308	1	1	0	0	0.1953	0.060463	0.085766	0.11104	0.21094	0.11534	0.24422	0.1251	0.14266	0.28932	0.24346	0.16146	0.072632	0.16946	0.11423	0.038772	-0.64792	-1.6917	-1.3563	-1.2437	-1.9854	-1.2458	-1.3958	-2.0292	-1.0375	-1.6667	-1.7583	-1.2021	-1.9188	-1.45	-1.1437	-2.1562	310.461	215.477	220.846	50.512	52.066	162.005	338.347	300.949	129.185	154.205	367.914	278.501	73.762	346.042	315.494	218.353	0.0005496	0.00064292	7.316e-05	790.9	3.9628e-06	5.6835e-06	857.75	282.13	5.0366e-06	6.5737e-06	361.52	145.87	107.82	52.447	4.6083e-06	78.719	0.00044953	0.0004155	0.00011615	790.23	4.4946e-06	4.5942e-06	858.37	284.05	4.5737e-06	4.5218e-06	362.93	147.04	108.93	53.322	4.5394e-06	79.013	194.331	126.904	139.712	54.795	210.914	160.036	54.734	60.772	222.193	162.538	59.059	64.776	66.641	71.878	236.010	69.490	-8191	255	
638.429	1	1	0	0	0.088219	0.048274	0.029686	0.27426	0.30511	0.14175	0.31479	0.086283	0.26216	0.30056	0.16402	0.22833	0.25235	0.070361	0.45787	0.16529	-0.68542	-1.6875	-1.7125	-1.0396	-1.8771	-1.2958	-1.4438	-2.025	-1.0833	-1.5812	-1.7979	-0.93125	-1.7896	-1.5479	-1.1063	-2.0292	209.850	275.330	341.625	369.526	78.627	166.725	329.665	80.547	330.406	289.905	45.087	269.916	312.402	256.059	306.758	308.313	0.00049093	0.00068065	0.0002161	779.43	5.1974e-06	6.0855e-06	847.08	281.74	4.4112e-06	4.5461e-06	361.05	146.1	107.77	52.841	2.2475e-06	78.622	0.00043882	0.00041905	0.00011511	782.76	4.5572e-06	4.6239e-06	850.5	284.37	4.6334e-06	4.6916e-06	361.67	147.16	109.37	53.661	4.7209e-06	79.173	194.285	101.321	92.438	54.518	181.193	184.193	54.487	60.896	223.353	140.508	59.295	64.824	66.356	71.864	184.767	69.465	-8191	255	
638.523	1	1	0	0	0.35091	0.17166	0.11592	0.29278	0.25176	0.068015	0.17189	0.14604	0.077774	0.2888	0.14647	0.029369	0.10642	0.27518	0.12528	0.48943	-0.68333	-1.5562	-1.8312	-0.9375	-1.8292	-1.525	-1.1271	-2.05	-1.0312	-1.5875	-1.9083	-1.1104	-1.8813	-1.6083	-1.05	-2.1188	96.620	353.972	286.538	64.994	234.558	274.267	316.043	389.703	262.345	302.904	335.608	167.342	267.264	58.961	395.996	390.053	0.00051568	0.00022941	0.00014258	784.22	6.7488e-06	5.3451e-06	851.17	282.5	3.9453e-06	6.2905e-06	362.47	146.02	108.19	52.888	7.9121e-06	78.544	0.00045835	0.00043366	0.00011829	782.98	4.804e-06	4.7942e-06	852.37	285.02	4.7897e-06	4.7297e-06	363.25	147.52	109.45	53.508	4.7032e-06	79.02	186.062	179.033	131.215	54.758	186.389	224.511	54.638	60.696	223.377	228.831	58.978	64.787	66.315	72.124	192.090	69.552	-8191	255	
638.619	1	1	0	0	0.17741	0.16428	0.041125	0.30446	0.080214	0.12391	0.3997	0.279	0.45269	0.14307	0.076834	0.14901	0.13089	0.14632	0.24269	0.20268	-0.78333	-1.2771	-1.8458	-1.2083	-1.7188	-1.6979	-1.2146	-2.0729	-1.2583	-1.4688	-2.0375	-1.0979	-1.7313	-1.8083	-1.1146	-2.025	320.114	262.128	362.577	332.140	166.080	112.961	262.541	245.262	102.151	328.451	337.227	43.669	399.984	82.668	401.285	46.744	0.00054077	0.00046989	0.000181	781.55	5.3133e-06	6.4449e-06	858.6	283.49	4.3409e-06	3.6873e-06	364.13	145.71	108.15	52.208	6.0688e-06	78.473	0.00045989	0.00043631	0.00012056	784.12	4.7445e-06	4.7769e-06	856.87	285.11	4.7077e-06	4.7256e-06	364.39	147.62	109.31	53.113	4.7745e-06	78.947	188.462	94.933	115.283	54.742	194.527	206.834	54.611	60.756	170.098	194.950	58.879	64.650	66.280	71.934	202.403	69.577	-8191	255	
638.716	1	1	0	0	0.12883	0.21037	0.18913	0.3116	0.12318	0.17783	0.4967	0.058708	0.32837	0.11061	0.13317	0.19476	0.10648	0.25639	0.24727	0.11684	-0.83125	-1.1042	-1.7542	-1.2708	-1.5187	-1.85	-1.1437	-1.9708	-1.2958	-1.1646	-1.8583	-1.2	-1.5917	-1.8583	-0.99583	-1.9458	350.941	342.160	165.618	374.577	332.763	317.297	182.176	301.487	106.386	109.926	126.438	374.578	380.401	141.308	69.624	298.785	0.00048781	0.0002811	0.00015868	789.23	7.1501e-06	1.0883e-05	866.79	284.24	4.8123e-06	3.9123e-06	364.53	144.69	106.94	51.704	5.2705e-06	77.51	0.00046698	0.00043021	0.00012149	790.67	4.767e-06	4.7744e-06	864.16	285.7	4.7761e-06	4.7988e-06	364.28	146.57	108.34	52.536	4.7193e-06	77.907	188.295	102.810	138.642	54.594	192.082	185.986	54.456	60.456	241.652	212.270	58.916	64.811	66.592	71.828	204.234	69.590	-8191	255	
638.812	1	1	0	0	0.09204	0.3421	0.20725	0.16259	0.07996	0.19822	0.12742	0.16002	0.22343	0.20082	0.19039	0.48831	0.19677	0.26009	0.24566	0.26565	-1.0625	-1.1562	-1.9354	-1.4083	-1.425	-1.825	-1.2292	-1.5979	-1.3563	-1.2417	-1.7417	-1.3563	-1.4417	-1.9771	-0.925	-1.7313	150.054	377.475	152.118	309.171	399.949	396.322	336.629	369.893	394.467	112.104	60.662	399.199	401.915	398.559	170.422	66.626	0.00049192	0.00061689	0.00015316	790.64	3.9688e-06	6.307e-06	862.99	281.27	5.249e-06	7.9013e-06	359.95	143.93	106.88	51.811	4.7467e-06	77.324	0.00045757	0.00043536	0.00011978	791.37	4.6851e-06	4.6523e-06	858.43	284.01	4.7754e-06	4.6204e-06	361.58	145.35	108	52.52	4.6176e-06	77.463	184.540	116.882	132.923	54.568	207.199	172.757	54.319	60.632	209.634	191.384	59.243	64.772	66.445	71.744	204.056	69.756	-8191	255	
638.908	1	1	0	0	0.13962	0.06318	0.094087	0.11116	0.059033	0.048054	0.072421	0.23573	0.10209	0.13813	0.23177	0.13391	0.20124	0.19261	0.18538	0.13761	-1.2125	-1.1688	-1.8062	-1.4896	-1.2958	-1.9125	-1.1917	-1.6125	-1.8583	-0.98125	-2.1312	-1.2833	-1.2271	-1.9083	-0.94375	-1.7188	133.677	125.554	60.419	368.922	129.148	208.550	394.609	371.117	399.893	70.242	334.499	75.451	79.736	87.524	91.610	358.003	0.00055047	0.00041719	0.00013595	784.8	8.0199e-06	6.0865e-06	849.71	281.79	4.3109e-06	6.3815e-06	362.15	144.86	107.16	52.329	4.4984e-06	78.221	0.00044444	0.00041733	0.00011617	786.14	4.5775e-06	4.5045e-06	851.34	284.2	4.5934e-06	4.6166e-06	361.69	146.26	108.96	53.175	4.6977e-06	78.573	193.988	158.340	122.207	54.607	204.325	203.049	54.381	60.705	214.518	229.988	59.186	64.658	66.524	71.632	201.173	69.454	-8191	255	
639.004	1	1	0	0	0.26958	0.10956	0.16229	0.16337	0.11557	0.19023	0.35058	0.091617	0.045422	0.15452	0.10277	0.2397	0.29064	0.21241	0.22015	0.11612	-1.4875	-1.0479	-1.9375	-1.5125	-1.1292	-1.85	-1.3208	-1.3021	-1.8604	-0.96042	-1.9708	-1.3542	-1.3687	-2.1979	-1.0646	-1.7354	220.782	221.233	43.526	268.772	216.022	163.117	313.160	73.814	95.880	329.088	379.579	218.871	314.242	284.603	207.101	336.021	0.00052287	0.0001325	0.00018587	781.4	3.7608e-06	6.0171e-06	852.19	282.26	3.6211e-06	5.7514e-06	364.97	146.2	108.6	52.872	7.218e-07	79.054	0.00044947	0.00042687	0.00011885	783.97	4.6971e-06	4.7045e-06	853.39	285.19	4.747e-06	4.7609e-06	364.55	147.94	109.64	53.691	4.8782e-06	79.499	191.965	111.245	147.894	54.466	202.608	205.780	54.151	60.778	176.038	169.995	59.050	64.900	66.472	71.770	315.946	69.461	-8191	255	
639.125	1	1	0	0	0.096335	0.08539	0.17847	0.16616	0.33355	0.27194	0.25943	0.20027	0.09008	0.19856	0.082638	0.06628	0.22641	0.18538	0.42759	0.06102	-1.4896	-0.93125	-1.625	-1.5042	-0.94375	-1.9958	-1.4354	-1.3875	-1.9417	-0.92708	-1.7958	-1.7021	-0.93958	-2.0958	-1.1292	-1.5146	195.481	173.296	395.138	102.503	308.844	212.086	388.089	328.862	85.754	320.829	99.898	374.373	373.264	313.620	317.667	54.391	0.00051334	0.000586	0.00013067	781.28	7.5796e-06	3.5122e-06	856.48	283.3	4.0893e-06	3.2982e-06	365.29	147.1	108.27	53.034	5.2164e-06	79.503	0.00046736	0.00043618	0.00012248	785.01	4.8114e-06	4.8516e-06	856.87	285.95	4.7366e-06	4.8106e-06	366.17	148.57	109.93	53.73	4.9215e-06	79.936	190.445	146.254	133.010	54.458	193.707	210.796	54.268	60.915	237.505	121.253	59.095	64.581	66.480	71.736	176.858	69.476	-8191	255	
639.221	1	1	0	0	0.31279	0.22251	0.12863	0.26891	0.15725	0.16007	0.26305	0.2128	0.29075	0.19862	0.23192	0.31373	0.26818	0.36819	0.15223	0.18302	-1.6458	-1.0146	-1.6688	-1.8021	-0.91667	-1.9979	-1.4021	-1.3813	-1.7792	-1.0562	-1.8083	-1.8625	-1.1396	-2.0187	-1.4562	-0.98958	398.861	272.710	94.129	267.934	377.469	370.312	353.245	382.736	324.346	368.157	345.656	373.189	287.819	350.706	176.498	329.700	0.00052461	0.00090734	0.00011481	787.35	5.8829e-06	1.8992e-06	858.7	281.5	2.9931e-06	8.3096e-06	362.11	145.7	107.13	52.34	4.506e-06	78.042	0.00047065	0.00044082	0.00012322	788.46	4.86e-06	4.7904e-06	859.56	285.06	4.8109e-06	4.8634e-06	364.01	147.19	109.12	53.057	4.8569e-06	78.4	192.519	136.482	179.586	54.614	200.207	72.600	54.229	60.881	211.115	185.366	59.086	64.664	66.557	72.104	223.664	69.187	-8191	255	
639.292	1	1	0	0	0.35394	0.30302	0.3184	0.054037	0.063902	0.074068	0.19728	0.14252	0.28544	0.19582	0.13147	0.32349	0.18299	0.08905	0.071691	0.14437	-1.5792	-1.05	-1.5	-2.0646	-0.93958	-1.6271	-1.5458	-1.3042	-1.9125	-1.0729	-1.4229	-1.9937	-0.88958	-1.9125	-1.6313	-1.1729	265.454	133.170	387.313	97.303	165.077	345.124	55.434	98.351	63.855	127.212	384.755	223.472	76.349	365.990	70.763	384.198	0.00051498	0.00016575	0.00018378	789.41	2.869e-06	4.5465e-06	855.92	282.57	3.7526e-06	5.8276e-06	362.09	144.26	106.69	51.974	6.175e-07	76.891	0.00046017	0.0004401	0.0001218	790.18	4.7954e-06	4.9183e-06	856.47	284.66	4.8088e-06	4.8401e-06	362.39	145.72	108.53	52.692	4.872e-06	77.368	188.599	120.941	171.954	54.641	213.858	212.609	54.106	60.664	179.638	227.382	59.086	64.489	66.182	71.825	180.387	69.366	-8191	255	
639.389	1	1	0	0	0.13788	0.20252	0.26593	0.1712	0.2793	0.10533	0.05646	0.11303	0.056796	0.40159	0.01226	0.32195	0.11397	0.11957	0.20126	0.21938	-1.5042	-1.1187	-1.1812	-1.9958	-0.98125	-1.7417	-1.7188	-1.1854	-1.7458	-1.3479	-1.2563	-1.9833	-1.0729	-1.7417	-1.4708	-1.0729	233.392	221.087	258.843	374.710	285.129	226.644	258.261	54.197	328.727	138.065	281.020	381.363	101.223	243.738	118.404	392.152	0.00052901	0.00076973	0.00011533	792.27	4.8236e-06	4.2103e-06	859.44	282.56	2.3519e-06	4.7541e-06	362.96	145.15	107.73	52.005	2.8389e-06	77.461	0.00046677	0.00044774	0.00012266	792.59	4.8379e-06	4.8277e-06	857.58	284.98	4.7786e-06	4.8922e-06	363.32	146.37	109	52.826	4.764e-06	77.666	190.924	134.537	215.018	54.483	208.864	181.774	54.371	60.804	212.755	187.427	59.159	64.689	66.523	72.025	211.654	69.423	-8191	255	
639.507	1	1	0	0	0.14638	0.12468	0.09694	0.2959	0.21129	0.34963	0.15294	0.14827	0.13425	0.068438	0.09741	0.43628	0.14108	0.095602	0.23749	0.14654	-1.5438	-1.2833	-0.96875	-1.9438	-1.0854	-1.3333	-1.6854	-1.2188	-2.0583	-1.5333	-1.2729	-1.9312	-1.2333	-1.4271	-1.7437	-1.1479	190.940	343.660	198.771	372.488	280.486	222.606	294.439	340.020	136.676	315.765	211.321	56.454	317.215	212.926	390.109	243.896	0.00049186	0.00064189	0.00018555	788.68	5.4834e-06	5.7228e-06	862.54	282.85	5.1911e-06	9.8602e-06	364.34	146.08	107.08	52.056	5.6915e-06	77.726	0.00046185	0.0004448	0.00012118	792.39	4.8235e-06	4.8132e-06	860.91	285.35	4.8055e-06	4.8537e-06	365.17	147.13	108.94	52.951	4.8245e-06	78.352	191.115	99.857	148.471	54.604	196.928	201.721	54.544	60.672	200.658	219.577	59.024	64.997	66.308	72.079	224.800	69.426	-8191	255	
639.604	1	1	0	0	0.12177	0.19263	0.14132	0.23734	0.073766	0.096738	0.33607	0.37445	0.11039	0.29966	0.028604	0.26404	0.17758	0.30752	0.082859	0.37465	-1.2979	-1.5583	-0.99792	-1.9771	-1.1521	-1.5354	-1.8417	-0.85417	-1.7188	-1.4729	-1.2896	-2.0229	-1.0583	-1.5021	-1.8875	-1.275	123.179	372.828	162.639	351.140	393.648	267.533	327.360	382.016	381.420	340.167	244.582	384.280	86.819	312.917	254.743	342.799	0.00050262	0.001123	0.00011351	793.11	3.1111e-06	1.0921e-05	863.83	283.7	4.9582e-06	6.464e-06	365.34	146.81	107.33	52.489	6.2803e-06	78.645	0.00047308	0.00045114	0.00012321	794.33	4.9326e-06	4.8923e-06	866.06	286.15	4.9275e-06	4.9681e-06	366.92	148.3	109.23	53.158	4.8978e-06	79.029	195.517	135.185	98.307	54.485	168.585	180.712	54.365	60.773	194.650	204.238	58.967	65.005	66.500	71.900	214.126	69.689	-8191	255	
639.700	1	1	0	0	0.22111	0.060843	0.10698	0.11101	0.24094	0.26906	0.075423	0.35338	0.36944	0.1452	0.018569	0.16682	0.029406	0.12879	0.1561	0.13859	-1.2417	-1.5812	-1.0771	-1.8104	-1.2875	-1.2542	-2.1479	-0.95208	-1.5521	-1.8271	-1.1354	-1.9896	-1.3708	-1.3167	-1.7604	-1.1771	180.104	397.653	257.254	382.264	231.890	338.511	323.929	372.265	229.368	145.119	155.526	283.421	326.294	357.319	362.327	347.749	0.00048294	0.00075457	0.0001241	795.27	2.3932e-06	4.5249e-06	862.44	283.07	4.0377e-06	2.2355e-06	361.28	145.45	106.76	51.855	7.0539e-06	77.1	0.00047201	0.00045439	0.00012749	795.35	4.9478e-06	4.9303e-06	861.36	285.24	4.9636e-06	4.9378e-06	363.61	146.63	108.61	52.656	4.9607e-06	77.471	192.919	157.572	143.045	54.687	186.615	131.510	54.498	60.710	197.474	197.987	59.117	64.862	66.367	72.068	233.515	69.602	-8191	255	
639.796	1	1	0	0	0.083151	0.34531	0.048538	0.2651	0.1058	0.20038	0.09784	0.24705	0.054999	0.067814	0.045168	0.22962	0.06246	0.44036	0.11161	0.20705	-1.2875	-1.7646	-0.93542	-1.8396	-1.4875	-1.1417	-2.0021	-1.2229	-1.6521	-1.9125	-0.89375	-1.8563	-1.5854	-1.1104	-1.9896	-1.1896	396.477	80.422	99.844	59.985	144.618	180.065	282.714	331.119	198.885	212.078	141.706	317.420	349.553	329.520	290.479	384.990	0.00050269	0.0001947	0.00018673	790.97	3.7739e-06	4.0248e-06	859.98	283.39	5.546e-06	4.4964e-06	360.59	144.46	106.81	51.794	4.6903e-06	76.676	0.00047461	0.00045169	0.00012371	792.34	4.9625e-06	4.9554e-06	859.05	284.74	4.918e-06	4.9191e-06	362.46	145.77	108.5	52.503	4.9697e-06	77.104	194.834	183.303	169.449	54.768	204.374	173.287	54.575	60.800	187.346	210.468	58.933	65.047	66.514	71.996	236.895	69.566	-8191	255	
639.917	1	1	0	0	0.21286	0.12929	0.21272	0.086992	0.23182	0.29083	0.24391	0.10546	0.18353	0.4325	0.082408	0.22252	0.015582	0.074682	0.1919	0.38519	-0.82708	-2.0104	-0.84792	-1.9229	-1.3979	-1.2646	-2.1167	-1.3188	-1.4688	-1.8833	-1.1583	-1.8354	-1.7062	-1.025	-1.7792	-1.3813	334.619	247.507	285.265	89.869	79.713	383.334	45.894	227.597	230.568	248.529	217.249	355.441	69.693	340.546	351.518	355.970	0.00053246	0.00015141	8.5008e-05	791.37	6.3405e-06	4.5462e-06	861.08	280.57	4.7415e-06	4.5649e-06	360.74	144.51	107.05	51.932	2.5235e-06	77.113	0.0004811	0.00044679	0.00012794	792.28	4.9464e-06	4.8972e-06	861.04	284.51	4.9881e-06	4.9761e-06	363.66	146.24	108.67	52.651	4.9692e-06	77.672	190.022	172.784	121.093	55.027	231.295	157.651	54.874	60.871	223.037	178.833	59.299	65.139	66.667	72.227	254.623	69.645	-8191	255	
639.988	1	1	0	0	0.14372	0.18914	0.063432	0.23703	0.063319	0.083269	0.189	0.11407	0.16884	0.080978	0.16825	0.28496	0.26553	0.10348	0.25612	0.011294	-0.80833	-1.8479	-0.83958	-1.6167	-1.7583	-1.1104	-2.0333	-1.5625	-1.0583	-1.8792	-0.96458	-1.6167	-1.8833	-1.1187	-1.8729	-1.7708	197.503	281.456	44.480	365.881	55.688	118.361	271.965	65.409	366.651	295.264	376.186	369.568	364.151	354.404	227.144	235.504	0.00053803	0.00069037	9.6901e-05	788.46	8.5073e-06	6.4182e-06	863.15	282.52	7.318e-06	3.5901e-06	363.95	145.47	107.18	52.081	5.5566e-06	78.048	0.00047309	0.0004517	0.00012623	791.73	4.9264e-06	4.9485e-06	864.06	285.46	4.9016e-06	4.9086e-06	364.93	147.33	108.8	52.924	4.9741e-06	78.601	194.987	132.528	139.702	54.770	230.077	286.258	54.502	60.767	216.449	207.753	59.381	65.201	66.800	72.270	203.545	69.752	-8191	255	
640.109	1	1	0	0	0.22216	0.069106	0.18425	0.35125	0.20306	0.017223	0.11057	0.2594	0.20511	0.076807	0.09946	0.14451	0.21027	0.047563	0.035113	0.28842	-0.76875	-1.6667	-1.0812	-1.55	-1.775	-1.0833	-1.8687	-1.5833	-1.0604	-1.9062	-1.3729	-1.4438	-1.925	-0.90208	-1.7792	-1.7313	122.965	117.714	145.001	208.532	52.430	142.879	288.562	50.806	140.412	143.258	331.126	370.970	53.588	327.454	120.444	385.892	0.00048702	0.00081707	0.00018706	790.23	3.739e-06	6.5866e-06	868.61	282.74	1.2723e-06	6.7048e-06	363.22	146.11	107.72	52.203	6.0877e-06	77.943	0.00047596	0.00045074	0.00012714	794.14	4.9206e-06	5.0355e-06	867.54	285.94	4.9495e-06	4.8972e-06	365.65	147.86	109.08	52.989	4.9892e-06	78.298	189.718	132.869	130.506	55.146	209.541	199.340	54.772	60.863	220.860	213.358	58.914	64.894	66.470	71.758	220.970	69.553	-8191	255	
640.205	1	1	0	0	0.098996	0.041987	0.16826	0.14329	0.07817	0.068326	0.11953	0.14255	0.063161	0.12	0.083934	0.2042	0.21599	0.2245	0.31527	0.19452	-0.69375	-1.9146	-1.1583	-1.5125	-1.8937	-0.76042	-1.5917	-1.5875	-0.80625	-1.975	-1.3417	-1.2542	-2.1292	-0.92708	-1.5854	-1.7333	135.053	314.980	271.541	315.183	133.037	199.389	163.451	331.192	80.852	155.567	386.144	372.947	103.899	272.265	360.867	260.288	0.00050352	0.00024837	0.00024696	791.37	6.3337e-06	4.2579e-06	857.68	282.24	5.6304e-06	8.653e-06	362.11	143.67	106.32	51.833	3.9307e-06	76.937	0.00047659	0.00044853	0.00012644	792.04	4.9229e-06	4.9391e-06	858.25	284.78	4.8669e-06	4.8526e-06	362.72	145.83	108.39	52.63	4.947e-06	77.32	190.546	168.610	120.095	54.933	186.305	182.460	54.643	60.834	162.536	211.673	59.068	64.792	66.696	72.271	186.706	69.645	-8191	255	
640.301	1	1	0	0	0.08209	0.072796	0.11933	0.21985	0.15399	0.26037	0.15443	0.040599	0.20677	0.040588	0.11026	0.11769	0.21573	0.23783	0.28074	0.20573	-0.6875	-1.8292	-1.4	-1.2854	-1.825	-0.99167	-1.4229	-1.8167	-1.1333	-1.8312	-1.4917	-1.3479	-2.075	-1.0833	-1.4542	-1.9375	398.564	158.446	288.344	135.255	58.418	115.823	242.574	104.239	47.253	325.901	311.094	231.882	142.767	380.014	143.616	63.103	0.0004805	0.00056904	0.00014673	787.92	5.2941e-06	6.047e-06	855.52	282.89	4.856e-06	6.3652e-06	361.19	144.33	107.05	52.063	4.972e-06	77.324	0.00046782	0.00045098	0.00012574	789.76	4.9179e-06	4.9704e-06	856.58	284.28	4.8781e-06	4.918e-06	362.38	146.08	108.52	52.677	4.8909e-06	77.672	193.240	115.846	110.957	54.854	202.902	202.987	54.586	60.586	212.979	185.721	59.260	65.030	66.681	71.945	245.838	69.656	-8191	255	
640.397	1	1	0	0	0.54429	0.10217	0.31942	0.24688	0.15478	0.027771	0.2029	0.19092	0.12347	0.029142	0.17612	0.41244	0.24147	0.21112	0.18462	0.24064	-0.5875	-1.65	-1.3937	-1.1625	-1.8312	-1.1354	-1.5125	-1.9854	-0.98125	-1.9062	-1.7229	-0.96042	-1.9958	-1.2479	-1.2771	-1.9521	264.289	189.989	397.859	330.240	361.036	359.516	315.400	298.626	358.974	145.262	353.310	332.234	74.964	187.082	91.928	390.342	0.0005115	0.00078919	0.00014689	787.84	5.1299e-06	3.9824e-06	864.83	281.09	3.2735e-06	3.8937e-06	361.88	145.69	106.8	52.042	6.0765e-06	78.139	0.00046993	0.00045056	0.00012531	789.9	4.8782e-06	4.9189e-06	863.17	284.53	4.8914e-06	4.9643e-06	363.07	146.98	108.75	52.892	4.933e-06	78.445	192.501	146.531	150.650	54.765	209.088	210.724	54.618	61.056	212.083	272.064	59.499	64.753	66.726	72.120	200.436	69.629	-8191	255	
640.518	1	1	0	0	0.16749	0.025376	0.23183	0.20525	0.23863	0.33455	0.29199	0.19266	0.023612	0.14715	0.2407	0.073325	0.11753	0.23786	0.11357	0.43436	-0.79583	-1.7375	-1.7687	-1.0229	-1.7896	-1.4146	-1.1521	-1.9479	-0.87708	-1.6229	-1.9021	-1.0583	-2.0187	-1.4792	-1.1354	-2.0896	243.808	88.753	402.099	376.561	392.737	353.917	279.116	322.741	190.920	157.021	350.025	223.759	264.986	358.173	153.369	363.904	0.00051495	0.00055351	3.757e-05	789.71	2.2848e-06	2.0266e-06	863.69	282.46	5.0955e-06	4.7843e-06	365.14	145.87	107.62	52.474	5.7315e-06	78.473	0.000471	0.0004451	0.00012525	791.19	4.8641e-06	4.8769e-06	862.66	284.78	4.9365e-06	4.9315e-06	364.73	147.48	109.2	53.083	4.9898e-06	78.914	194.458	115.294	145.390	54.738	184.440	186.146	54.687	61.023	215.224	240.157	59.182	64.843	66.707	72.290	190.022	69.587	-8191	255	
640.588	1	1	0	0	0.25227	0.17907	0.2329	0.047332	0.11995	0.29875	0.32949	0.087212	0.072623	0.18733	0.26993	0.28436	0.034501	0.24089	0.14815	0.23315	-0.84792	-1.4083	-1.6063	-1.0021	-1.7104	-1.4562	-1.1812	-1.9125	-1.1708	-1.5146	-1.8396	-1.275	-1.8292	-1.6354	-1.0021	-1.9125	278.254	355.896	140.713	137.532	331.810	367.572	367.359	165.336	77.406	258.971	394.479	348.304	268.422	342.286	317.905	369.590	0.00050654	0.00025065	0.0001808	792.54	3.3825e-06	5.6744e-06	858.28	283.51	4.9069e-06	5.0164e-06	362.7	145.45	107.47	51.97	3.0744e-06	77.673	0.00047402	0.00044566	0.00012421	793.24	4.9223e-06	4.9538e-06	861.3	285.01	4.8673e-06	4.9617e-06	363.96	146.7	109.06	52.895	4.8251e-06	78.07	193.342	129.695	117.787	54.852	201.977	246.708	54.568	61.078	220.130	192.178	59.249	65.080	66.831	72.205	199.505	69.879	-8191	255	
640.684	1	1	0	0	0.066872	0.13045	0.2135	0.32905	0.078878	0.12695	0.13638	0.048707	0.14244	0.11006	0.3387	0.082359	0.17667	0.25269	0.20852	0.14762	-0.88125	-1.4	-1.9542	-1.1229	-1.7062	-1.6437	-1.15	-2.15	-1.1875	-1.2917	-1.9708	-1.175	-1.7167	-1.9625	-0.925	-2.0563	367.354	237.036	261.437	74.102	374.013	117.701	352.965	323.771	396.923	349.736	272.998	161.268	379.867	69.437	348.183	349.402	0.000545	0.00079381	0.00021551	791.45	4.8066e-06	3.6846e-06	856.49	281.96	6.8088e-06	3.3392e-06	360.85	143.79	106.55	51.871	2.7322e-06	76.879	0.00046409	0.00044522	0.00012135	790.19	4.879e-06	4.873e-06	856.94	284.14	4.892e-06	4.8381e-06	361.34	145.56	108.3	52.576	4.8628e-06	77.289	188.737	124.530	128.395	54.917	180.428	212.570	54.782	60.963	228.759	114.175	59.658	65.048	66.831	72.202	249.608	69.824	-8191	255	
640.780	1	1	0	0	0.12744	0.13	0.20472	0.10248	0.16488	0.25171	0.2795	0.12036	0.24497	0.18095	0.31521	0.19379	0.18913	0.25075	0.089544	0.36659	-1.0167	-0.93125	-1.8167	-0.9625	-1.5146	-1.7667	-1.2583	-2.1208	-1.4104	-1.2208	-2.0396	-1.3417	-1.6271	-1.6708	-1.0875	-2.0271	102.367	208.842	206.788	87.205	58.682	115.867	347.641	273.944	246.977	366.651	277.314	71.408	379.020	369.057	103.576	319.140	0.00046196	0.0005217	0.00016345	787.62	2.4677e-06	1.3778e-06	852.65	280.71	1.732e-06	4.6308e-06	362.63	143.9	106.57	51.926	7.7142e-06	76.787	0.00047043	0.00044733	0.00012324	788.48	4.8279e-06	4.7966e-06	856.08	283.47	4.8313e-06	4.8407e-06	362.45	145.8	108.38	52.617	4.9199e-06	77.562	191.524	136.544	123.886	54.838	181.636	97.749	54.513	60.919	201.764	192.826	59.286	64.845	66.939	72.117	231.049	69.944	-8191	255	
640.901	1	1	0	0	0.33798	0.16045	0.069988	0.058234	0.49532	0.16076	0.10205	0.10661	0.33336	0.047956	0.25476	0.17137	0.18987	0.19692	0.073071	0.37832	-1.1313	-1.0771	-1.9188	-1.45	-1.4604	-1.8396	-0.96458	-1.8771	-1.4917	-1.1354	-2.1312	-1.3604	-1.4104	-1.8875	-0.88542	-1.9167	122.915	360.352	367.379	399.452	284.554	159.500	70.863	262.273	163.453	208.463	380.685	52.445	306.141	55.738	92.851	387.873	0.00048729	0.00046423	0.0001332	785.34	2.675e-06	2.6569e-06	861.51	282.97	3.8585e-06	5.6828e-06	362.38	144.53	107.18	51.791	7.4352e-06	77.764	0.00047131	0.00044284	0.0001227	788.2	4.8417e-06	4.8544e-06	860.83	284.1	4.852e-06	4.8329e-06	363.88	146.31	108.37	52.593	4.9316e-06	78.104	191.774	147.078	104.508	55.169	241.957	129.813	54.513	61.056	208.070	173.251	59.341	64.988	66.678	72.362	235.830	69.800	-8191	255	
640.997	1	1	0	0	0.25789	0.13308	0.20472	0.26661	0.28735	0.29156	0.3049	0.30871	0.36878	0.37867	0.026343	0.29417	0.26363	0.18064	0.14236	0.32294	-1.1583	-1.0187	-1.8958	-1.1729	-1.275	-1.9542	-1.1688	-1.6854	-1.5708	-1.1333	-1.8917	-1.4167	-1.0271	-2.125	-1.05	-1.6604	226.771	329.773	80.842	398.408	331.312	96.568	329.208	333.411	156.039	287.063	229.859	326.448	390.302	340.863	71.896	298.911	0.00052588	0.0002816	0.00020196	788.35	7.3418e-06	2.8342e-06	862.73	282.6	2.8927e-06	9.67e-06	363.21	145.58	106.84	52.095	6.1403e-06	78.562	0.00047076	0.00044104	0.00012462	789.76	4.9116e-06	4.9043e-06	862.76	284.04	4.9271e-06	4.997e-06	364.97	147.29	108.68	52.808	5.0113e-06	78.725	185.901	123.890	146.268	54.807	189.714	237.629	54.532	61.035	205.437	193.224	59.120	65.014	66.814	72.110	239.353	69.805	-8191	255	
641.093	1	1	0	0	0.17657	0.02448	0.13491	0.037563	0.076054	0.28635	0.019104	0.028602	0.28709	0.14971	0.029493	0.30324	0.13566	0.1691	0.091047	0.17263	-1.45	-0.91875	-1.6083	-1.575	-1.1292	-1.8813	-1.3708	-1.5812	-1.5271	-1.0667	-1.7646	-1.5583	-1.2167	-2.0458	-1.2917	-1.7625	228.794	77.655	138.502	267.845	249.690	202.911	302.550	315.110	66.275	126.399	191.967	379.023	241.086	138.104	333.665	264.883	0.00047339	0.00097893	0.00013868	788.78	3.5647e-06	7.5932e-06	860.99	281.69	4.9119e-06	7.8095e-06	360.13	144.42	106.38	51.865	6.0412e-06	76.948	0.000473	0.00045828	0.00012807	789.44	4.9767e-06	4.9651e-06	859.8	283.66	4.9657e-06	5.0151e-06	361.96	146.11	108.22	52.602	5.0594e-06	77.501	192.877	130.533	144.943	54.781	211.195	212.800	54.489	60.933	174.657	179.588	59.200	64.790	66.832	72.098	217.560	69.773	-8191	255	
641.189	1	1	0	0	0.14888	0.06902	0.15884	0.35966	0.048247	0.12343	0.14539	0.079751	0.087862	0.11728	0.16808	0.2307	0.17751	0.35141	0.26749	0.19225	-1.5333	-0.88125	-1.6792	-1.7	-0.9	-2	-1.3312	-1.2125	-1.7667	-1.1271	-1.6271	-1.5583	-1.2125	-2.0208	-1.2708	-1.3417	271.854	97.062	278.909	382.960	124.862	256.938	105.492	381.043	80.096	89.498	366.239	48.673	368.334	82.056	332.607	268.220	0.00049552	0.00072082	0.00013133	784.65	7.6156e-06	4.8979e-06	853.97	281.16	6.4256e-06	2.8118e-06	361.87	144.05	106.37	51.779	5.0843e-06	76.912	0.00047762	0.00046538	0.00012867	786.1	5.0253e-06	5.0737e-06	856.35	283.64	5.0261e-06	5.1486e-06	362.16	145.69	108.32	52.635	5.1109e-06	77.462	190.517	117.405	164.074	54.791	235.368	212.217	54.514	60.979	200.410	171.140	59.319	64.778	66.896	72.175	201.175	69.928	-8191	255	
641.284	1	1	0	0	0.3913	0.21269	0.10872	0.074728	0.082378	0.0731	0.15439	0.23345	0.31555	0.09321	0.078132	0.18618	0.21978	0.24417	0.19242	0.22031	-1.5063	-0.84792	-1.6187	-1.6875	-0.90625	-2.05	-1.4438	-1.3854	-1.8542	-0.99167	-1.7042	-1.6896	-0.95625	-1.7313	-1.5292	-1.2604	117.278	168.285	281.475	252.820	98.265	171.431	291.808	50.768	348.690	178.033	153.614	343.566	355.978	77.604	169.642	50.168	0.00053894	0.00072366	0.0001496	784.19	5.9077e-06	4.6224e-06	855.64	280.57	1.7453e-06	1.0198e-05	361.44	144.45	106.98	52.171	3.0058e-06	77.402	0.00048477	0.00047034	0.00012826	786.59	5.0518e-06	5.0281e-06	857.43	283.57	5.0372e-06	5.1319e-06	363.39	146.31	108.59	52.799	5.1297e-06	78.013	189.037	140.197	134.075	54.752	250.885	251.206	54.708	61.218	221.496	170.068	59.409	64.786	66.730	72.254	204.748	69.966	-8191	255	
641.380	1	1	0	0	0.26272	0.12625	0.12147	0.12701	0.2812	0.11579	0.039673	0.089818	0.19669	0.26104	0.14184	0.40114	0.41171	0.26533	0.12813	0.069506	-1.6063	-0.86875	-1.5604	-1.7458	-0.91875	-1.8167	-1.5979	-1.1292	-1.9604	-1.3625	-1.45	-1.7458	-1.05	-1.9375	-1.5208	-1.1417	339.913	63.192	256.357	366.899	361.521	399.429	352.023	348.657	204.737	53.814	130.558	375.196	65.093	375.235	176.044	380.426	0.00053837	0.00035384	9.314e-05	783.87	7.118e-06	6.7529e-06	859.51	280.24	3.1008e-06	3.0516e-06	364.68	145.77	107.38	52.1	8.0365e-06	78.27	0.00048371	0.00046197	0.00012927	787.67	5.0429e-06	5.054e-06	860.12	284.09	5.0419e-06	5.1037e-06	365.54	147.14	109.01	53.052	5.1291e-06	78.631	189.526	108.716	119.909	54.826	199.872	195.888	54.682	61.110	181.525	198.769	59.450	65.315	66.656	72.314	228.957	69.894	-8191	255	
641.500	1	1	0	0	0.3498	0.11436	0.084648	0.39461	0.064581	0.19188	0.24729	0.10309	0.16109	0.10636	0.27686	0.157	0.09269	0.11362	0.11888	0.20596	-1.5396	-1.3375	-1.1938	-1.85	-1.0354	-1.7958	-1.9104	-0.98542	-1.7833	-1.1521	-1.3979	-1.8583	-1.3021	-1.7375	-1.8229	-1.1708	291.347	330.729	266.445	324.889	181.527	293.015	73.404	315.528	362.072	256.179	119.471	213.908	387.162	315.111	123.799	386.487	0.00053577	0.0008012	0.00017271	787.04	1.0202e-05	4.9025e-06	862.41	281.49	3.5696e-06	5.9056e-06	365.14	147.05	107.22	52.619	7.0719e-06	78.154	0.00048028	0.00047177	0.00012987	789.51	5.1005e-06	5.0505e-06	864.72	285.17	5.0788e-06	5.102e-06	366.8	148.17	108.89	53.311	5.1462e-06	78.682	190.225	122.006	108.899	55.034	204.508	223.480	54.616	60.993	221.760	212.491	59.440	64.984	66.571	72.355	193.425	69.739	-8191	255	
641.597	1	1	0	0	0.11347	0.028254	0.15838	0.057023	0.21369	0.058238	0.042362	0.13356	0.23347	0.17082	0.12493	0.21359	0.17731	0.17469	0.081284	0.21744	-1.6833	-1.3104	-1.3333	-2.0417	-0.89167	-1.6	-1.8	-1.0063	-1.8917	-1.4229	-1.1458	-1.9896	-1.25	-1.6646	-1.7667	-1.0458	176.082	153.941	44.589	138.163	361.973	88.008	253.297	272.526	354.642	397.409	314.846	83.542	256.133	393.172	350.502	302.730	0.00058041	0.00046927	6.8617e-05	784.49	4.152e-06	4.9629e-06	855.06	281.75	3.5529e-06	2.4675e-06	362.59	144.41	106.97	51.816	3.5933e-06	77.268	0.00048548	0.00046519	0.00012932	787.31	5.0414e-06	5.099e-06	857.64	284.49	5.0579e-06	5.0587e-06	363.06	146.1	108.63	52.691	5.0579e-06	77.527	192.109	114.133	91.652	54.975	238.189	150.197	54.971	61.023	217.464	194.230	59.277	65.099	66.748	72.355	221.043	69.981	-8191	255	
641.693	1	1	0	0	0.17794	0.22348	0.25402	0.2037	0.093894	0.05308	0.15268	0.084385	0.23719	0.10814	0.046081	0.14782	0.30282	0.12826	0.16776	0.12437	-1.4896	-1.3542	-1.2354	-2.1312	-1.3292	-1.3542	-2.0146	-1.1479	-2.0479	-1.6833	-1.3146	-2.0875	-1.3104	-1.4042	-1.8792	-1.0562	360.288	81.382	79.262	399.472	288.476	397.387	95.269	49.117	245.824	98.966	160.560	318.467	84.831	342.106	395.685	72.767	0.00047824	0.00053833	0.00013269	785.35	5.7935e-06	5.2273e-06	857.39	280.9	4.6136e-06	5.8495e-06	361.42	144.84	107.27	52.294	3.7818e-06	77.265	0.00048133	0.00046288	0.00012933	784.92	5.0985e-06	5.1117e-06	856.12	283.78	5.078e-06	5.0831e-06	362.56	146.56	108.99	53.018	5.0994e-06	77.877	189.182	110.259	144.800	55.096	202.979	253.013	54.512	61.124	213.310	160.388	59.388	64.928	66.789	72.411	170.547	69.916	-8191	255	
#DATA ENDS
