BOXY.EXE: ISS Imagent and Oximeter Data Acquisition Program Version 0.80
Ascii Record File

#ACQ INFORMATION
2  Detector Channels 
16  External MUX Channels 
1  Auxiliary Channels 
5000  Waveform (CCF) Frequency (Hz)
1  Waveforms Skipped 
30  Waveforms Averaged 
1  Cycles Averaged 
16  Acquisitions per Waveform 
10.0806  Updata Rate (Hz) 

#FILE INFORMATION
TRUE -- External MUX Channel results are PARSED.
FALSE -- AC DC and Phase are NOT grouped.
TRUE -- Companion Program Settings File CREATED.
FALSE -- AC data not excluded
FALSE -- DC data not excluded
FALSE -- Phase data not excluded
FALSE -- Auxillary Chn. data not excluded
Tab delimiters

#CALIBRATION STATE
TRUE -- Waveform Calibration Values APPLIED.


#AUX CALIBRATION VALUES
Val Type	aux-1	

Term	1.0000e+00	
Factor	0.0000e+00	


#WF CALIBRATION VALUES
A = Detector Channel
Val Type	A-AC1	A-AC2	A-AC3	A-AC4	A-AC5	A-AC6	A-AC7	A-AC8	A-AC9	A-AC10	A-AC11	A-AC12	A-AC13	A-AC14	A-AC15	A-AC16	A-DC1	A-DC2	A-DC3	A-DC4	A-DC5	A-DC6	A-DC7	A-DC8	A-DC9	A-DC10	A-DC11	A-DC12	A-DC13	A-DC14	A-DC15	A-DC16	A-Ph1	A-Ph2	A-Ph3	A-Ph4	A-Ph5	A-Ph6	A-Ph7	A-Ph8	A-Ph9	A-Ph10	A-Ph11	A-Ph12	A-Ph13	A-Ph14	A-Ph15	A-Ph16	

Term	0.00000e+00	0.00000e+00	0.00000e+00	0.00000e+00	0.00000e+00	0.00000e+00	0.00000e+00	0.00000e+00	0.00000e+00	0.00000e+00	0.00000e+00	0.00000e+00	0.00000e+00	0.00000e+00	0.00000e+00	0.00000e+00	0.00000e+00	0.00000e+00	0.00000e+00	0.00000e+00	0.00000e+00	0.00000e+00	0.00000e+00	0.00000e+00	0.00000e+00	0.00000e+00	0.00000e+00	0.00000e+00	0.00000e+00	0.00000e+00	0.00000e+00	0.00000e+00	0.00000e+00	0.00000e+00	0.00000e+00	0.00000e+00	0.00000e+00	0.00000e+00	0.00000e+00	0.00000e+00	0.00000e+00	0.00000e+00	0.00000e+00	0.00000e+00	0.00000e+00	0.00000e+00	0.00000e+00	0.00000e+00	
Factor	1.00000e+00	1.00000e+00	1.00000e+00	1.00000e+00	1.00000e+00	1.00000e+00	1.00000e+00	1.00000e+00	1.00000e+00	1.00000e+00	1.00000e+00	1.00000e+00	1.00000e+00	1.00000e+00	1.00000e+00	1.00000e+00	1.00000e+00	1.00000e+00	1.00000e+00	1.00000e+00	1.00000e+00	1.00000e+00	1.00000e+00	1.00000e+00	1.00000e+00	1.00000e+00	1.00000e+00	1.00000e+00	1.00000e+00	1.00000e+00	1.00000e+00	1.00000e+00	X	X	X	X	X	X	X	X	X	X	X	X	X	X	X	X	

B = Detector Channel
Val Type	B-AC1	B-AC2	B-AC3	B-AC4	B-AC5	B-AC6	B-AC7	B-AC8	B-AC9	B-AC10	B-AC11	B-AC12	B-AC13	B-AC14	B-AC15	B-AC16	B-DC1	B-DC2	B-DC3	B-DC4	B-DC5	B-DC6	B-DC7	B-DC8	B-DC9	B-DC10	B-DC11	B-DC12	B-DC13	B-DC14	B-DC15	B-DC16	B-Ph1	B-Ph2	B-Ph3	B-Ph4	B-Ph5	B-Ph6	B-Ph7	B-Ph8	B-Ph9	B-Ph10	B-Ph11	B-Ph12	B-Ph13	B-Ph14	B-Ph15	B-Ph16	

Term	0.00000e+00	0.00000e+00	0.00000e+00	0.00000e+00	0.00000e+00	0.00000e+00	0.00000e+00	0.00000e+00	0.00000e+00	0.00000e+00	0.00000e+00	0.00000e+00	0.00000e+00	0.00000e+00	0.00000e+00	0.00000e+00	0.00000e+00	0.00000e+00	0.00000e+00	0.00000e+00	0.00000e+00	0.00000e+00	0.00000e+00	0.00000e+00	0.00000e+00	0.00000e+00	0.00000e+00	0.00000e+00	0.00000e+00	0.00000e+00	0.00000e+00	0.00000e+00	-6.59245e+01	-1.24734e+02	-1.31290e+02	-1.83070e+02	-4.71720e+01	-6.49150e+01	-1.56663e+02	-1.62015e+02	-3.94459e+01	-6.42214e+01	-1.71114e+02	-1.71480e+02	-1.80686e+02	-1.76770e+02	-5.03157e+01	-1.49850e+02	
Factor	1.94318e-05	1.90944e-04	4.49887e-05	1.63081e-01	1.59961e-06	1.69595e-06	1.94177e-01	5.42487e-02	1.28390e-06	1.65075e-06	1.08414e-01	3.13847e-02	2.95052e-02	9.61121e-03	1.53840e-06	1.41149e-02	5.54059e-06	6.76180e-06	1.88700e-06	8.26207e-02	7.18682e-08	7.45135e-08	9.21061e-02	2.75920e-02	7.18242e-08	7.41166e-08	5.30887e-02	1.54427e-02	1.51454e-02	4.92050e-03	7.23774e-08	6.95805e-03	X	X	X	X	X	X	X	X	X	X	X	X	X	X	X	X	



#DISTANCE SETTINGS
A = Detector Channel
A-1	A-2	A-3	A-4	A-5	A-6	A-7	A-8	A-9	A-10	A-11	A-12	A-13	A-14	A-15	A-16	

2.5000e+00	3.0000e+00	2.5000e+00	3.0000e+00	2.0000e+00	3.0000e+00	1.5000e+00	3.0000e+00	3.0000e+00	3.0000e+00	3.0000e+00	3.0000e+00	3.0000e+00	3.0000e+00	1.5000e+00	3.0000e+00	

B = Detector Channel
B-1	B-2	B-3	B-4	B-5	B-6	B-7	B-8	B-9	B-10	B-11	B-12	B-13	B-14	B-15	B-16	

1.0000e+01	1.0000e+01	1.0000e+01	1.4400e+00	1.0000e+01	1.0000e+01	1.5100e+00	1.9400e+00	1.0000e+01	1.0000e+01	1.9900e+00	2.4900e+00	2.4100e+00	2.9000e+00	1.0000e+01	2.9800e+00	




#DATA BEGINS
time	group	step	mark	flag	A-AC1	A-AC2	A-AC3	A-AC4	A-AC5	A-AC6	A-AC7	A-AC8	A-AC9	A-AC10	A-AC11	A-AC12	A-AC13	A-AC14	A-AC15	A-AC16	A-DC1	A-DC2	A-DC3	A-DC4	A-DC5	A-DC6	A-DC7	A-DC8	A-DC9	A-DC10	A-DC11	A-DC12	A-DC13	A-DC14	A-DC15	A-DC16	A-Ph1	A-Ph2	A-Ph3	A-Ph4	A-Ph5	A-Ph6	A-Ph7	A-Ph8	A-Ph9	A-Ph10	A-Ph11	A-Ph12	A-Ph13	A-Ph14	A-Ph15	A-Ph16	B-AC1	B-AC2	B-AC3	B-AC4	B-AC5	B-AC6	B-AC7	B-AC8	B-AC9	B-AC10	B-AC11	B-AC12	B-AC13	B-AC14	B-AC15	B-AC16	B-DC1	B-DC2	B-DC3	B-DC4	B-DC5	B-DC6	B-DC7	B-DC8	B-DC9	B-DC10	B-DC11	B-DC12	B-DC13	B-DC14	B-DC15	B-DC16	B-Ph1	B-Ph2	B-Ph3	B-Ph4	B-Ph5	B-Ph6	B-Ph7	B-Ph8	B-Ph9	B-Ph10	B-Ph11	B-Ph12	B-Ph13	B-Ph14	B-Ph15	B-Ph16	aux-1	digaux	

1166.699	1	1	0	512	0.10696	0.10847	0.18787	0.14153	0.29965	0.15934	0.22371	0.22035	0.24385	0.11901	0.087353	0.29975	0.031496	0.43455	0.18088	0.081709	-2.075	-2.5708	-2.6354	-2.5604	-2.6188	-2.6813	-2.3854	-2.9521	-2.6771	-2.4458	-3.0125	-2.4667	-2.7229	-2.7625	-2.4104	-2.7896	492.213	356.040	179.156	260.895	201.156	174.744	228.542	464.798	334.624	423.618	263.042	429.106	296.611	423.895	447.579	446.709	0.0010238	0.00058204	0.00012322	656.8	1.705e-05	6.6342e-06	975.63	244.14	1.6903e-05	1.0029e-05	442.06	184.69	97.413	44.413	1.676e-05	99.425	0.01141	0.01371	0.0038195	814.64	0.00014452	0.00014909	1139.6	295.24	0.00014256	0.00014776	542.01	214.17	126.57	54.275	0.00014585	112.83	252.995	152.838	404.316	149.524	256.060	256.513	149.717	154.678	267.609	235.222	154.145	158.717	159.324	163.322	282.894	162.014	-8191	255	
1166.771	1	1	0	0	0.25633	0.097549	0.14186	0.081096	0.1368	0.25423	0.10739	0.12228	0.14668	0.12288	0.060511	0.15891	0.22135	0.34353	0.31579	0.21028	-2.0187	-2.3958	-2.7917	-2.4708	-2.7625	-2.7792	-2.5854	-2.7979	-2.5354	-2.4625	-2.9375	-2.6292	-2.6833	-2.6937	-2.3458	-2.6917	366.632	358.963	257.227	424.345	419.223	147.619	447.111	448.943	143.368	442.840	421.214	446.186	414.155	432.321	167.895	391.956	0.0011165	0.00063713	0.0001969	657.31	1.9813e-05	1.2034e-05	968.58	244.82	1.7743e-05	5.9419e-06	443.42	184.19	98.783	44.469	1.4004e-05	99.136	0.011453	0.013788	0.0038228	813.75	0.00014553	0.00014935	1138.2	297.03	0.00014448	0.00014773	542.55	214.02	126.67	54.155	0.00014349	112.47	250.739	157.869	375.955	149.367	297.417	275.793	149.478	154.790	247.618	474.057	154.140	158.720	159.317	163.575	297.650	162.279	-8191	255	
1166.890	1	1	0	0	0.10765	0.066679	0.10792	0.14246	0.28125	0.20895	0.23401	0.060191	0.25618	0.20989	0.1585	0.11859	0.15257	0.10354	0.037754	0.14616	-2.1604	-2.5208	-2.8417	-2.6312	-2.6708	-2.6792	-2.3229	-2.9208	-2.5896	-2.5625	-2.8979	-2.7604	-2.6875	-2.9271	-2.55	-2.7083	486.776	448.640	166.114	385.066	369.772	442.566	433.618	394.971	474.202	199.282	166.877	188.631	429.966	264.244	295.160	436.329	0.0010622	0.0032661	0.00015349	664.66	1.1781e-05	8.5117e-06	972.3	243.44	6.5697e-06	2.7874e-05	441.73	182.17	96.97	44.008	1.7042e-05	98.365	0.011183	0.013472	0.0037468	814.12	0.00014306	0.00014757	1139.2	295.94	0.00014314	0.00014718	540.52	213.33	126.18	53.964	0.0001441	112.32	251.528	200.988	224.909	149.064	263.537	172.097	149.803	154.763	435.853	302.269	153.968	158.700	159.308	163.409	272.739	161.893	-8191	255	
1166.986	1	1	0	0	0.1273	0.10101	0.18153	0.27575	0.20765	0.13111	0.22124	0.13805	0.20924	0.086712	0.17179	0.19049	0.10349	0.1681	0.13832	0.23673	-2.1146	-2.3354	-2.7687	-2.5104	-2.3021	-2.8688	-2.3896	-2.7583	-2.8896	-2.3563	-2.8521	-2.7208	-2.4792	-2.9562	-2.4021	-2.8604	231.003	170.995	274.419	473.253	296.101	181.571	380.281	333.065	178.298	137.219	428.728	380.829	461.539	354.318	423.199	138.288	0.0010886	0.00032936	0.00017509	666.23	2.7787e-05	2.4029e-05	983.18	248.11	1.3064e-05	1.645e-05	442.71	187.24	98.811	44.89	1.9418e-06	99.255	0.011341	0.013624	0.0038312	823.94	0.00014797	0.00015302	1158.9	302.09	0.00014745	0.0001519	550.2	217.84	129.02	55.008	0.00014871	113.79	257.233	461.152	168.006	149.344	367.652	295.467	149.422	154.435	286.233	439.099	153.906	158.840	159.699	163.612	323.853	161.760	-8191	255	
1167.082	1	1	0	0	0.041688	0.1516	0.28825	0.35275	0.16847	0.27637	0.13264	0.32728	0.075782	0.19125	0.25202	0.090087	0.27426	0.093952	0.11142	0.19042	-2.2979	-2.4042	-2.8583	-2.5729	-2.4708	-2.8063	-2.5312	-2.6188	-2.8438	-2.2604	-2.7667	-2.7854	-2.5812	-2.7583	-2.4229	-2.6771	394.831	335.163	450.044	437.391	150.989	432.181	384.009	396.823	326.484	492.831	344.761	139.525	169.735	468.237	274.311	267.363	0.0011553	0.0027894	0.00026957	670.56	2.2444e-05	6.2483e-06	982.42	249.55	2.1707e-05	9.106e-07	451.18	187.63	100.56	45.223	1.5115e-05	99.641	0.011616	0.013915	0.0038997	831.81	0.00014958	0.00015411	1162.7	305.06	0.00014923	0.00015359	554.68	219	130.41	55.348	0.00015116	114.13	254.212	295.362	216.087	149.510	263.671	194.606	149.737	154.575	254.168	442.410	153.975	158.691	159.615	163.312	239.256	161.962	-8191	255	
1167.178	1	1	0	0	0.037788	0.17899	0.12367	0.27593	0.19257	0.14061	0.18763	0.24719	0.11949	0.32127	0.11455	0.2398	0.18637	0.2184	0.1693	0.15171	-2.2771	-2.1583	-2.4625	-2.8271	-2.2229	-2.725	-2.5583	-2.8187	-2.8063	-2.3229	-2.8542	-2.8375	-2.3937	-2.8083	-2.3792	-2.4688	233.792	430.427	425.892	475.641	367.520	305.978	410.910	489.435	305.956	369.411	186.481	409.587	372.481	333.770	275.153	438.284	0.0012441	0.0019466	0.00036296	671.14	1.4242e-05	1.3091e-05	986.99	250.37	4.0743e-06	5.3493e-06	446.74	188.2	100.72	45.363	1.8731e-05	100.66	0.011715	0.014048	0.0039539	833.64	0.00014993	0.000155	1164.3	305.38	0.00014939	0.00015514	556.08	219.73	131.07	55.658	0.00015387	114.94	246.172	494.780	178.360	149.108	312.046	142.043	149.783	154.901	350.583	276.785	154.063	158.774	159.385	163.349	294.254	161.764	-8191	255	
1167.274	1	1	0	0	0.11231	0.21544	0.17905	0.10458	0.34225	0.099752	0.28978	0.11331	0.097691	0.12605	0.24776	0.27562	0.22575	0.21157	0.23114	0.16406	-2.15	-2.2604	-2.5521	-2.675	-2.2958	-2.6833	-2.6521	-2.5104	-2.7375	-2.3542	-2.5042	-2.9542	-2.1729	-2.8792	-2.625	-2.4417	456.445	445.332	283.105	419.073	226.346	162.831	445.008	484.330	409.046	186.350	467.603	450.921	454.842	394.962	170.756	444.233	0.0010909	0.0014403	0.00048626	681	8.3212e-06	2.9829e-06	988.35	250.92	4.9171e-06	9.1919e-06	446.69	188.6	100.57	45.323	8.77e-06	99.931	0.011953	0.014371	0.0040373	840.92	0.00015204	0.00015846	1171.2	306.53	0.00015111	0.00015687	556.61	220.17	130.75	55.54	0.00015241	114.17	257.739	176.598	491.889	149.231	306.773	294.434	149.500	154.710	263.294	139.039	153.914	158.788	159.221	163.095	324.071	162.215	-8191	255	
1167.370	1	1	0	0	0.24357	0.11498	0.16016	0.092678	0.23837	0.057684	0.040195	0.14324	0.17384	0.38409	0.25221	0.24706	0.28146	0.28526	0.052282	0.17503	-2.2438	-2.3542	-2.5687	-2.7562	-2.5104	-2.6896	-2.7354	-2.4396	-2.7792	-2.3292	-2.6937	-2.9688	-2.3292	-2.75	-2.7042	-2.5917	201.247	398.534	355.061	432.937	362.213	306.489	205.971	212.371	396.385	444.259	184.407	392.855	398.200	471.308	385.589	402.797	0.0012193	0.00064507	0.00019949	660.35	1.2625e-05	6.8435e-06	969.75	242.45	2.1526e-05	9.9194e-06	437.34	181.48	95.751	43.126	3.0076e-06	96.676	0.011787	0.014207	0.003987	824.75	0.00015045	0.00015638	1150.1	297.03	0.00014869	0.00015542	542.38	212.75	126.13	53.904	0.00015143	111.68	256.260	331.913	316.945	149.162	374.081	391.999	149.799	154.595	324.542	259.689	154.028	158.919	159.414	163.284	254.807	161.773	-8191	255	
1167.467	1	1	0	0	0.25171	0.18057	0.18853	0.19491	0.15882	0.071188	0.12236	0.097438	0.089673	0.047352	0.16961	0.1091	0.10578	0.27812	0.19815	0.46514	-2.2167	-2.2792	-2.4938	-2.7	-2.2708	-2.625	-2.7854	-2.4667	-2.8521	-2.5062	-2.5229	-2.875	-2.2583	-2.7125	-2.6458	-2.425	360.045	289.107	358.412	458.853	215.767	145.529	333.390	396.876	217.579	466.056	439.493	443.414	399.149	200.060	392.559	466.158	0.0012279	0.0022132	0.00042477	655.95	2.0628e-05	2.6821e-05	964.56	240	9.575e-06	1.8058e-05	435.43	180.96	95.554	43.469	5.2207e-06	97.341	0.011689	0.014075	0.0039115	813.83	0.00014752	0.00015337	1138.2	292.21	0.00014711	0.0001527	535.91	210.54	124.79	53.456	0.00014794	110.78	250.613	248.570	295.722	149.104	319.562	361.030	150.155	154.533	262.534	307.768	154.250	158.794	159.616	163.575	138.163	162.213	-8191	255	
1167.587	1	1	0	0	0.15017	0.09613	0.18721	0.017227	0.24217	0.18754	0.24027	0.17779	0.05896	0.16109	0.12239	0.072193	0.28146	0.12348	0.2369	0.097663	-2.0271	-2.6417	-2.3417	-2.875	-2.425	-2.5292	-2.8063	-2.4813	-2.6521	-2.6521	-2.3771	-2.975	-2.3792	-2.3187	-2.6583	-2.4	228.952	309.331	488.254	259.963	461.751	490.438	422.695	370.795	192.547	245.478	427.747	269.238	441.376	146.768	309.278	332.291	0.00087888	0.0027476	0.00037026	657.12	2.883e-05	1.6583e-05	965.81	239.79	7.2644e-06	2.5523e-05	435.73	182.67	96.982	44.464	1.4482e-05	98.972	0.011459	0.013743	0.0038078	808.17	0.00014481	0.00015089	1133.8	292.68	0.00014537	0.00014981	536.98	212.29	126.25	54.229	0.00014419	112.44	244.631	147.237	201.934	149.234	314.219	284.509	149.612	154.461	239.834	429.031	154.057	158.932	159.276	163.417	317.805	162.251	-8191	255	
1167.683	1	1	0	0	0.23275	0.10529	0.19448	0.27901	0.14154	0.24302	0.01809	0.22586	0.20432	0.16999	0.4065	0.20083	0.27846	0.3918	0.17388	0.18639	-2.1271	-2.5896	-2.4375	-2.8875	-2.5563	-2.5938	-2.8271	-2.425	-2.6396	-2.6562	-2.2146	-2.8542	-2.5792	-2.6042	-2.8146	-2.425	479.628	182.442	325.587	422.703	205.598	321.646	318.519	487.376	440.943	171.933	444.733	489.755	487.328	440.752	258.629	427.013	0.0010222	0.0007626	0.00056529	652.46	1.7585e-05	9.5954e-06	957.72	242.72	2.2203e-06	6.7542e-06	439.47	182.93	97.655	44.569	1.3728e-05	99.433	0.011302	0.013546	0.0037735	812.6	0.00014335	0.00014915	1136.1	295.26	0.00014167	0.00014637	539.1	213.39	126.14	54.215	0.00014074	112.77	242.632	233.782	140.850	148.986	319.460	307.205	149.421	154.258	327.760	243.438	153.710	158.580	159.017	163.418	395.147	161.871	-8191	255	
1167.780	1	1	0	0	0.36226	0.041569	0.099167	0.28561	0.14279	0.23656	0.25109	0.26894	0.039581	0.097586	0.21541	0.049064	0.2241	0.22482	0.012269	0.20934	-2.0896	-2.5271	-2.3563	-2.7104	-2.4938	-2.5146	-2.9979	-2.525	-2.7271	-2.6625	-2.4604	-2.7687	-2.6437	-2.4979	-2.6229	-2.4604	485.908	432.568	206.686	327.083	489.335	452.453	454.106	492.879	216.489	491.790	366.305	157.065	195.050	485.285	235.876	367.415	0.0010579	0.00043276	0.00048549	670.02	8.3782e-06	1.4903e-05	985.99	249.21	9.1296e-06	4.2433e-06	445.61	187.3	100	45.048	1.2587e-05	99.758	0.011118	0.013369	0.0037318	818.44	0.000144	0.00015009	1148	300.16	0.00014516	0.00014938	546.5	216.4	128.86	54.801	0.00014569	113.4	249.643	319.460	151.657	149.506	254.175	268.354	149.769	155.052	327.484	411.892	154.302	158.850	159.599	163.393	288.545	162.168	-8191	255	
1167.876	1	1	0	0	0.081038	0.066935	0.065757	0.25763	0.23618	0.13872	0.39604	0.16447	0.055337	0.06032	0.11692	0.15872	0.096803	0.3146	0.23575	0.16635	-1.9979	-2.8104	-2.2375	-2.7771	-2.7	-2.4	-2.9771	-2.4229	-2.4667	-2.7875	-2.3708	-2.7313	-2.6167	-2.3063	-2.6604	-2.7771	144.569	349.633	171.183	207.100	384.271	308.628	416.293	494.679	217.729	339.709	159.527	416.605	237.328	386.356	251.172	357.443	0.0011	0.0022741	0.00083089	666.53	2.0626e-06	5.6933e-06	983.02	250	1.5987e-05	8.5508e-06	442.92	187.4	100.17	45.101	5.7971e-06	100.27	0.011326	0.013566	0.0037643	823.58	0.00014405	0.00014849	1151.7	302.17	0.00014368	0.00014706	547.92	217.89	129.22	55.135	0.00014204	114.06	249.496	292.790	170.084	149.311	329.170	428.465	149.864	154.645	391.491	301.798	153.700	158.490	159.038	163.192	321.126	161.781	-8191	255	
1167.995	1	1	0	0	0.15305	0.13614	0.227	0.067811	0.03314	0.039114	0.18609	0.21787	0.082263	0.057623	0.13367	0.33223	0.26049	0.077447	0.18147	0.15671	-2.0312	-2.4958	-2.2854	-2.7708	-2.5708	-2.275	-2.8604	-2.5625	-2.4708	-2.9062	-2.5083	-2.9542	-2.6917	-2.2167	-2.6583	-2.7625	380.428	327.972	220.599	317.765	236.035	441.315	470.464	473.358	294.501	141.603	257.025	386.283	434.667	220.780	479.983	431.575	0.0010127	0.0012184	0.00039927	662.5	4.4012e-06	1.2512e-05	986.33	252.18	1.2133e-05	1.5623e-05	449.33	187.69	101.34	45.207	4.3221e-06	100.67	0.011036	0.01313	0.003689	820.15	0.00013997	0.00014592	1151.6	304.31	0.00014279	0.00014604	551.93	219.66	130.57	55.413	0.00014335	114.5	252.194	193.834	256.334	149.022	408.984	304.578	149.431	154.629	317.532	236.133	153.644	158.384	159.545	163.331	391.967	161.776	-8191	255	
1168.066	1	1	0	0	0.12298	0.11588	0.28293	0.2692	0.19559	0.11581	0.17251	0.15894	0.068562	0.29895	0.21786	0.14865	0.33561	0.1142	0.16554	0.2391	-1.9833	-2.8479	-2.3625	-2.6042	-2.7125	-2.2542	-2.6875	-2.7208	-2.3479	-2.8063	-2.5271	-2.4646	-2.8875	-2.3729	-2.6833	-2.6937	198.857	201.610	370.715	414.810	448.478	207.094	391.442	184.800	469.338	380.482	339.359	493.913	391.245	143.416	314.972	447.006	0.0010845	0.001098	0.00020444	676.42	6.6722e-06	1.9633e-05	987.93	252.64	2.2062e-06	1.2462e-05	452.53	188.69	99.991	45.04	8.7076e-06	98.15	0.011175	0.013267	0.0037468	826.76	0.00014169	0.00014736	1155.4	304.55	0.00014254	0.0001473	552.29	218.51	128.89	54.87	0.00014308	112.76	250.143	473.248	159.065	149.032	273.799	253.662	149.665	154.705	420.145	269.693	153.410	158.496	159.390	163.082	414.687	161.807	-8191	255	
1168.187	1	1	0	0	0.18827	0.1792	0.18568	0.02526	0.055096	0.18515	0.093181	0.28687	0.18093	0.059405	0.087876	0.39	0.2171	0.086253	0.29462	0.23867	-1.85	-2.7021	-2.4562	-2.8083	-2.7188	-2.3833	-2.8792	-2.6708	-2.3354	-2.7562	-2.5354	-2.4479	-2.8729	-2.4604	-2.6833	-2.6792	332.436	405.631	463.602	366.230	474.126	172.595	315.760	360.771	458.287	412.379	335.690	381.873	463.338	164.392	441.510	424.301	0.0010827	0.0018496	8.5657e-05	658.76	2.7258e-05	1.4395e-05	963.75	239.43	5.8408e-06	1.0859e-05	431.66	181.6	96.162	43.447	1.0392e-05	97.749	0.011021	0.013092	0.00367	807.11	0.00013545	0.00014042	1121.2	288.41	0.00013316	0.0001366	525.48	207.68	121.95	52.338	0.00013379	109.84	254.983	177.643	401.672	149.418	260.181	297.820	149.773	154.975	325.314	262.975	154.534	158.859	159.976	163.340	358.056	162.327	-8191	255	
1168.283	1	1	0	0	0.1763	0.068597	0.26512	0.053223	0.26493	0.30863	0.17723	0.23805	0.33588	0.20851	0.26981	0.11534	0.27614	0.32763	0.011246	0.25514	-1.725	-2.7625	-2.4125	-2.4688	-2.7771	-2.4646	-2.7146	-2.7604	-2.4667	-2.8646	-2.6625	-2.4458	-2.8312	-2.5917	-2.5896	-2.9688	381.671	177.751	177.517	473.391	316.133	151.593	457.025	403.228	164.708	444.302	462.383	431.412	466.934	472.808	262.275	470.063	0.00098552	0.002321	0.00050741	655.79	7.9363e-06	2.589e-05	962.55	239.83	2.0901e-06	1.4389e-05	437.67	183.32	96.719	43.779	1.0489e-05	97.559	0.010354	0.012527	0.0035207	796.76	0.00013328	0.00013968	1118.8	288.94	0.00013381	0.00013818	529.3	209.31	122.84	52.802	0.0001342	110.25	252.430	296.177	143.711	149.674	221.261	256.119	149.956	154.518	241.916	307.083	154.237	158.924	159.824	163.509	329.648	162.126	-8191	255	
1168.379	1	1	0	0	0.13198	0.10225	0.18874	0.17048	0.094224	0.15338	0.042649	0.083646	0.18643	0.21269	0.090487	0.24947	0.3355	0.15167	0.068276	0.10281	-1.8917	-2.5292	-2.5917	-2.2729	-2.7479	-2.5417	-2.6312	-2.7354	-2.2917	-2.5708	-2.4562	-2.4167	-2.8187	-2.6479	-2.5208	-2.8729	353.594	463.681	176.394	154.939	256.368	168.792	361.866	180.799	168.771	324.220	495.035	441.123	468.635	260.961	247.279	442.858	0.0011746	0.00083156	0.00055773	656.01	5.2851e-06	1.0567e-05	968.74	241.86	1.778e-05	1.24e-05	436.39	183.38	96.548	44.082	1.885e-05	98.056	0.010527	0.012614	0.0035223	797.45	0.00013342	0.00013955	1119.5	289.48	0.0001331	0.00013782	529.02	209.67	123.26	52.993	0.00013771	110.87	263.475	355.237	230.557	149.304	251.726	340.241	149.801	154.748	356.857	278.439	154.203	159.133	159.348	163.210	328.259	162.039	-8191	255	
1168.475	1	1	0	0	0.07722	0.10549	0.024537	0.2351	0.14233	0.095637	0.11689	0.24734	0.0414	0.17364	0.30279	0.14529	0.19008	0.28789	0.3262	0.15364	-1.8813	-2.6354	-2.3896	-2.3521	-2.6083	-2.4813	-2.3542	-2.7042	-2.3396	-2.5021	-2.6667	-2.4521	-2.8125	-2.4854	-2.3896	-2.9875	382.701	462.538	356.128	384.930	333.022	304.611	366.721	458.358	480.124	330.828	413.166	468.978	298.828	494.353	140.838	438.231	0.0008797	0.0022148	0.00024608	656.65	3.1837e-05	2.5527e-05	969.7	244.53	9.9553e-06	1.3914e-06	442.77	184.28	97.242	44.277	8.2812e-06	98.823	0.010785	0.013007	0.0036692	804.17	0.00013879	0.00014459	1130.5	292.99	0.00013788	0.00014201	534.29	211.09	124.22	53.2	0.00013513	110.91	253.194	197.920	225.130	149.574	236.874	275.481	149.414	154.775	252.858	431.749	153.817	158.680	159.835	163.544	267.379	162.047	-8191	255	
1168.571	1	1	0	0	0.10876	0.13478	0.17985	0.084103	0.34156	0.061378	0.16936	0.17198	0.14465	0.2443	0.030004	0.24605	0.1255	0.087403	0.12588	0.10126	-1.8813	-2.45	-2.5667	-2.3167	-2.7583	-2.5687	-2.5938	-2.7104	-2.3021	-2.5208	-2.5417	-2.3125	-2.6854	-2.5854	-2.3042	-2.9938	342.742	452.513	208.196	454.630	271.456	488.720	480.207	435.844	443.509	173.884	178.639	488.884	442.216	197.309	238.258	378.362	0.0011836	0.00048739	0.00026809	663.25	1.3923e-05	2.2259e-05	976.44	248.27	5.3743e-06	1.6829e-05	448.24	189.13	100.29	45.278	1.3368e-05	100.22	0.010431	0.012531	0.0034811	800.85	0.00013268	0.00013785	1126.5	294.92	0.00013295	0.00013786	539.38	214.62	126.56	53.973	0.00013476	112.19	248.891	296.419	456.586	149.375	343.405	222.354	149.873	154.843	280.754	269.600	153.882	158.963	159.670	163.515	382.111	162.316	-8191	255	
1168.668	1	1	0	0	0.30929	0.038071	0.3122	0.32002	0.27006	0.12353	0.086065	0.18587	0.20659	0.17865	0.29087	0.19964	0.11489	0.41839	0.10945	0.16776	-1.7313	-2.35	-2.5833	-2.2854	-2.4625	-2.4708	-2.3833	-2.7667	-2.3833	-2.4917	-2.7917	-2.2917	-2.5104	-2.5062	-2.325	-2.8438	291.173	489.705	295.682	455.266	483.963	317.014	268.917	428.895	334.910	153.824	461.009	484.635	409.951	453.304	416.221	450.114	0.0011307	0.0031222	0.00026534	667.91	2.4724e-05	7.2319e-06	982.91	252.15	2.2256e-05	9.1566e-06	456.18	190.79	101.78	46.122	5.504e-06	101.57	0.010586	0.01274	0.0035483	810.25	0.00013644	0.00014105	1138.9	300.67	0.00013775	0.00014305	548.46	218.48	129.64	55.194	0.00014034	114.26	249.762	157.100	409.605	149.330	264.288	284.962	149.580	154.916	273.254	403.220	153.955	158.752	159.539	163.197	382.819	161.880	-8191	255	
1168.764	1	1	0	0	0.15548	0.10462	0.0066527	0.19369	0.073093	0.13961	0.20643	0.17846	0.31337	0.093156	0.20408	0.24377	0.17148	0.24677	0.36229	0.083592	-1.8229	-2.3875	-2.5917	-2.3958	-2.3208	-2.5563	-2.5229	-2.7354	-2.4479	-2.3646	-2.7313	-2.3458	-2.5333	-2.7833	-2.3896	-2.7354	469.024	303.318	231.136	154.042	458.233	205.083	468.402	350.877	308.969	312.524	494.896	437.173	467.951	212.640	436.685	478.934	0.0011329	0.0024857	0.00044057	670.28	1.1247e-05	5.7967e-06	981.39	253.08	6.781e-06	8.8168e-06	458.35	191.76	102.15	46.002	8.9116e-07	102.32	0.010969	0.013208	0.0036531	814.1	0.00013912	0.00014406	1141.8	302.51	0.00013825	0.0001418	549.13	218.83	129.17	54.994	0.0001365	114.32	258.449	223.524	246.945	149.440	253.189	141.525	149.794	154.751	364.552	167.817	154.122	158.866	159.680	163.255	236.821	162.113	-8191	255	
1168.860	1	1	0	0	0.28948	0.16039	0.12027	0.34328	0.23474	0.31032	0.31283	0.20413	0.086323	0.070339	0.22542	0.27459	0.14621	0.2424	0.15034	0.11733	-1.9875	-2.1833	-2.6271	-2.5479	-2.5104	-2.7083	-2.4688	-2.6437	-2.3708	-2.3042	-2.8417	-2.3083	-2.5667	-2.6167	-2.1708	-2.75	453.016	481.721	259.339	437.975	226.320	281.273	473.961	449.579	247.771	414.297	386.330	413.179	365.367	439.882	445.638	482.506	0.0010695	0.00084645	0.00028905	671.21	6.6846e-06	2.0606e-05	986.94	254.7	1.9107e-05	6.6497e-06	461.6	192.66	103.01	46	2.1654e-05	102.11	0.010637	0.012669	0.0035273	810.56	0.00013354	0.00013723	1135.9	300.51	0.00013194	0.00013515	545.29	218.05	128.3	54.476	0.00012755	113.29	257.809	162.588	331.581	149.391	411.589	306.752	149.873	154.692	291.248	431.197	154.013	159.163	159.616	163.570	285.856	162.141	-8191	255	
1168.956	1	1	0	0	0.16929	0.13303	0.27656	0.34345	0.21732	0.12437	0.14448	0.27734	0.21807	0.12081	0.13747	0.26972	0.14162	0.15836	0.23589	0.19782	-2.1125	-2.15	-2.4979	-2.425	-2.3167	-2.625	-2.4083	-2.5208	-2.5271	-2.1979	-2.75	-2.4708	-2.3125	-2.6458	-2.2771	-2.5229	178.707	160.243	260.481	438.605	345.844	307.233	447.994	387.759	440.169	314.797	435.892	399.157	475.934	341.094	337.548	474.469	0.0010644	0.0016208	0.0003569	667.59	1.49e-05	1.0158e-05	977.1	251.69	8.7777e-06	1.4416e-05	451.14	188.6	99.762	45.077	1.4826e-05	99.594	0.0099315	0.01178	0.0032782	796.68	0.00012401	0.00012704	1114.5	294.81	0.00012235	0.00012524	532.42	212.44	123.62	52.874	0.00012101	110.52	248.418	243.150	184.778	149.397	394.440	412.560	149.773	154.890	273.799	364.513	154.227	158.661	159.366	163.385	325.624	162.369	-8191	255	
1169.075	1	1	0	0	0.084072	0.18577	0.18909	0.1384	0.27886	0.20139	0.16905	0.4191	0.19176	0.31289	0.11922	0.41122	0.1718	0.11769	0.321	0.096104	-2.0458	-2.2333	-2.6583	-2.5792	-2.4208	-2.6625	-2.275	-2.6083	-2.65	-2.1292	-2.6833	-2.6417	-2.4479	-2.9167	-2.3563	-2.6688	414.073	361.237	216.612	394.285	343.655	147.282	475.125	444.637	493.846	220.909	383.122	149.397	449.558	472.439	366.616	427.932	0.0011291	0.0016018	0.00043719	654.06	1.5028e-05	3.4281e-05	968.83	246.51	1.3198e-05	1.642e-05	444.27	186.33	99.256	45.035	6.6249e-06	99.848	0.0093905	0.011244	0.0031552	778.47	0.00012046	0.00012477	1101.8	289.04	0.00012128	0.00012574	526.91	210.05	122.64	52.856	0.00012322	110.85	268.932	349.045	241.449	149.330	313.444	317.836	149.799	154.921	282.969	250.812	153.978	158.901	159.221	163.540	182.780	162.370	-8191	255	
1169.171	1	1	0	0	0.28676	0.13465	0.23163	0.12398	0.20836	0.048908	0.17	0.219	0.2133	0.095811	0.094096	0.062535	0.21812	0.17912	0.27368	0.37537	-2.1146	-2.1208	-2.5167	-2.4833	-2.2	-2.6813	-2.4813	-2.4396	-2.6396	-2.3021	-2.75	-2.6896	-2.3646	-2.6979	-2.4562	-2.5604	442.621	494.162	264.164	196.781	378.916	432.429	444.631	326.792	246.553	371.229	150.947	462.957	484.236	443.776	149.027	445.333	0.0010338	0.00053203	0.00038122	655.8	1.6859e-05	1.78e-05	969.42	247.18	1.7274e-05	2.9665e-06	445.17	185.54	98.853	44.739	2.4049e-05	99.871	0.0096079	0.011513	0.0032453	783.62	0.00012325	0.00012767	1104	290.16	0.00012174	0.00012612	527.78	209.99	122.3	52.716	0.0001218	110.56	253.026	295.056	191.749	149.345	326.867	259.659	150.082	154.968	336.936	406.142	153.954	158.835	159.651	163.484	275.534	162.147	-8191	255	
1169.267	1	1	0	0	0.22585	0.11469	0.17194	0.19055	0.21244	0.16118	0.23568	0.13966	0.21076	0.15547	0.19377	0.48483	0.35901	0.26051	0.2761	0.16645	-2.2646	-2.2729	-2.55	-2.425	-2.2604	-2.5521	-2.5667	-2.5146	-2.4604	-2.2812	-2.5271	-2.7146	-2.175	-2.6437	-2.2792	-2.4875	453.216	446.866	198.237	474.394	353.614	289.885	464.565	366.381	211.592	225.390	267.877	446.039	493.254	159.270	271.276	435.871	0.001272	0.0011784	0.0006973	657.3	1.9844e-06	8.4704e-06	963.31	245.26	1.854e-05	7.3518e-06	441.96	184.61	97.847	44.381	5.6378e-06	98.682	0.0094922	0.011351	0.0031817	778.45	0.00011951	0.0001245	1097.3	286.78	0.0001189	0.00012285	522.25	208.16	121.01	52.272	0.00011998	109.44	245.111	151.850	222.178	149.177	410.102	265.559	150.126	154.972	355.680	379.307	154.203	158.962	159.748	163.648	316.588	162.287	-8191	255	
1169.363	1	1	0	0	0.24089	0.32552	0.088838	0.21744	0.070352	0.1374	0.1488	0.13401	0.12178	0.3198	0.064617	0.16106	0.27872	0.23437	0.15809	0.30454	-2.0438	-2.2875	-2.3583	-2.7521	-2.0708	-2.4292	-2.425	-2.2062	-2.5583	-2.3104	-2.6729	-2.9	-2.125	-2.6458	-2.3667	-2.4813	138.832	369.154	283.027	149.664	462.614	458.924	210.002	489.910	462.081	399.127	201.525	137.879	175.880	182.344	198.159	454.428	0.0012604	0.0016245	0.00067559	650.75	6.6453e-06	1.6028e-05	963.24	245.66	4.7955e-06	1.5651e-05	446.96	186.37	99.168	45.118	2.4011e-05	100.57	0.0092844	0.011211	0.0031385	774.19	0.00011861	0.00012396	1097.4	287.53	0.00011991	0.00012517	527.09	210.26	122.94	53.158	0.00012268	111.31	249.485	252.746	278.648	149.434	410.215	170.340	149.987	154.747	214.442	302.129	154.245	158.842	159.608	163.379	276.658	162.047	-8191	255	
1169.460	1	1	0	0	0.17367	0.13573	0.11803	0.057253	0.15812	0.041426	0.3753	0.11843	0.13749	0.14922	0.19916	0.12699	0.21647	0.13425	0.089497	0.11038	-2.2687	-2.25	-2.2917	-2.7771	-2.2938	-2.5542	-2.5917	-2.2438	-2.5438	-2.4583	-2.5521	-2.7854	-2.2708	-2.55	-2.4521	-2.3542	405.041	288.631	309.148	425.626	205.702	266.798	472.917	372.002	298.792	495.207	196.289	456.936	484.564	464.912	371.243	348.757	0.0010807	0.0012836	0.00012074	656.18	1.0582e-05	9.1271e-06	965.64	251.82	2.6912e-06	9.8298e-06	454.19	191.77	101.91	46.058	1.9838e-05	102.34	0.0095627	0.011554	0.003229	783.11	0.00012303	0.00012869	1108.4	294.6	0.00012408	0.00012835	539.06	215.56	126.29	54.372	0.00012481	113.14	243.551	267.260	142.120	149.360	163.580	294.048	149.415	154.724	264.957	333.418	154.112	158.719	159.547	163.659	340.339	162.031	-8191	255	
1169.556	1	1	0	0	0.37027	0.12138	0.31644	0.08993	0.25034	0.058377	0.18968	0.12675	0.069256	0.28496	0.23297	0.078376	0.12082	0.21103	0.16995	0.026328	-2.2042	-2.3563	-2.1917	-2.6708	-2.1292	-2.5479	-2.6333	-2.2562	-2.6604	-2.3479	-2.5187	-2.8	-2.325	-2.7104	-2.6979	-2.2583	367.797	348.738	335.817	474.101	231.444	464.425	439.194	430.844	191.320	367.307	168.287	266.492	176.492	460.171	446.719	137.524	0.00094327	0.00082456	0.00022575	664.69	5.3091e-06	1.825e-05	984.14	254.61	6.099e-06	1.6935e-05	458.62	192.38	102.9	46.316	2.1727e-05	102.62	0.009736	0.011709	0.0032805	792.95	0.00012529	0.00013041	1121.5	298.01	0.0001259	0.00012965	544.12	217.1	127.69	54.836	0.00012682	113.67	257.759	266.917	141.626	149.442	328.049	489.704	149.877	154.546	356.324	283.821	154.155	158.858	159.788	163.729	321.053	162.124	-8191	255	
1169.676	1	1	0	0	0.21213	0.13481	0.054479	0.052039	0.11335	0.15783	0.27809	0.37602	0.036126	0.24216	0.15081	0.076404	0.049511	0.27024	0.10185	0.26045	-2.1208	-2.2958	-2.3833	-2.7062	-2.3438	-2.1813	-2.7104	-2.4	-2.5187	-2.4167	-2.3104	-2.5396	-2.3917	-2.4479	-2.7979	-2.3375	252.296	445.939	484.443	397.779	229.616	392.866	209.630	468.130	437.055	430.203	494.027	395.277	136.931	483.123	243.218	434.191	0.0011146	0.001206	0.00045492	666.35	6.6403e-06	7.407e-06	980.3	257.09	6.516e-06	3.7677e-06	461.05	193.69	104.04	46.746	4.0961e-06	103.26	0.0099028	0.011826	0.0032812	793.42	0.00012473	0.0001294	1120.4	299.91	0.00012434	0.00012833	544.71	218.37	128.03	55.072	0.00012396	114.36	253.645	186.953	301.647	149.381	261.763	242.268	149.653	154.762	390.919	338.998	154.035	158.776	159.275	163.501	187.899	161.910	-8191	255	
1169.772	1	1	0	0	0.17911	0.11723	0.17938	0.11051	0.12131	0.14249	0.17342	0.17689	0.10693	0.16156	0.12692	0.17667	0.20698	0.14364	0.14377	0.24299	-1.9354	-2.5271	-2.1813	-2.7313	-2.3438	-2.4188	-2.7271	-2.3896	-2.6417	-2.6375	-2.2146	-2.6083	-2.5583	-2.5021	-2.5938	-2.2917	290.196	240.357	316.168	208.038	256.611	402.499	402.737	324.121	398.782	162.050	245.410	185.923	437.435	472.438	456.641	472.738	0.0010679	0.0003405	0.00037961	670.19	8.1085e-06	7.0181e-06	987.19	256.61	6.1917e-06	1.3375e-05	457.86	194.48	104.09	46.48	8.3027e-06	102.74	0.0097138	0.011615	0.0032261	793.42	0.00012214	0.00012713	1116.6	298.98	0.00012169	0.00012563	541.56	217.17	126.98	54.448	0.00012171	113.26	261.377	263.231	331.407	149.567	331.268	448.615	149.698	155.051	219.634	243.140	153.716	158.760	159.357	163.526	283.822	162.038	-8191	255	
1169.869	1	1	0	0	0.051489	0.040549	0.2749	0.14807	0.20515	0.27312	0.04937	0.28869	0.29024	0.17466	0.17267	0.21124	0.092393	0.23527	0.035152	0.32437	-2.1333	-2.6083	-2.0708	-2.7292	-2.5042	-2.3583	-2.9333	-2.4146	-2.4813	-2.6063	-2.2979	-2.5729	-2.3708	-2.475	-2.7313	-2.5167	198.882	375.019	317.829	382.463	150.137	396.027	427.845	492.611	208.530	295.566	171.415	433.185	168.118	143.663	354.625	438.016	0.0011351	0.0017498	0.00018809	663.4	2.0569e-05	1.1006e-05	967.48	250.5	6.9311e-06	3.6228e-06	447.32	186.08	98.799	44.811	4.3671e-06	99.642	0.0096235	0.011404	0.0031777	785.26	0.00012108	0.00012591	1102.9	291.59	0.00012059	0.00012341	527.16	209.84	122.1	52.561	0.00011838	110.14	251.489	264.956	473.603	149.602	332.536	177.440	149.998	154.825	416.039	326.892	154.039	159.004	159.514	163.141	322.882	162.155	-8191	255	
1169.963	1	1	0	0	0.12617	0.072194	0.22932	0.1332	0.10857	0.13385	0.045627	0.15871	0.044801	0.03974	0.15852	0.12408	0.10466	0.24355	0.094217	0.30318	-1.8937	-2.5208	-2.0167	-2.4375	-2.5604	-2.1979	-2.775	-2.3208	-2.4833	-2.7958	-2.3458	-2.6125	-2.6646	-2.4771	-2.6229	-2.6083	479.091	488.574	204.748	260.165	219.787	294.436	392.295	488.044	305.302	338.767	284.281	406.754	209.119	418.565	482.623	476.094	0.0010818	0.0018168	0.00018565	642.6	2.792e-05	4.7932e-06	954.78	240.39	1.6295e-05	8.8547e-06	437.26	182.7	97.068	44.383	8.2091e-06	98.583	0.0093145	0.011081	0.0031092	767.61	0.00011847	0.00012342	1088.9	282.74	0.00012063	0.00012447	519.99	206.86	120.72	52.203	0.00012211	109.59	255.071	326.274	272.891	149.783	280.520	317.266	149.583	154.797	312.222	256.630	154.322	159.047	159.254	163.698	259.319	162.061	-8191	255	
1170.059	1	1	0	0	0.054492	0.18939	0.04866	0.049539	0.14907	0.1213	0.080331	0.095612	0.18795	0.16906	0.14643	0.17578	0.087932	0.13612	0.012145	0.030291	-1.7375	-2.7583	-2.2083	-2.6458	-2.6292	-2.2375	-2.8937	-2.75	-2.3688	-2.6125	-2.4375	-2.7146	-2.6625	-2.2125	-2.4938	-2.7292	194.133	181.180	227.266	437.161	278.138	357.245	386.751	348.076	282.322	421.818	271.706	159.689	376.182	421.082	285.837	417.947	0.0010555	0.0017837	0.00038839	646.8	3.574e-06	8.717e-06	950.38	240.96	1.6477e-05	1.1214e-05	436.84	182.53	97.114	44.437	1.0258e-05	99.374	0.0095329	0.011353	0.0031774	768.98	0.00012054	0.00012463	1083.4	282.04	0.00011904	0.00012162	516.35	206.16	119.66	51.978	0.00011628	109.3	261.499	347.604	271.887	149.439	306.138	184.935	149.799	154.917	313.809	315.190	154.352	158.866	159.216	163.665	283.017	162.171	-8191	255	
1170.155	1	1	0	0	0.26362	0.096864	0.097914	0.37949	0.075	0.28967	0.14683	0.30472	0.096693	0.24974	0.1163	0.24554	0.16931	0.072813	0.2789	0.25672	-1.7917	-2.4938	-2.1646	-2.6146	-2.4979	-2.1625	-2.8438	-2.5458	-2.3417	-2.8083	-2.2687	-2.6125	-2.6125	-2.3729	-2.6667	-2.8104	208.839	437.686	286.998	236.437	224.552	247.910	460.651	349.403	322.428	139.740	382.854	296.406	483.549	359.568	300.334	438.678	0.00094977	0.0012656	0.00029001	650.96	7.5045e-06	8.9249e-06	958.81	247.08	2.611e-06	2.372e-05	446.52	187.34	100.11	45.213	8.3834e-06	100.38	0.0090598	0.01072	0.0029913	765.01	0.00011229	0.00011639	1081.8	285.31	0.00011112	0.00011511	522	209.2	121.46	52.741	0.00011253	110.53	245.878	230.468	306.727	149.285	174.235	303.406	149.535	154.589	234.372	241.534	154.191	158.776	159.526	163.246	251.804	162.243	-8191	255	
1170.251	1	1	0	0	0.052867	0.10161	0.12857	0.25915	0.11117	0.22532	0.28913	0.16548	0.30904	0.14769	0.33797	0.055522	0.076152	0.27416	0.25857	0.2352	-1.7729	-2.7792	-2.1583	-2.4188	-2.6375	-2.2729	-2.3271	-2.6833	-2.2021	-2.7229	-2.5417	-2.4688	-2.6354	-2.3417	-2.4688	-2.7771	462.617	481.894	379.257	141.677	156.495	381.614	458.680	393.590	392.947	168.320	430.829	356.918	489.484	433.610	221.112	399.683	0.00094489	0.0027821	0.00055806	651.95	6.9863e-06	9.9866e-06	964.02	246.87	7.201e-06	6.195e-06	444.78	187.63	99.063	45.47	1.073e-05	101.33	0.0088719	0.010571	0.0029828	767.34	0.00011382	0.0001185	1087.4	286.61	0.0001136	0.00011699	523.2	209.62	121.11	52.917	0.00011381	111.05	254.847	197.352	279.920	149.063	157.922	302.398	149.757	154.720	379.112	340.684	154.131	158.874	159.726	163.272	249.059	162.090	-8191	255	
1170.372	1	1	0	0	0.10453	0.11263	0.048736	0.052931	0.1816	0.3279	0.1403	0.088295	0.095747	0.065944	0.23138	0.34505	0.064805	0.26595	0.099876	0.29349	-1.8188	-2.4604	-2.2583	-2.1396	-2.7167	-2.3979	-2.6583	-2.7375	-2.3604	-2.7354	-2.6375	-2.3312	-2.7521	-2.3125	-2.2896	-2.6854	472.137	425.794	258.579	221.028	383.225	244.339	377.988	247.393	194.171	433.142	444.508	435.464	352.933	475.008	348.646	476.651	0.00099563	0.0012556	0.00040883	649.35	4.5755e-06	1.1729e-05	962.82	246.48	1.4581e-05	2.009e-05	451.98	189.5	100.9	45.889	2.1317e-05	101.51	0.0088184	0.010536	0.0029343	764.03	0.00010912	0.00011347	1082	285.94	0.00010929	0.00011361	523.97	210.37	122.33	53.294	0.00011563	111.56	244.611	171.498	229.845	149.227	440.174	312.280	149.875	154.734	410.190	293.398	154.163	158.838	159.615	163.511	357.201	162.177	-8191	255	
1170.468	1	1	0	0	0.14261	0.14451	0.12471	0.33762	0.15061	0.052468	0.08851	0.3882	0.23035	0.22285	0.23233	0.53156	0.057447	0.36407	0.062762	0.17996	-1.6833	-2.4521	-2.3688	-2.4479	-2.6188	-2.45	-2.3979	-2.7292	-2.2438	-2.5333	-2.6792	-2.4958	-2.625	-2.4729	-2.4208	-2.7771	410.695	321.267	171.895	429.625	396.238	176.998	383.803	445.013	343.298	434.549	473.258	470.104	232.830	417.347	346.392	388.407	0.0010964	0.00099818	2.5883e-05	657.58	1.0983e-05	1.8591e-05	967.31	247.68	1.5823e-05	1.356e-05	448.08	187.13	100.3	45.448	8.0433e-06	100.69	0.0090789	0.010995	0.0030706	773.94	0.00011643	0.00012132	1093.8	288.37	0.00011627	0.00012155	525.48	210.41	122.9	53.105	0.0001191	111.02	245.856	439.848	491.565	149.681	361.419	305.362	149.935	154.826	305.970	333.530	153.914	159.052	159.556	163.565	247.113	162.246	-8191	255	
1170.540	1	1	0	0	0.094636	0.16402	0.13281	0.073157	0.32474	0.27561	0.1621	0.024503	0.11259	0.081466	0.33686	0.15501	0.21979	0.080086	0.10481	0.084576	-1.7708	-2.5563	-2.625	-2.3604	-2.8542	-2.4042	-2.1208	-2.7229	-2.1688	-2.2562	-2.6542	-2.425	-2.5708	-2.4688	-2.1625	-2.8604	172.226	357.976	322.602	252.873	405.564	485.213	455.622	319.321	308.471	338.355	462.548	365.235	291.708	188.967	180.652	141.773	0.00095845	0.00031821	0.00027326	654.24	1.7034e-05	3.9993e-06	970.45	251.74	8.0519e-06	1.2774e-05	455.6	191.53	102.18	46.31	2.0467e-05	102.41	0.0093672	0.011283	0.0031356	779.81	0.00011993	0.00012403	1102.3	292.42	0.0001194	0.00012299	534.68	214.07	124.97	53.913	0.00011633	112.37	258.577	259.978	401.878	149.634	411.502	395.351	149.799	154.711	369.379	276.493	154.073	158.893	159.671	163.253	169.722	162.066	-8191	255	
1170.636	1	1	0	0	0.123	0.2382	0.1696	0.27673	0.21495	0.15446	0.24294	0.13467	0.17507	0.065817	0.10285	0.2129	0.24162	0.19916	0.19378	0.28222	-1.5792	-2.4417	-2.7979	-2.0396	-2.4958	-2.4729	-2.4542	-2.875	-2.4833	-2.5729	-2.7083	-2.3458	-2.7271	-2.6063	-2.2833	-2.7229	342.425	359.625	360.560	411.410	175.934	159.461	412.876	188.899	157.658	436.745	483.337	466.819	422.093	188.959	305.961	161.344	0.0011293	0.0018233	0.00028619	660.17	4.6475e-06	1.0171e-05	976.51	256.86	4.1596e-06	2.1731e-05	461.6	195.35	103.85	46.826	1.2855e-05	102.84	0.0090357	0.010735	0.0029807	778.24	0.0001128	0.0001172	1103.2	295.41	0.00011288	0.00011669	536.76	216.53	125.55	54.114	0.0001119	112.81	245.705	238.509	203.563	149.534	440.161	318.834	149.895	154.915	261.786	303.303	153.996	158.756	159.738	163.304	288.205	162.099	-8191	255	
1170.757	1	1	0	0	0.087486	0.22259	0.18235	0.2702	0.30118	0.056066	0.31451	0.17953	0.17062	0.23789	0.099765	0.1551	0.091932	0.068577	0.0908	0.24464	-1.9917	-2.2604	-2.825	-2.425	-2.4313	-2.5083	-2.2792	-2.8104	-2.4771	-2.275	-2.8083	-2.3979	-2.4437	-2.5708	-2.1437	-2.7167	393.582	273.308	153.824	393.357	482.339	353.537	397.944	474.224	262.598	162.735	450.859	194.070	204.292	364.188	276.190	445.698	0.0011572	0.00079562	0.00048186	663.19	1.9189e-05	2.8395e-05	978.76	254	7.9123e-06	1.1038e-05	459.33	191.01	103.05	46.258	1.6444e-05	101.81	0.0087758	0.010391	0.0028897	774.78	0.0001105	0.00011447	1096.7	291.5	0.00011029	0.00011388	530.91	213.32	124.15	53.397	0.0001114	111.65	248.782	318.054	196.065	149.392	463.020	343.925	150.019	154.737	401.125	250.243	154.143	158.949	159.396	163.394	332.455	162.077	-8191	255	
1170.853	1	1	0	0	0.089596	0.024178	0.18347	0.19704	0.25918	0.10688	0.016507	0.19562	0.11556	0.1906	0.0287	0.12553	0.18822	0.22192	0.13102	0.34454	-1.8625	-2.1271	-2.5187	-2.4167	-2.3854	-2.7625	-2.3625	-2.7083	-2.4833	-2.2854	-2.6646	-2.3979	-2.5521	-2.6229	-2.3083	-2.5979	362.484	221.856	441.385	169.804	156.162	141.997	226.708	414.761	341.225	183.863	154.509	437.684	414.005	430.573	322.434	460.837	0.0010554	0.0012552	0.00066761	659.57	7.3883e-06	1.0825e-05	970.53	250.88	3.8312e-06	6.4175e-06	448.27	188.07	99.541	44.877	9.4104e-06	99.845	0.0087737	0.01049	0.0029071	773.27	0.00011119	0.00011401	1089.2	288.97	0.00010971	0.00011258	522.18	209.36	120.82	52.291	0.00011041	109.41	262.621	187.540	213.098	149.598	217.319	392.633	149.802	154.750	149.449	371.213	154.219	158.837	159.890	163.516	262.799	162.197	-8191	255	
1170.949	1	1	0	0	0.18873	0.14294	0.12704	0.2853	0.093497	0.15338	0.37537	0.1614	0.10607	0.29858	0.084245	0.17795	0.17363	0.026767	0.16108	0.35667	-1.9229	-2.0896	-2.5792	-2.4979	-2.3979	-2.5292	-2.2938	-2.5729	-2.4875	-2.3688	-2.8	-2.6854	-2.5854	-2.9062	-2.1917	-2.7729	426.125	440.684	295.889	467.439	324.041	310.218	486.390	375.793	441.716	483.626	388.613	470.650	381.959	399.080	388.463	454.167	0.0011221	0.0026925	0.00052411	645.76	4.6161e-06	1.333e-05	948.4	242.51	1.5136e-05	1.955e-05	440.81	183.42	97.045	44.08	1.3122e-05	98.432	0.0086908	0.010306	0.002867	756.88	0.00010926	0.00011193	1070	280.05	0.0001078	0.00011059	512.85	204.82	118.15	51.37	0.00010879	108.22	256.031	300.978	183.027	149.528	380.168	260.511	150.058	154.966	329.859	424.503	153.806	158.989	159.624	163.386	209.705	162.013	-8191	255	
1171.068	1	1	0	0	0.13424	0.19338	0.045628	0.21257	0.13976	0.17305	0.096855	0.22936	0.080104	0.12422	0.17799	0.082499	0.084011	0.11584	0.17535	0.32045	-2.0979	-2.0583	-2.6333	-2.3542	-2.4708	-2.6521	-2.5979	-2.5146	-2.7917	-2.3396	-2.5563	-2.5042	-2.3833	-2.7521	-2.3312	-2.5687	368.099	367.927	243.348	393.375	462.489	259.890	414.634	359.831	465.367	347.781	458.209	475.802	403.811	188.584	228.606	425.957	0.00097735	0.0020303	0.00020143	642.88	1.7034e-05	8.784e-06	951.1	243.14	5.384e-06	1.936e-05	442.1	183.01	97.287	44.304	9.1336e-06	98.983	0.0084747	0.01005	0.0028203	752.29	0.00010697	0.00011047	1066.5	279.52	0.00010627	0.00010899	511.54	203.67	117.41	51.017	0.00010565	107.79	255.880	274.940	182.094	149.591	319.099	232.002	149.977	154.959	365.493	308.087	154.259	158.776	159.526	163.492	445.475	162.275	-8191	255	
1171.164	1	1	0	0	0.14358	0.11392	0.07492	0.13513	0.21297	0.096108	0.09196	0.25777	0.12573	0.11761	0.14662	0.068569	0.06443	0.075567	0.3004	0.33281	-2.3354	-2.1437	-2.4396	-2.5667	-2.3625	-2.8146	-2.5396	-2.5187	-2.7479	-2.2417	-2.6396	-2.5229	-2.3563	-2.7875	-2.3354	-2.5687	337.132	490.487	147.382	439.000	397.997	353.128	451.979	155.129	306.805	459.109	145.956	442.739	214.449	396.822	289.659	426.913	0.0012969	0.00051064	0.00056478	642.57	5.7981e-06	1.3611e-05	950.19	242.09	2.3595e-06	6.6422e-06	440.35	184.18	97.137	44.386	9.8277e-06	98.48	0.0082083	0.0097572	0.0027364	748.39	0.00010371	0.00010739	1062.2	278.77	0.00010316	0.00010632	509.07	203.7	117.26	51.042	0.00010408	107.55	248.500	188.263	478.723	149.417	358.806	275.916	150.092	155.005	256.303	328.000	153.806	159.050	159.651	163.781	199.827	162.261	-8191	255	
1171.237	1	1	0	0	0.10163	0.42625	0.29299	0.084981	0.16702	0.088143	0.086647	0.29127	0.20187	0.1419	0.1804	0.075315	0.17258	0.39064	0.1766	0.14537	-2.2896	-2.1063	-2.5208	-2.3833	-2.1229	-2.4313	-2.6	-2.6229	-2.7958	-2.2708	-2.6354	-2.6292	-2.1312	-2.8917	-2.4208	-2.3458	394.341	494.869	331.661	476.226	197.832	329.706	163.334	471.052	440.542	406.924	471.185	474.804	357.072	442.723	175.500	386.888	0.00096109	0.00047803	0.0001875	642.31	1.5236e-06	8.442e-06	949.04	243.55	3.5649e-06	5.2632e-06	439.65	183.82	97.304	44.318	1.4166e-05	98.95	0.0080752	0.0096468	0.0027011	746.14	0.00010216	0.00010642	1059.7	278.87	0.00010218	0.00010597	509.48	203.42	117.08	50.978	0.00010251	107.68	258.526	253.392	279.511	149.512	140.809	472.822	149.567	154.851	267.020	411.732	153.879	158.947	159.612	163.842	258.272	162.064	-8191	255	
1171.356	1	1	0	0	0.30162	0.12542	0.38935	0.29013	0.26548	0.24956	0.25904	0.17704	0.20705	0.14114	0.090338	0.25878	0.096477	0.39528	0.12736	0.26783	-2.1875	-2.3083	-2.5438	-2.6688	-2.3125	-2.7771	-2.5979	-2.4375	-2.6479	-2.4854	-2.5458	-2.7062	-2.2771	-2.6354	-2.5875	-2.5062	475.482	244.517	490.229	205.688	318.643	482.942	448.247	423.505	347.981	478.779	369.885	139.907	404.715	477.151	337.053	430.374	0.00089153	0.0023291	0.00049786	647.36	7.8749e-06	9.6201e-06	950.12	244.41	2.7952e-06	7.5405e-06	442.49	185.57	98.521	44.729	1.2814e-05	99.046	0.0080298	0.009659	0.0027188	748.86	0.0001029	0.00010739	1062.6	279.97	0.00010292	0.00010727	512.23	205.26	118.2	51.48	0.00010553	108.28	247.171	181.093	474.556	149.463	281.486	290.573	150.189	154.887	321.833	293.987	154.070	158.893	159.306	163.505	394.169	162.291	-8191	255	
1171.453	1	1	0	0	0.025326	0.17445	0.080582	0.22622	0.13401	0.1858	0.1623	0.086394	0.055945	0.23323	0.095525	0.18979	0.24173	0.15107	0.20919	0.21863	-2.4479	-2.2271	-2.5062	-2.7333	-2.2146	-2.4833	-2.6729	-2.3167	-2.6542	-2.6375	-2.475	-2.7583	-2.3688	-2.7562	-2.5812	-2.3187	399.158	345.033	234.602	468.562	312.059	245.819	243.382	283.118	352.149	413.657	291.625	307.116	452.934	486.346	288.399	398.839	0.0010249	0.0018211	0.00034496	644.29	1.7055e-05	4.8285e-06	952.59	244.09	4.1702e-06	1.8309e-06	443.06	185.32	98.688	44.742	5.242e-06	99.737	0.0082422	0.0099299	0.0027881	752.97	0.00010683	0.00011145	1071.6	281.27	0.00010835	0.00011297	516.49	206.84	120.1	52.36	0.00011394	109.97	249.024	291.165	199.649	149.402	218.647	143.468	150.102	154.735	166.013	163.413	153.872	158.797	159.649	163.341	166.425	162.289	-8191	255	
1171.549	1	1	0	0	0.1947	0.073524	0.22212	0.10548	0.175	0.21702	0.17036	0.19197	0.29175	0.13693	0.087587	0.13067	0.14144	0.090564	0.18706	0.055129	-2.2	-2.6042	-2.4333	-2.7958	-2.2104	-2.5812	-2.6542	-2.3292	-2.5208	-2.3479	-2.3208	-2.8146	-2.2667	-2.5792	-2.4583	-2.3563	424.417	439.036	364.516	173.725	472.937	277.478	423.609	371.688	214.715	407.697	492.251	164.749	349.913	470.451	346.387	183.783	0.0012021	0.0013761	0.00028203	651.2	1.1103e-05	9.7581e-06	969.24	249.76	1.2945e-05	5.5194e-06	454.45	190.14	102.06	45.906	6.4015e-06	101.62	0.0090472	0.010903	0.0030599	773.68	0.00011677	0.00012141	1093.5	291.62	0.0001157	0.00011934	529.66	211.91	123.63	53.451	0.00011425	111.43	240.264	310.100	323.628	149.314	339.869	362.598	150.209	155.011	308.709	402.313	154.272	159.051	159.462	163.462	177.323	162.244	-8191	255	
1171.669	1	1	0	0	0.14979	0.24625	0.092416	0.19543	0.10077	0.17267	0.31532	0.40657	0.065965	0.23414	0.21725	0.11589	0.15548	0.14735	0.22428	0.2553	-1.9188	-2.2292	-2.2396	-2.6813	-2.1708	-2.3	-2.6354	-2.2938	-2.5771	-2.5792	-2.3167	-2.9792	-2.5354	-2.5042	-2.6604	-2.4729	480.035	249.930	320.848	454.740	156.505	440.483	439.495	468.776	405.627	157.256	374.363	492.076	486.878	482.276	179.167	467.016	0.0010188	0.0022893	0.00033245	661.41	4.9986e-06	1.3197e-05	972.92	254.7	2.1484e-05	1.5241e-05	457.45	191.98	102.83	46.779	9.1221e-06	102.48	0.0089933	0.01073	0.0030088	775.63	0.00011477	0.00011902	1098.2	293.65	0.00011519	0.00011965	534.72	215.04	126.03	54.444	0.0001209	113.03	254.400	269.744	198.136	149.510	332.306	201.681	149.871	154.802	240.154	330.312	154.122	158.948	159.656	163.774	350.292	162.075	-8191	255	
1171.765	1	1	0	0	0.14941	0.2869	0.076296	0.15943	0.22702	0.084805	0.044765	0.41052	0.11595	0.10347	0.070609	0.32343	0.049731	0.10727	0.1875	0.30636	-2.1708	-2.5542	-2.2562	-2.7062	-2.5521	-2.5021	-2.9062	-2.2771	-2.6688	-2.5229	-2.4354	-2.8792	-2.3854	-2.4562	-3.0458	-2.5021	198.866	434.088	138.451	365.085	253.356	334.715	303.349	451.667	349.724	244.259	144.901	348.525	332.880	142.196	399.977	399.230	0.0010997	0.0012595	0.00031262	659.81	6.6372e-06	1.3357e-05	971.28	253.38	1.5472e-05	1.6461e-05	455.48	190.03	101.93	45.584	1.7707e-05	101.03	0.009623	0.011554	0.0032506	791.11	0.0001246	0.00012874	1111.5	296.8	0.00012505	0.0001279	537.69	214.48	126.14	53.762	0.00012446	112.05	249.278	229.360	417.695	149.623	200.346	467.836	150.102	154.954	275.760	277.997	153.682	158.686	159.688	163.427	310.527	162.371	-8191	255	
1171.837	1	1	0	0	0.2322	0.27161	0.15922	0.37606	0.15114	0.20812	0.1752	0.24414	0.089478	0.1682	0.1344	0.2486	0.12805	0.27006	0.1809	0.30862	-2.1	-2.5	-2.2042	-2.7292	-2.5354	-2.3792	-2.9083	-2.3271	-2.5292	-2.7396	-2.3896	-2.8396	-2.625	-2.3625	-2.6083	-2.5375	258.380	144.428	156.424	446.314	409.409	473.187	157.476	455.826	374.129	365.111	141.536	144.494	158.815	477.489	268.850	487.589	0.0011053	0.0024007	0.00037902	657.41	1.824e-05	7.6679e-06	973.84	252.08	6.9822e-06	1.5983e-05	457.14	189.58	102.49	45.762	1.0492e-05	100.92	0.0097923	0.011666	0.0032351	789.06	0.00012317	0.00012758	1108.3	295.27	0.00012204	0.00012503	536.58	214.32	125.95	53.869	0.00012181	111.84	253.501	260.834	277.757	149.572	234.944	374.190	149.844	154.789	274.178	257.124	154.027	158.632	159.117	163.141	277.490	162.184	-8191	255	
1171.933	1	1	0	0	0.233	0.16063	0.15625	0.17262	0.26287	0.1214	0.46285	0.2513	0.133	0.2278	0.25753	0.19431	0.13428	0.10194	0.10008	0.34243	-1.9917	-2.4938	-2.1625	-2.6375	-2.7958	-2.2313	-2.8812	-2.6104	-2.5187	-2.6146	-2.3667	-2.7354	-2.7604	-2.5479	-2.6229	-2.6167	365.482	281.419	149.339	315.423	268.549	447.408	423.612	447.265	421.418	405.793	439.503	137.564	388.264	284.138	371.677	388.284	0.0011789	0.0021437	0.00039111	658.96	2.1749e-06	4.3704e-06	961.62	250.39	8.6258e-06	9.614e-06	446.83	187	100.11	45.014	7.8286e-06	99.431	0.0095433	0.011338	0.0031581	782.17	0.00011914	0.00012318	1095.4	291.38	0.00011855	0.0001223	527.96	210.64	123.14	52.833	0.0001194	110.02	259.179	214.472	357.174	149.350	459.598	478.799	150.024	154.932	253.275	209.024	154.002	159.066	159.646	163.394	259.641	162.113	-8191	255	
1172.052	1	1	0	0	0.24177	0.13733	0.19863	0.16871	0.20518	0.12286	0.2117	0.24839	0.049946	0.16252	0.13043	0.060376	0.19963	0.051456	0.27278	0.22006	-1.9937	-2.725	-2.1188	-2.5771	-2.65	-2.25	-2.8375	-2.5083	-2.2896	-2.7583	-2.2438	-2.5042	-2.6854	-2.2708	-2.6312	-2.6833	338.348	166.976	479.218	434.532	215.911	286.039	444.619	474.372	376.091	302.806	447.043	343.820	404.344	276.428	221.470	465.578	0.00080033	0.0011166	0.00022241	646.47	1.6614e-05	1.6372e-05	955.53	246.51	8.2887e-06	8.0075e-06	444.28	186.32	98.873	45.09	1.1695e-05	100.24	0.0092359	0.01101	0.0030608	767.59	0.00011618	0.00011939	1083	287.03	0.00011724	0.00012124	524.55	209.43	122.33	52.901	0.00012014	110.57	253.701	381.765	200.988	149.438	319.670	367.221	149.946	154.665	235.001	175.864	153.851	158.878	159.493	163.434	284.340	162.031	-8191	255	
1172.148	1	1	0	0	0.199	0.28416	0.13942	0.23449	0.04636	0.22708	0.13228	0.0676	0.30916	0.078431	0.26782	0.24189	0.3067	0.2938	0.095868	0.17038	-1.9104	-2.6979	-2.3833	-2.5417	-2.6479	-2.4417	-2.7667	-2.5438	-2.1604	-2.7479	-2.4396	-2.4667	-2.6958	-2.3271	-2.5667	-2.625	431.347	309.801	452.364	414.656	303.252	262.962	293.112	415.417	452.591	399.373	158.624	159.925	410.161	219.284	454.472	477.800	0.0010694	0.0014667	0.00048009	647.22	1.3641e-05	5.4692e-06	952.25	244.61	1.1829e-05	1.1192e-05	444.16	185.49	97.934	44.507	1.2971e-05	98.373	0.00941	0.011226	0.003164	771.41	0.00012161	0.00012605	1090.4	287.75	0.00012422	0.00012945	528.14	209.21	122.28	52.793	0.00012687	109.77	253.639	267.029	150.928	149.732	420.584	417.130	149.936	155.175	338.054	369.343	153.996	159.034	159.373	163.324	331.237	162.462	-8191	255	
1172.244	1	1	0	0	0.22021	0.082944	0.11529	0.24835	0.071758	0.13033	0.096116	0.076748	0.1035	0.041133	0.27759	0.098419	0.056419	0.3014	0.05307	0.051182	-1.7	-2.7146	-2.2333	-2.5042	-2.8354	-2.4417	-2.7771	-2.7729	-2.3563	-2.7542	-2.4667	-2.4604	-2.8875	-2.4313	-2.5812	-2.5938	214.099	413.807	371.667	403.938	141.470	493.313	442.506	393.924	446.403	201.636	153.809	223.925	292.977	458.404	451.646	288.389	0.0010854	0.001051	0.00047112	644.99	5.3766e-06	2.1307e-05	950.75	242.07	1.3926e-05	2.2741e-05	440.75	183.54	97.871	44.275	1.0276e-05	98.811	0.0098353	0.011791	0.0033044	773.96	0.00012544	0.00013062	1090.7	286.74	0.0001265	0.00013133	526.35	208.36	122.78	52.948	0.00013015	110.39	246.976	365.572	491.285	149.636	459.961	314.977	149.695	154.647	289.369	348.720	154.310	158.920	159.822	163.466	152.671	162.314	-8191	255	
1172.341	1	1	0	0	0.1475	0.1811	0.16567	0.13791	0.18291	0.28508	0.15694	0.2155	0.094926	0.14127	0.13387	0.17649	0.17485	0.17814	0.099569	0.27679	-1.6625	-2.65	-2.6042	-2.3	-2.8375	-2.3208	-2.6625	-2.7167	-2.1375	-2.4271	-2.4979	-2.4333	-2.8729	-2.3604	-2.4437	-2.8812	280.752	205.663	236.463	152.297	236.407	332.769	401.966	408.488	496.596	173.883	160.420	464.550	178.871	193.688	146.004	375.126	0.001334	0.00021948	0.00030642	643.77	7.1509e-06	4.7102e-06	947.87	243.14	2.9782e-06	1.1774e-05	440.99	184.52	98.654	44.699	6.0165e-06	99.141	0.010047	0.012041	0.003373	777.89	0.00012649	0.0001311	1090	288.09	0.00012556	0.00013022	527.52	209.01	122.92	53.066	0.00012771	110.6	248.877	453.902	192.510	149.407	414.860	448.600	149.847	154.975	472.540	299.231	154.145	158.914	159.886	163.286	269.215	161.927	-8191	255	
1172.437	1	1	0	0	0.087627	0.11955	0.082313	0.27488	0.15444	0.17322	0.23174	0.1438	0.06287	0.12182	0.08603	0.27551	0.10383	0.070843	0.057251	0.067668	-1.7333	-2.6646	-2.5083	-2.2938	-2.5875	-2.4333	-2.4583	-2.5812	-2.1437	-2.4458	-2.7208	-2.3521	-2.7125	-2.5187	-2.3333	-2.9167	382.606	330.293	438.052	187.541	277.884	269.382	406.467	370.921	199.903	179.966	332.466	390.233	171.666	455.245	276.581	143.287	0.0012011	0.002285	0.00051982	647.29	9.3264e-06	6.9484e-06	956.28	248.05	1.8577e-05	1.2512e-05	450.14	187.23	100.28	46.009	1.2239e-05	100.19	0.009951	0.012044	0.0033618	782.84	0.00012893	0.00013564	1105.8	294.94	0.00013159	0.00013693	540.8	214.29	126.89	54.68	0.00013531	112.79	254.179	245.717	181.902	149.787	205.788	219.474	149.593	154.892	290.387	308.585	153.839	158.931	159.091	163.317	239.514	162.162	-8191	255	
1172.533	1	1	0	0	0.34751	0.1198	0.2996	0.32306	0.09806	0.086536	0.13891	0.15805	0.125	0.0081413	0.049484	0.076314	0.25486	0.072086	0.05265	0.096583	-1.6958	-2.4917	-2.3771	-2.35	-2.6521	-2.4813	-2.5542	-2.9458	-2.2812	-2.4125	-2.7125	-2.6146	-2.7042	-2.5375	-2.3167	-2.9	253.169	200.892	472.561	478.844	305.208	435.767	410.617	374.671	329.658	376.842	141.763	489.901	457.197	437.678	319.272	486.309	0.0010131	0.0014003	0.00017538	652.25	1.1939e-05	1.0044e-05	961.49	249.02	2.1757e-05	1.6385e-05	449.49	187.86	100.33	45.556	1.3019e-05	100.34	0.010645	0.012858	0.003602	797.08	0.0001381	0.00014382	1118.7	298.1	0.00013802	0.00014326	543.01	215.22	127.34	54.723	0.00013839	112.71	257.772	290.662	488.304	149.067	309.739	278.536	149.689	154.810	264.452	475.951	153.863	158.657	159.695	163.309	418.967	162.082	-8191	255	
1172.629	1	1	0	0	0.14791	0.28217	0.072707	0.087526	0.12026	0.16963	0.18239	0.18899	0.093145	0.16103	0.26479	0.074309	0.46354	0.35071	0.11649	0.18474	-1.9396	-2.225	-2.6688	-2.2521	-2.7208	-2.6417	-2.5667	-2.7562	-2.4229	-2.5333	-2.6333	-2.4521	-2.5729	-2.6937	-2.3187	-2.9813	287.011	344.638	358.087	475.882	336.846	207.302	474.312	410.444	312.777	151.471	463.908	156.351	464.337	426.897	148.113	403.194	0.00082294	0.0014337	8.3715e-05	652.58	9.236e-06	8.3053e-06	963.3	248.75	8.0662e-06	1.0429e-05	446.3	187.53	99.929	45.415	5.6739e-06	99.757	0.010775	0.013	0.0036258	798.02	0.00013936	0.00014469	1120.3	298.18	0.00013858	0.00014344	542.16	215.22	127.11	54.428	0.00013546	112.06	249.575	258.079	461.396	149.490	322.115	266.289	149.941	154.582	314.536	358.216	153.885	158.842	159.510	163.527	456.418	162.101	-8191	255	
1172.750	1	1	0	0	0.32967	0.23819	0.38314	0.21473	0.091633	0.24654	0.078201	0.30009	0.1013	0.11243	0.3654	0.34913	0.085336	0.31598	0.19044	0.051392	-2.0083	-2.2896	-2.6917	-2.2354	-2.8167	-2.4646	-2.4271	-2.8104	-2.4396	-2.3958	-2.8104	-2.4979	-2.4958	-2.65	-2.3729	-2.875	391.372	213.392	467.769	349.289	190.330	335.376	393.309	473.838	397.944	178.420	475.068	445.093	395.530	491.215	314.321	173.251	0.0011059	7.8194e-05	0.00029912	650.97	1.9009e-05	1.0511e-05	963.33	248.75	6.0508e-06	7.0701e-06	449.99	187.12	99.892	45.461	3.8946e-06	100.28	0.010591	0.012675	0.0035107	791.47	0.00013409	0.00013934	1112.6	295.47	0.00013461	0.00013918	539.61	214.58	126.76	54.358	0.00013473	112.55	250.344	319.488	206.522	149.352	319.139	295.668	149.691	154.786	304.883	359.951	154.075	158.873	159.340	163.359	494.417	162.042	-8191	255	
1172.846	1	1	0	0	0.32912	0.18518	0.069408	0.16254	0.30533	0.17181	0.13319	0.36519	0.31766	0.21178	0.16787	0.12273	0.16707	0.31996	0.29306	0.30799	-2.2062	-2.3979	-2.7979	-2.2771	-2.5	-2.6771	-2.35	-2.875	-2.625	-2.4292	-2.8417	-2.4875	-2.6271	-2.8042	-2.2375	-2.9083	261.920	214.672	332.315	426.417	459.413	361.497	433.970	486.867	174.165	331.023	161.724	210.179	415.806	438.886	279.256	440.609	0.0010042	0.0012771	0.00056545	653.64	1.4936e-05	8.1225e-06	961.66	251.18	8.2631e-06	1.3156e-05	449.42	188.97	99.675	45.241	1.0118e-05	99.49	0.010611	0.012687	0.0035354	796.05	0.00013524	0.00013894	1113.3	296.78	0.00013278	0.0001364	538.2	213.47	125.05	53.658	0.00012932	111.13	249.162	472.076	151.993	149.574	286.373	353.457	149.951	154.697	400.215	392.740	154.041	158.892	159.668	163.385	402.838	162.231	-8191	255	
1172.942	1	1	0	0	0.156	0.26506	0.12352	0.20192	0.14238	0.098989	0.11987	0.11576	0.066084	0.078921	0.11434	0.075546	0.046294	0.30145	0.082585	0.17392	-2.0042	-2.2021	-2.9062	-2.4646	-2.5646	-2.7313	-2.4354	-2.5771	-2.4396	-2.325	-2.7167	-2.5812	-2.3604	-2.6	-2.1646	-2.7646	228.507	253.248	186.315	447.402	476.364	204.107	460.929	415.543	454.439	189.968	184.446	371.004	222.136	318.723	477.082	343.715	0.00095998	0.00020642	0.00040973	643.68	4.9796e-06	2.0193e-05	948.9	241.67	1.4981e-05	1.6818e-05	435.16	182.47	96.264	43.906	4.5755e-07	98.238	0.010094	0.011996	0.0033542	777.85	0.00012674	0.00013112	1090.8	286.37	0.00012617	0.0001297	521.19	207.18	120.94	52.219	0.00012559	109.19	240.212	168.573	226.387	149.625	375.422	309.297	149.830	154.832	254.566	262.828	153.969	159.133	159.964	163.260	477.961	162.190	-8191	255	
1173.038	1	1	0	0	0.2106	0.17373	0.27194	0.3031	0.17978	0.04427	0.12266	0.31062	0.13316	0.14739	0.31467	0.25978	0.065081	0.37812	0.14702	0.092934	-2.1521	-2.2479	-2.6583	-2.4521	-2.4042	-2.6396	-2.5125	-2.8625	-2.7771	-2.4208	-2.7771	-2.6458	-2.4729	-2.8792	-2.4167	-2.6854	481.370	320.266	237.780	326.181	348.974	298.696	422.114	479.454	223.999	369.437	464.498	467.727	470.331	136.838	439.699	220.958	0.00095115	0.0010522	0.0002048	640.21	1.2307e-05	6.8715e-06	940.2	240.07	3.7486e-06	1.5344e-05	437.03	180.72	95.861	43.461	9.368e-06	97.043	0.0098474	0.011691	0.0032827	770.06	0.00012371	0.00012776	1080.9	283.42	0.00012288	0.00012572	516.37	204.37	119.19	51.38	0.00012109	107.88	251.772	240.018	189.544	149.375	237.384	409.011	149.878	154.798	257.181	241.504	154.216	158.855	159.834	163.561	345.173	162.370	-8191	255	
1173.133	1	1	0	0	0.079463	0.10835	0.093266	0.080133	0.11825	0.13901	0.30082	0.086449	0.049453	0.049641	0.051362	0.14635	0.21117	0.15451	0.088178	0.40068	-2.3042	-2.4958	-2.6458	-2.8229	-2.3542	-2.8479	-2.4604	-2.5854	-2.8229	-2.2854	-2.8521	-2.675	-2.2208	-2.7792	-2.4167	-2.6792	489.803	470.337	161.527	396.780	428.026	317.092	423.238	383.208	346.935	309.743	455.102	479.747	489.538	387.186	224.418	429.850	0.00093084	0.0017123	0.00020677	641.24	8.7443e-06	3.624e-06	943.2	240.05	6.3244e-06	1.0014e-05	435.08	180.84	96.788	43.85	2.21e-05	97.833	0.0093892	0.011158	0.0031172	762.55	0.00011772	0.00012201	1077.5	280.9	0.00011804	0.00012205	516.07	204.66	119.9	51.733	0.00012279	108.65	255.353	151.649	155.860	149.382	370.534	449.460	149.881	154.688	331.771	454.454	154.194	159.042	159.330	163.463	299.673	162.341	-8191	255	
1173.229	1	1	0	0	0.15869	0.15614	0.18733	0.038519	0.29289	0.17836	0.033228	0.13342	0.1207	0.10364	0.11078	0.32146	0.25356	0.025173	0.12176	0.24307	-2.35	-2.225	-2.5042	-2.7354	-2.3271	-2.8438	-2.65	-2.5271	-2.6875	-2.4104	-2.6896	-2.6188	-2.4521	-2.7229	-2.5062	-2.4708	249.098	482.368	241.251	379.203	454.484	152.956	411.446	323.737	267.209	151.392	206.876	435.808	441.657	332.603	397.731	476.382	0.00097829	0.00069427	0.00029643	640.21	4.2224e-06	1.7895e-05	946.44	239.68	1.817e-05	6.9694e-06	436.37	180.99	96.346	43.636	1.2401e-05	97.766	0.0095206	0.011424	0.0032254	769.09	0.00012215	0.00012773	1085.1	283.13	0.00012386	0.00012934	520.17	206.02	120.91	52.085	0.00013024	109.18	253.474	301.045	186.600	149.761	292.847	175.929	149.759	154.909	356.184	298.137	154.469	158.926	159.477	163.612	293.423	162.312	-8191	255	
1173.349	1	1	0	0	0.1919	0.19781	0.17459	0.15238	0.1117	0.12176	0.26589	0.19013	0.12079	0.11151	0.072083	0.22885	0.093156	0.30004	0.10309	0.18493	-2.2146	-2.2625	-2.525	-2.7292	-2.3083	-2.7208	-2.6583	-2.5208	-2.8208	-2.5	-2.525	-2.6417	-2.3333	-2.75	-2.5167	-2.4521	314.442	374.743	247.879	141.085	328.453	251.566	376.756	196.697	297.889	337.395	456.800	163.634	324.576	463.506	362.108	389.010	0.00096961	0.0022052	0.00052111	644.11	1.1824e-05	2.6786e-05	949.92	239.32	4.9164e-06	1.5967e-05	435.61	181.27	96.216	43.587	1.6916e-05	97.549	0.01013	0.012259	0.0034397	780.5	0.0001298	0.00013497	1096.4	285.7	0.00013033	0.00013503	524.66	207.51	122.46	52.442	0.0001342	109.54	262.041	215.692	254.344	149.542	365.655	290.401	149.744	154.995	282.967	316.712	154.131	158.721	159.774	163.666	340.092	162.416	-8191	255	
1173.445	1	1	0	0	0.05227	0.2039	0.18456	0.11379	0.16708	0.13221	0.30152	0.26174	0.23236	0.13994	0.41423	0.37655	0.21905	0.14121	0.15572	0.30984	-2.3104	-2.5	-2.35	-2.7208	-2.3167	-2.5021	-2.5208	-2.2833	-2.8417	-2.3833	-2.6417	-2.8792	-2.3937	-2.675	-2.7438	-2.5125	432.470	463.234	321.914	379.430	321.418	431.375	398.375	378.094	310.648	182.742	394.464	459.995	161.010	366.133	431.577	170.649	0.001183	0.00021838	9.664e-05	651.7	1.4793e-05	2.3335e-05	957.36	243.51	2.2422e-06	1.943e-05	438.42	183.54	97.229	44.044	1.1196e-05	98.128	0.010445	0.0127	0.0035547	789.66	0.00013446	0.00014035	1107.9	291.24	0.00013574	0.00014038	532.33	210.29	124.61	53.177	0.00013723	110.3	247.811	215.828	167.641	149.425	227.601	226.186	149.955	154.804	355.122	302.912	153.978	158.867	159.621	163.217	320.189	162.436	-8191	255	
1173.542	1	1	0	0	0.10646	0.11358	0.12266	0.20773	0.27468	0.32917	0.32338	0.12787	0.12684	0.24132	0.12066	0.049659	0.23845	0.15512	0.026193	0.11482	-2.3438	-2.5854	-2.3333	-2.8625	-2.3063	-2.6333	-2.5667	-2.3	-2.7042	-2.5438	-2.3458	-2.7	-2.4792	-2.5542	-2.8	-2.4271	278.470	175.732	362.195	167.800	352.289	153.262	405.239	490.870	439.154	394.555	359.875	351.063	424.446	455.513	143.033	383.860	0.0010721	0.00031951	0.00031408	651.51	1.429e-05	6.8318e-06	959.81	244.14	1.1945e-05	1.2512e-05	444.42	185.02	98.418	44.096	1.9897e-05	97.582	0.010664	0.012949	0.0036084	795.31	0.00013919	0.00014579	1118	294.42	0.00014034	0.00014608	538.8	212.36	126.25	53.472	0.00014368	110.89	264.849	305.548	141.862	149.465	234.793	484.898	149.820	154.919	411.815	405.856	154.262	158.755	159.524	163.423	290.976	162.286	-8191	255	
1173.638	1	1	0	0	0.11738	0.12316	0.34376	0.43594	0.22672	0.21016	0.16734	0.12573	0.088047	0.16597	0.0093447	0.20243	0.18073	0.16213	0.13034	0.14028	-2.2521	-2.6229	-2.1937	-2.8458	-2.2021	-2.4708	-2.7896	-2.2354	-2.5854	-2.7417	-2.2	-2.7167	-2.4083	-2.4646	-2.5333	-2.1375	414.542	302.179	293.497	489.435	431.737	308.589	153.354	330.048	166.297	373.508	361.454	150.382	204.382	147.713	145.594	451.035	0.0010764	0.0020045	0.00028553	652.16	1.4934e-05	1.4554e-05	962.49	246.24	1.6054e-05	8.6249e-06	444.84	185.35	98.916	44.108	4.9339e-06	98.34	0.011189	0.013499	0.0037453	802.05	0.00014329	0.00014857	1125.5	296.16	0.00014227	0.00014751	541.26	213.46	126.75	53.483	0.00014063	110.8	263.217	253.043	156.795	149.769	248.867	195.919	149.654	154.865	280.065	415.954	154.226	158.809	159.716	163.356	236.221	162.298	-8191	255	
1173.734	1	1	0	0	0.13349	0.16422	0.077342	0.32347	0.20421	0.23368	0.15082	0.18535	0.12101	0.10951	0.19337	0.21977	0.079548	0.39823	0.15689	0.22235	-2.0312	-2.425	-2.4354	-2.6792	-2.4625	-2.5333	-2.8083	-2.2958	-2.5646	-2.6854	-2.6104	-2.8563	-2.4167	-2.4979	-2.8833	-2.5896	390.166	164.437	190.604	464.017	141.874	263.181	455.938	213.956	315.131	430.318	465.672	462.565	399.126	445.055	417.655	366.486	0.00086295	0.0025827	0.0004573	658.83	6.3204e-06	1.1598e-05	964.21	248.38	1.5162e-05	7.4347e-06	445.43	184.31	98.627	43.707	1.2557e-05	97.458	0.011031	0.013238	0.0036715	802.45	0.00014042	0.00014573	1121.6	296.5	0.00014002	0.00014375	539.08	212.84	126.25	53.17	0.00013919	110.44	249.374	148.191	224.177	149.732	400.778	248.474	150.011	154.911	491.985	340.819	154.165	158.985	159.495	163.757	174.155	162.318	-8191	255	
1173.830	1	1	0	0	0.13746	0.039446	0.13548	0.14432	0.18463	0.12771	0.30945	0.24712	0.091172	0.26497	0.075979	0.28776	0.082406	0.27521	0.11594	0.057282	-2.1333	-2.5104	-2.3854	-2.7	-2.4854	-2.2583	-2.7792	-2.3854	-2.4354	-2.7313	-2.2479	-2.8771	-2.4458	-2.3563	-2.7417	-2.3458	380.368	292.952	413.207	182.116	370.492	146.940	429.302	136.877	324.544	310.771	476.135	472.646	139.183	394.262	371.677	434.980	0.0010547	0.0014912	0.00055551	652.97	7.2867e-06	8.2725e-06	959.32	245.38	5.7535e-06	3.8963e-06	442.74	185	97.682	43.993	1.043e-05	97.586	0.01092	0.013111	0.0036479	800.58	0.00013962	0.00014442	1117.5	295.09	0.00013781	0.00014138	535.08	211.61	124.58	52.79	0.00013414	109.53	247.526	255.998	184.829	149.409	245.516	299.385	150.018	154.697	289.276	284.967	154.218	158.914	159.722	163.733	292.636	162.139	-8191	255	
1173.926	1	1	0	0	0.14234	0.16429	0.11903	0.036182	0.14781	0.050417	0.20078	0.060667	0.07393	0.16717	0.17172	0.1115	0.25173	0.15322	0.21589	0.36424	-2.0208	-2.4646	-2.2188	-2.6562	-2.5563	-2.2333	-2.9208	-2.5458	-2.7354	-2.825	-2.4271	-2.675	-2.625	-2.3292	-2.6688	-2.6167	167.758	278.654	252.549	197.301	339.420	168.551	430.119	418.654	296.326	474.125	478.163	358.994	457.485	482.298	443.240	425.723	0.001071	0.0023799	0.00056141	642.31	8.7494e-06	7.1192e-06	947.35	242.45	6.3059e-06	7.9061e-06	437.36	181.97	95.988	43.475	3.9865e-06	96.693	0.010403	0.012396	0.0034582	782.56	0.0001324	0.00013647	1097.2	288.37	0.00013164	0.00013546	526.95	207.88	122.35	52.181	0.00013236	108.8	246.407	163.341	220.828	149.485	386.224	302.654	149.802	155.114	226.883	305.932	154.377	158.857	159.210	163.374	157.924	162.152	-8191	255	
1174.021	1	1	0	0	0.16066	0.12157	0.19992	0.055168	0.18172	0.15091	0.086536	0.17225	0.019583	0.13879	0.16743	0.30446	0.12819	0.20031	0.23352	0.33396	-1.8854	-2.7104	-2.3875	-2.6188	-2.5833	-2.3	-2.9208	-2.55	-2.2333	-2.8979	-2.3625	-2.8417	-2.7271	-2.2292	-2.8	-2.6104	330.155	253.065	350.679	370.287	200.146	408.940	447.152	433.767	219.139	213.522	434.536	182.989	455.365	145.730	431.252	433.083	0.001038	0.0012142	0.000591	634.29	5.1328e-06	1.1413e-05	938.82	237.25	1.2682e-05	1.4587e-05	433.07	180.06	95.104	42.796	1.2895e-05	96.438	0.010283	0.012214	0.0034262	774.72	0.00012968	0.00013313	1087.3	283.86	0.00012865	0.00013131	519.35	205.04	120	51.256	0.00012911	107.94	248.578	295.351	197.984	149.601	175.436	219.993	149.779	154.903	384.392	229.859	154.385	158.906	159.572	163.081	154.146	162.321	-8191	255	
1174.118	1	1	0	0	0.26827	0.067197	0.049393	0.23318	0.13188	0.045266	0.063481	0.24123	0.11717	0.16736	0.22903	0.21412	0.17659	0.25593	0.37519	0.12816	-1.8521	-2.6937	-2.3812	-2.6	-2.5958	-2.3312	-2.7396	-2.6479	-2.1667	-2.8688	-2.4292	-2.525	-2.6792	-2.3667	-2.6125	-2.7875	493.171	468.500	201.217	347.431	217.818	305.061	329.257	398.543	475.214	239.735	203.556	443.748	427.891	486.580	278.839	222.260	0.00099718	0.0018919	0.00022123	639.78	1.5159e-05	8.6137e-06	941.27	238.76	4.1767e-06	1.2077e-05	431.31	179.62	94.655	42.871	8.0649e-06	95.947	0.010062	0.012072	0.0033674	772.31	0.0001278	0.00013214	1086.3	283.46	0.00012653	0.00013114	519.33	204.86	119.89	51.402	0.00012948	107.63	251.419	253.524	327.282	149.488	231.328	256.350	149.875	155.014	365.807	282.857	154.130	159.218	159.703	163.057	215.194	162.325	-8191	255	
1174.237	1	1	0	0	0.093608	0.19893	0.17443	0.26414	0.22654	0.14316	0.133	0.3157	0.10373	0.21208	0.074968	0.061158	0.3337	0.34605	0.10666	0.28957	-1.8646	-2.8479	-2.35	-2.4292	-2.6354	-2.25	-2.6458	-2.6104	-2.3563	-2.7458	-2.5271	-2.4979	-2.8708	-2.1354	-2.5458	-2.5917	198.501	475.755	311.156	434.850	456.012	164.812	371.730	396.465	490.754	349.931	464.793	474.342	406.725	188.075	215.894	469.715	0.00095837	0.00098851	0.00028597	642.44	1.5282e-05	5.3636e-06	945.63	240.06	5.0025e-06	9.5553e-06	434.76	180.61	95.961	43.344	1.3996e-05	96.674	0.010062	0.012112	0.003412	776.99	0.00012868	0.00013471	1091.2	285.81	0.00012922	0.00013357	523.92	206.93	121.4	51.869	0.00013092	108.25	260.109	226.524	158.858	149.690	292.915	229.028	149.708	154.738	274.677	396.775	154.034	159.082	159.419	163.730	322.719	162.152	-8191	255	
1174.334	1	1	0	0	0.18104	0.3072	0.12905	0.38143	0.18881	0.19191	0.095445	0.22913	0.089696	0.14986	0.13945	0.33983	0.30207	0.22028	0.10346	0.31049	-1.6562	-2.6146	-2.2646	-2.3521	-2.7479	-2.3104	-2.6542	-2.6542	-2.2562	-2.7833	-2.6125	-2.5667	-2.825	-2.4437	-2.3771	-2.9	280.830	241.747	217.488	415.070	284.153	437.590	364.282	399.785	151.448	180.960	144.576	464.921	274.970	365.231	211.393	420.131	0.0008211	0.0023305	0.00035816	638.96	2.5415e-05	1.5362e-05	944.15	239.94	1.4045e-05	8.4045e-06	435.25	182.56	96.472	43.641	5.5157e-06	96.746	0.010151	0.01217	0.0033939	777.16	0.00012897	0.0001339	1092.2	285.99	0.00013001	0.00013497	525.8	207.79	122.07	52.345	0.00013388	109.35	247.772	201.834	213.854	149.576	406.346	353.986	149.696	154.854	385.506	258.237	154.218	159.207	159.571	163.478	322.852	162.194	-8191	255	
1174.430	1	1	0	0	0.030061	0.2733	0.21227	0.19572	0.2453	0.22636	0.22376	0.22998	0.17989	0.18014	0.10027	0.40355	0.18887	0.11442	0.14012	0.18432	-1.7354	-2.5354	-2.4271	-2.3875	-2.7375	-2.3479	-2.5854	-2.8458	-2.2333	-2.7104	-2.7375	-2.4938	-2.7208	-2.5333	-2.3563	-2.85	475.534	154.849	221.921	463.732	476.787	421.858	453.874	229.157	188.782	394.553	146.638	469.974	487.808	387.480	424.951	187.452	0.0010603	0.0016927	8.303e-05	650.68	1.3839e-05	1.0874e-05	958.77	247.46	6.1175e-06	1.4544e-05	442.56	184.64	98.96	44.269	2.0331e-05	98.35	0.010419	0.012596	0.0035175	787.93	0.00013372	0.0001398	1109.5	294.02	0.00013432	0.00014004	536.12	211.63	125.29	53.284	0.00013518	110.43	248.578	198.700	292.379	149.488	293.685	268.839	150.103	154.688	188.277	337.856	154.163	158.794	159.392	163.400	274.476	162.242	-8191	255	
1174.526	1	1	0	0	0.1146	0.19492	0.15321	0.11635	0.097388	0.28334	0.17648	0.10375	0.30765	0.051074	0.020605	0.39715	0.26574	0.16165	0.20281	0.21503	-1.6833	-2.4083	-2.5979	-2.3729	-2.7313	-2.3438	-2.4417	-2.8312	-2.3042	-2.5792	-2.7917	-2.4854	-2.5646	-2.3625	-2.4167	-2.9771	427.428	284.878	203.394	406.732	229.478	198.571	181.210	406.310	174.933	335.489	423.127	465.447	479.046	156.685	141.862	411.203	0.00088264	0.00089501	0.00017107	651.27	1.4958e-05	2.7935e-06	953.93	247.43	1.1811e-05	1.1336e-05	446.3	186.46	99.681	44.665	6.2137e-06	98.805	0.010541	0.012662	0.0035665	792.38	0.00013517	0.0001408	1111.7	295.32	0.00013693	0.00014209	541.5	214.02	127.13	53.959	0.00013954	111.52	248.963	166.201	206.596	149.692	261.212	333.823	149.868	154.599	254.246	389.455	154.324	158.659	159.391	163.537	376.922	161.978	-8191	255	
1174.622	1	1	0	0	0.091523	0.12691	0.23818	0.22988	0.13162	0.1521	0.39694	0.14583	0.094695	0.27213	0.054459	0.21212	0.4208	0.12108	0.087659	0.38524	-1.8687	-2.4771	-2.6521	-2.3292	-2.6667	-2.6854	-2.5438	-2.9292	-2.3917	-2.5333	-2.7917	-2.3542	-2.6833	-2.4917	-2.2896	-2.9292	207.296	377.999	304.063	492.627	229.229	363.059	493.968	370.437	277.303	236.476	468.256	496.574	150.353	422.576	246.559	349.881	0.0010038	0.0024205	5.432e-05	655.44	6.1821e-06	1.592e-05	961.91	249.74	1.106e-05	1.4622e-05	450.63	187.95	99.84	45.018	1.7356e-05	99.072	0.01091	0.013103	0.0036438	801.04	0.00013911	0.00014523	1121.2	299.49	0.00013949	0.00014501	546.11	215.63	127.99	54.268	0.00014078	112.09	251.170	269.254	262.361	149.423	215.651	319.809	150.029	154.825	263.499	315.662	153.976	158.961	159.540	163.281	243.012	162.029	-8191	255	
1174.718	1	1	0	0	0.16306	0.18639	0.22305	0.072118	0.33568	0.18879	0.11469	0.19664	0.44165	0.24756	0.30075	0.19159	0.065911	0.15481	0.014745	0.20893	-1.9958	-2.3896	-2.6813	-2.3438	-2.6167	-2.5771	-2.2542	-2.8063	-2.4646	-2.3	-2.7917	-2.3812	-2.7521	-2.7083	-2.25	-2.6375	310.285	212.945	495.049	233.491	213.324	297.389	425.263	424.816	339.481	141.122	346.107	401.022	479.003	424.445	354.424	376.300	0.00082034	0.0016527	0.00021614	651.38	1.5268e-05	8.0779e-06	965.11	250.45	1.132e-05	1.6016e-05	447.86	188.02	100.41	45.069	2.3769e-06	99.384	0.011065	0.013353	0.0036988	804.8	0.00014224	0.00014733	1125.4	300.03	0.0001426	0.00014685	545.56	216.38	128.76	54.482	0.00014316	112.64	239.853	272.146	146.699	149.269	256.563	229.279	149.883	154.689	384.307	223.069	154.020	158.825	159.710	163.054	467.138	162.141	-8191	255	
1174.839	1	1	0	0	0.23696	0.12406	0.29132	0.017297	0.11846	0.24283	0.12945	0.13166	0.15764	0.097666	0.15623	0.24295	0.075472	0.13823	0.089159	0.14351	-1.9625	-2.2542	-2.6833	-2.2083	-2.6063	-2.7396	-2.3604	-2.6042	-2.5271	-2.4958	-2.7958	-2.3417	-2.7062	-2.9125	-2.2938	-2.8208	203.399	349.632	169.055	284.623	341.874	217.899	428.928	179.196	238.726	150.435	394.661	156.106	170.531	407.008	275.279	167.272	0.0010417	0.001913	0.00041455	656.62	1.0105e-05	6.0361e-06	963.49	248.11	1.1832e-05	7.3155e-06	448.03	185.13	98.621	44.397	1.8825e-05	98.589	0.011251	0.013526	0.0037512	808.53	0.00014392	0.00014852	1125.2	298.99	0.00014341	0.00014806	545.99	214.85	127.76	53.933	0.00014637	111.57	237.018	322.670	252.232	149.591	322.958	256.935	149.723	154.573	333.370	294.048	154.147	158.905	159.336	163.130	161.072	162.102	-8191	255	
1174.933	1	1	0	0	0.056973	0.1659	0.16527	0.15253	0.18888	0.25176	0.10804	0.073595	0.3338	0.27861	0.38277	0.11464	0.20315	0.244	0.26736	0.21686	-2.0771	-2.225	-2.7333	-2.3979	-2.4646	-2.7313	-2.3375	-2.7208	-2.6854	-2.3042	-2.7	-2.4021	-2.6854	-2.6375	-2.2896	-2.7208	309.045	157.535	241.984	439.530	465.209	428.976	354.821	384.351	229.923	494.224	455.148	488.707	484.782	363.762	169.405	393.864	0.0012025	0.00084765	0.00038209	647.9	1.0799e-05	8.3593e-06	953.34	240.76	7.4543e-06	1.1349e-05	431.24	179.17	94.17	42.46	5.8701e-06	94.494	0.01153	0.013742	0.0038441	805.12	0.00014749	0.00015172	1118.7	292.78	0.00014688	0.00015087	532.19	208.59	123.34	52.322	0.00014608	108.3	252.606	355.802	449.060	149.522	395.996	250.282	149.499	154.885	266.431	198.031	154.312	158.899	159.457	163.560	301.171	162.280	-8191	255	
1175.007	1	1	0	0	0.030354	0.10664	0.16802	0.17252	0.070502	0.077733	0.14684	0.078348	0.11501	0.23996	0.1784	0.061875	0.13645	0.35857	0.073499	0.13298	-2.1125	-2.3292	-2.6833	-2.6375	-2.3438	-2.7479	-2.4208	-2.5771	-2.6521	-2.3875	-2.6625	-2.7542	-2.4917	-2.8708	-2.2458	-2.6167	402.240	140.108	217.477	472.989	307.287	414.088	354.731	434.749	322.144	197.186	139.171	180.109	141.317	441.126	158.149	481.075	0.00090748	0.00095838	0.00058362	638.61	9.7174e-06	1.9171e-06	936.79	230.92	6.3925e-06	2.4714e-05	426.63	175.74	92.257	42.309	1.417e-05	95.025	0.011403	0.013513	0.0038036	787.83	0.00014474	0.00015022	1102.8	283.61	0.00014563	0.00015013	524.48	205.56	121.64	51.993	0.00014897	108.85	238.535	204.282	212.735	149.465	247.825	223.064	149.745	154.820	223.299	246.012	154.413	158.995	159.665	163.598	286.583	162.301	-8191	255	
1175.125	1	1	0	0	0.19402	0.040077	0.49759	0.051907	0.06868	0.13505	0.1277	0.21745	0.34568	0.12291	0.13005	0.3511	0.044518	0.088023	0.16175	0.051388	-2.1708	-2.0979	-2.6063	-2.4313	-2.35	-2.6792	-2.55	-2.4646	-2.7667	-2.4417	-2.6792	-2.6875	-2.3063	-2.9146	-2.4	-2.5375	162.182	264.541	464.495	283.405	228.560	306.468	319.007	474.756	162.369	266.571	414.810	437.116	454.792	219.754	212.611	282.559	0.0010784	0.002083	0.00069386	634.9	1.0517e-05	1.3503e-05	943.52	235.36	8.8749e-06	1.3228e-05	428.38	177.16	93.513	42.686	2.9879e-05	95.165	0.011589	0.013935	0.0039183	796.23	0.0001507	0.00015683	1116.9	289.53	0.00015104	0.00015632	533.21	207.92	122.95	52.338	0.00014856	108.74	248.700	191.505	201.909	149.526	328.585	303.107	149.570	154.747	291.466	334.960	154.044	158.958	159.607	163.320	280.959	162.214	-8191	255	
1175.222	1	1	0	0	0.14943	0.10559	0.30339	0.31681	0.065076	0.079216	0.39531	0.046891	0.11549	0.097961	0.1486	0.2448	0.15027	0.096017	0.2164	0.33954	-2.1271	-2.1875	-2.6271	-2.6	-2.2396	-2.6167	-2.3458	-2.5	-2.5625	-2.2958	-2.5375	-2.7021	-2.3958	-2.6562	-2.4979	-2.4562	238.463	384.364	432.305	452.698	454.296	341.379	449.217	480.544	416.411	488.058	492.237	489.413	448.285	225.013	415.259	438.643	0.00089055	0.0010825	0.00033767	633.7	3.5106e-05	1.16e-05	933.24	233.52	6.2801e-06	1.213e-06	424.77	176.42	92.677	42.528	2.2639e-05	95.129	0.011394	0.0137	0.0038532	787	0.00014601	0.00015071	1102.4	285.31	0.00014592	0.00015121	527.48	205.95	122.07	52.249	0.00014994	109.05	248.590	176.764	204.076	149.526	226.670	351.890	149.956	154.920	356.664	236.537	154.024	159.216	159.650	163.436	358.479	162.151	-8191	255	
1175.318	1	1	0	0	0.17903	0.23881	0.17314	0.17198	0.14378	0.038469	0.16502	0.23261	0.17846	0.15649	0.15071	0.34445	0.15441	0.42201	0.056303	0.29873	-2.2542	-2.2479	-2.5333	-2.5812	-2.4646	-2.6375	-2.6854	-2.3833	-2.8021	-2.2542	-2.6167	-2.7021	-2.2146	-2.7271	-2.2875	-2.4313	386.456	190.380	234.927	144.370	470.665	356.746	419.691	473.579	319.850	231.628	461.768	472.541	374.857	462.610	280.606	383.613	0.0010244	0.0014637	0.00025955	637.23	1.7003e-05	1.9025e-05	939.09	232.88	1.9235e-05	1.693e-05	429.51	176.81	93.472	42.843	5.5863e-06	95.086	0.011713	0.01422	0.0039898	798.77	0.0001514	0.00015813	1117.3	289.35	0.0001508	0.00015626	531.97	207.29	123.12	52.677	0.00015107	108.97	251.439	464.737	343.375	149.629	256.203	301.898	149.737	155.024	351.179	316.433	154.049	159.115	159.801	163.325	233.556	162.315	-8191	255	
1175.438	1	1	0	0	0.058812	0.05805	0.088651	0.38489	0.1592	0.1293	0.16413	0.27833	0.13529	0.16111	0.1289	0.09163	0.049721	0.13806	0.094584	0.49356	-2.3292	-2.2083	-2.3917	-2.6708	-2.1188	-2.8208	-2.5833	-2.3896	-2.6792	-2.4479	-2.5521	-2.725	-2.2729	-2.6521	-2.5958	-2.4396	198.222	373.627	141.489	384.014	263.401	203.418	474.067	138.345	151.174	486.434	474.326	436.529	482.808	432.427	235.322	431.860	0.0012314	0.0021357	0.0003336	633.47	3.8954e-06	1.7289e-05	936.79	234.11	1.0813e-05	3.08e-05	429.17	177.51	93.21	42.507	9.9153e-06	95.638	0.011608	0.013978	0.0038933	790.95	0.00014661	0.00015238	1106.9	286.49	0.00014549	0.000151	529.81	206.66	122.69	52.383	0.0001485	109.23	248.875	289.640	290.709	149.278	290.358	284.786	149.833	154.477	327.802	388.657	153.652	158.904	159.604	163.468	409.670	162.284	-8191	255	
1175.535	1	1	0	0	0.088742	0.24867	0.03805	0.29821	0.056889	0.14699	0.11161	0.12757	0.22919	0.078702	0.22837	0.13084	0.16814	0.24888	0.073568	0.15061	-2.2479	-2.4292	-2.3792	-2.8333	-2.4229	-2.6229	-2.4437	-2.2687	-2.6854	-2.3563	-2.4854	-2.7687	-2.425	-2.5208	-2.5354	-2.4437	202.101	235.269	205.642	484.072	448.837	445.212	408.009	237.687	169.008	183.488	485.193	393.406	300.319	439.078	493.722	370.673	0.0010042	0.0024237	0.00031682	640.33	1.9307e-05	1.63e-05	945.03	236.58	1.2972e-05	1.8382e-05	430.28	180.12	94.864	42.921	1.5573e-06	96.149	0.011471	0.013853	0.0038706	795.83	0.00014596	0.00015263	1116	289.23	0.00014667	0.00015276	533.08	209.33	124.36	52.969	0.00014733	109.91	261.712	256.844	230.304	149.017	408.471	320.307	149.864	154.680	355.503	243.497	153.798	158.843	159.250	163.340	420.579	162.087	-8191	255	
1175.631	1	1	0	0	0.17541	0.085242	0.21407	0.18971	0.067097	0.11369	0.12246	0.23896	0.13881	0.087657	0.15738	0.32273	0.24082	0.19552	0.050974	0.27283	-2.1333	-2.5312	-2.2125	-2.875	-2.55	-2.6042	-2.6229	-2.3542	-2.8458	-2.4208	-2.4208	-2.7583	-2.5812	-2.675	-2.7958	-2.4	470.012	301.402	186.999	413.108	426.512	322.657	280.181	159.221	256.898	346.680	430.576	475.917	145.057	183.628	198.427	442.198	0.0010683	0.0021092	0.0001123	644.11	8.893e-06	2.4e-05	944.81	239.51	1.1289e-05	3.1638e-05	434.61	181.16	95.718	43.494	5.584e-06	97.166	0.01147	0.013825	0.0038369	798.89	0.00014645	0.00015286	1115.4	291.14	0.00014766	0.00015376	537.19	210.72	125.51	53.496	0.00014972	110.85	252.991	293.760	479.181	149.710	149.594	209.166	149.779	154.594	257.384	235.770	154.228	158.796	159.273	163.467	396.221	162.034	-8191	255	
1175.702	1	1	0	0	0.043214	0.038886	0.21949	0.13011	0.2755	0.135	0.28067	0.13176	0.15607	0.22615	0.097123	0.22195	0.13363	0.091157	0.13072	0.3423	-2.1042	-2.3729	-2.2687	-2.7354	-2.5708	-2.4104	-2.7458	-2.5333	-2.5854	-2.5958	-2.2708	-2.7438	-2.45	-2.4458	-2.7146	-2.4083	443.521	287.160	314.454	253.678	217.321	143.274	392.843	191.140	426.554	448.493	470.542	231.039	178.631	345.280	295.725	465.879	0.0010642	0.0021571	0.00012729	639.96	6.5375e-06	5.1309e-06	948.07	237.81	1.2747e-05	1.2349e-05	437.7	180.19	95.973	43.541	1.9536e-06	96.877	0.011688	0.014097	0.0039238	802.47	0.00015076	0.00015682	1124.2	292.8	0.00015247	0.00015794	539.72	211.42	125.87	53.633	0.00015069	110.85	238.954	300.553	297.351	149.640	440.086	332.320	149.825	154.669	355.882	324.257	154.060	158.865	159.646	163.365	182.800	162.334	-8191	255	
1175.798	1	1	0	0	0.44804	0.19177	0.18498	0.27885	0.22531	0.38532	0.20918	0.053114	0.14221	0.15611	0.32413	0.18156	0.28235	0.17444	0.2466	0.17501	-1.9688	-2.5625	-2.1896	-2.6917	-2.3646	-2.4833	-2.9479	-2.3438	-2.5812	-2.7292	-2.3833	-2.7313	-2.375	-2.5354	-2.7583	-2.3625	370.159	313.151	224.587	488.811	492.647	414.417	352.806	271.953	347.218	429.905	428.098	488.143	485.291	140.287	307.877	349.366	0.00092685	0.0005183	0.00032039	638.81	1.4562e-06	5.3227e-06	946.94	238.59	7.5061e-06	7.195e-06	434.09	178.99	93.638	42.848	1.8272e-05	96.156	0.011782	0.0141	0.0039032	801.06	0.00014954	0.00015466	1119	291.56	0.00014903	0.00015269	534.56	209.37	123.75	52.799	0.00014777	109.96	249.456	169.787	421.911	149.335	274.436	319.934	149.782	154.815	307.795	303.980	154.085	158.946	159.372	163.405	372.776	162.235	-8191	255	
1175.919	1	1	0	0	0.16204	0.18483	0.20169	0.1095	0.27395	0.057667	0.28465	0.12526	0.059657	0.10181	0.098353	0.33896	0.15992	0.028844	0.33651	0.056548	-2.0833	-2.7083	-2.1729	-2.7479	-2.5563	-2.25	-2.7271	-2.4313	-2.3875	-2.6833	-2.3021	-2.5021	-2.6562	-2.3271	-2.7667	-2.4667	145.109	316.998	421.847	355.384	272.201	476.876	350.680	219.018	183.065	394.239	195.705	409.525	336.557	484.100	316.755	252.983	0.00098255	0.00082648	0.00083018	634.21	1.586e-05	1.5802e-05	934.62	234.36	1.8656e-05	1.7821e-05	430.85	179.13	94.433	42.979	4.4722e-06	96.372	0.011436	0.013654	0.0038012	789.33	0.00014429	0.00014859	1103.7	286.12	0.00014472	0.00014857	530.23	208.65	123.76	53.047	0.00014902	110.67	247.718	446.056	179.053	149.490	363.749	342.337	149.757	154.804	263.789	406.130	154.054	158.884	159.691	163.158	282.156	161.936	-8191	255	
1176.014	1	1	0	0	0.30029	0.14352	0.23121	0.17368	0.064058	0.19343	0.21459	0.25571	0.090328	0.20274	0.1878	0.22827	0.2987	0.081578	0.18342	0.12152	-1.9354	-2.7375	-2.1562	-2.5292	-2.6813	-2.2438	-2.7708	-2.3833	-2.3917	-2.6021	-2.1917	-2.675	-2.5792	-2.5	-2.6792	-2.6208	390.155	242.245	397.294	456.106	235.470	387.569	393.637	422.503	336.435	460.822	201.479	459.852	148.730	464.590	466.500	477.436	0.00097842	0.0016457	0.0004267	635.43	1.392e-05	6.4963e-06	936.21	237.35	2.1325e-05	5.8296e-06	431.05	179.8	94.958	42.96	1.0056e-05	96.577	0.011781	0.014106	0.0039602	801.16	0.00015162	0.00015665	1118.6	292.75	0.00014909	0.00015222	535.16	210.11	124.26	53.141	0.0001467	110.35	243.828	181.781	191.944	149.070	186.791	253.854	149.777	154.416	317.879	212.662	153.842	158.747	159.301	162.907	178.518	161.932	-8191	255	
1176.111	1	1	0	0	0.068185	0.25321	0.2251	0.087335	0.31243	0.094914	0.10773	0.12189	0.16707	0.19453	0.12811	0.30788	0.12293	0.32079	0.31912	0.33941	-1.9042	-2.7271	-2.2021	-2.6854	-2.6896	-2.1437	-2.6729	-2.5375	-2.2188	-2.7333	-2.4521	-2.5667	-2.6146	-2.3917	-2.6063	-2.7021	314.046	214.278	212.514	402.501	407.886	213.077	278.227	349.225	338.576	325.442	438.550	438.215	438.111	366.718	356.475	347.089	0.00091958	0.00047843	0.00017267	636.97	1.6524e-05	2.1716e-05	946.41	237.39	1.305e-05	1.6549e-05	434.71	180.14	95.611	43.321	9.4573e-06	97.069	0.011303	0.013488	0.0037628	791.8	0.00014201	0.00014782	1110.9	290.13	0.00014288	0.00014682	535.87	210.64	124.65	53.504	0.00014686	111.48	261.104	143.712	409.109	149.407	157.143	246.713	149.687	154.600	160.767	342.079	153.878	158.649	159.222	163.421	453.483	161.760	-8191	255	
1176.230	1	1	0	0	0.20914	0.20922	0.15293	0.001003	0.23252	0.14241	0.3407	0.043826	0.29533	0.15583	0.18074	0.14643	0.03264	0.16337	0.13811	0.1563	-1.7792	-2.6521	-2.2271	-2.4458	-2.6958	-2.2062	-2.7271	-2.7271	-2.225	-2.55	-2.3187	-2.5333	-2.7604	-2.4062	-2.6	-2.7792	430.028	153.314	429.902	180.000	366.663	275.738	432.175	294.780	240.955	236.348	388.237	182.778	457.551	189.529	153.619	445.910	0.0011212	0.0017575	0.00028034	643.03	4.3735e-06	1.3182e-05	945.19	240.21	2.0248e-06	9.4183e-06	439.56	182.95	96.448	43.736	2.1282e-06	96.704	0.011459	0.013885	0.0038815	802.93	0.00014643	0.00015199	1121.6	295.25	0.00014415	0.00014831	541.32	213.25	125.69	53.664	0.0001448	111.46	247.115	279.319	241.141	149.454	176.272	227.773	149.658	154.698	490.467	281.860	153.916	158.703	159.488	163.242	241.333	162.052	-8191	255	
1176.302	1	1	0	0	0.03054	0.17776	0.081191	0.13337	0.061284	0.060407	0.12899	0.037855	0.25531	0.27004	0.15503	0.1098	0.13296	0.10089	0.069336	0.25583	-1.7896	-2.5125	-2.4042	-2.4625	-2.6562	-2.3271	-2.4813	-2.5792	-2.4313	-2.6021	-2.6146	-2.5062	-2.8667	-2.3667	-2.4396	-2.8333	265.757	323.437	250.402	475.958	376.393	349.404	351.932	191.639	202.809	372.199	205.367	409.578	363.820	310.329	375.792	451.267	0.0010083	0.0022414	0.00014742	644.99	1.0497e-05	1.9524e-05	957.69	244.31	1.5814e-05	6.4104e-06	442.6	183.26	98.085	44.327	1.3936e-05	98.761	0.011318	0.013709	0.0038526	805.45	0.00014614	0.0001523	1127.9	297.52	0.00014764	0.00015251	546.9	214.84	128.07	54.543	0.00015047	112.68	241.016	266.994	359.829	149.072	278.429	280.855	149.455	154.579	217.357	412.268	153.908	158.873	159.013	163.305	261.936	162.101	-8191	255	
1176.398	1	1	0	0	0.19105	0.13743	0.21149	0.21603	0.11272	0.3795	0.35475	0.18467	0.031601	0.056513	0.12783	0.1931	0.13875	0.16055	0.16348	0.18225	-1.7979	-2.6583	-2.3688	-2.3542	-2.675	-2.15	-2.5958	-2.7146	-2.1542	-2.6917	-2.7604	-2.5167	-2.7833	-2.475	-2.4979	-2.6354	357.322	486.167	141.862	185.620	148.817	376.583	478.366	180.355	176.203	137.135	452.253	405.368	451.809	450.520	308.606	458.966	0.0011793	0.0021296	0.00021878	645.25	1.0799e-05	1.071e-05	947.45	244.5	4.8323e-06	1.4656e-05	441.41	184.55	97.912	44.261	5.5111e-06	98.411	0.011717	0.014165	0.0039878	811.04	0.00015065	0.00015721	1131.6	299.78	0.00015018	0.00015703	550.65	216.67	129.05	54.902	0.0001536	113.19	252.725	492.094	353.418	149.046	260.212	183.702	149.776	154.535	313.670	242.867	153.915	158.778	159.482	162.945	279.771	161.910	-8191	255	
1176.519	1	1	0	0	0.16058	0.079645	0.11365	0.12778	0.27404	0.23475	0.43877	0.31914	0.19348	0.24735	0.14486	0.2766	0.16441	0.24076	0.19704	0.15243	-1.7917	-2.5896	-2.5917	-2.2771	-2.6083	-2.3417	-2.5979	-2.9042	-2.1792	-2.4938	-2.7812	-2.2792	-2.7417	-2.525	-2.4417	-2.725	138.236	397.853	379.831	473.199	489.782	338.079	323.629	400.696	478.614	385.168	444.146	464.975	345.956	445.299	379.691	425.181	0.00087555	0.00052439	0.000284	645.52	6.9211e-06	9.2235e-06	955.66	245.82	1.0115e-05	1.7678e-05	442.06	184.74	98.587	44.442	1.6959e-05	98.178	0.011883	0.01432	0.0039846	814.56	0.00015083	0.00015692	1135.3	299.93	0.00014996	0.00015529	549.38	216.09	128.49	54.622	0.0001506	112.39	237.207	452.970	472.711	149.248	306.418	305.820	149.574	154.617	351.768	279.429	153.948	158.551	159.220	163.079	290.052	161.897	-8191	255	
#DATA ENDS
