BOXY.EXE: ISS Imagent and Oximeter Data Acquisition Program Version 0.80
Ascii Record File

#ACQ INFORMATION
2  Detector Channels 
16  External MUX Channels 
1  Auxiliary Channels 
5000  Waveform (CCF) Frequency (Hz)
1  Waveforms Skipped 
30  Waveforms Averaged 
1  Cycles Averaged 
16  Acquisitions per Waveform 
10.0806  Updata Rate (Hz) 

#FILE INFORMATION
TRUE -- External MUX Channel results are PARSED.
FALSE -- AC DC and Phase are NOT grouped.
TRUE -- Companion Program Settings File CREATED.
FALSE -- AC data not excluded
FALSE -- DC data not excluded
FALSE -- Phase data not excluded
FALSE -- Auxillary Chn. data not excluded
Tab delimiters

#CALIBRATION STATE
TRUE -- Waveform Calibration Values APPLIED.


#AUX CALIBRATION VALUES
Val Type	aux-1	

Term	1.0000e+00	
Factor	0.0000e+00	


#WF CALIBRATION VALUES
A = Detector Channel
Val Type	A-AC1	A-AC2	A-AC3	A-AC4	A-AC5	A-AC6	A-AC7	A-AC8	A-AC9	A-AC10	A-AC11	A-AC12	A-AC13	A-AC14	A-AC15	A-AC16	A-DC1	A-DC2	A-DC3	A-DC4	A-DC5	A-DC6	A-DC7	A-DC8	A-DC9	A-DC10	A-DC11	A-DC12	A-DC13	A-DC14	A-DC15	A-DC16	A-Ph1	A-Ph2	A-Ph3	A-Ph4	A-Ph5	A-Ph6	A-Ph7	A-Ph8	A-Ph9	A-Ph10	A-Ph11	A-Ph12	A-Ph13	A-Ph14	A-Ph15	A-Ph16	

Term	0.00000e+00	0.00000e+00	0.00000e+00	0.00000e+00	0.00000e+00	0.00000e+00	0.00000e+00	0.00000e+00	0.00000e+00	0.00000e+00	0.00000e+00	0.00000e+00	0.00000e+00	0.00000e+00	0.00000e+00	0.00000e+00	0.00000e+00	0.00000e+00	0.00000e+00	0.00000e+00	0.00000e+00	0.00000e+00	0.00000e+00	0.00000e+00	0.00000e+00	0.00000e+00	0.00000e+00	0.00000e+00	0.00000e+00	0.00000e+00	0.00000e+00	0.00000e+00	0.00000e+00	0.00000e+00	0.00000e+00	0.00000e+00	0.00000e+00	0.00000e+00	0.00000e+00	0.00000e+00	0.00000e+00	0.00000e+00	0.00000e+00	0.00000e+00	0.00000e+00	0.00000e+00	0.00000e+00	0.00000e+00	
Factor	1.00000e+00	1.00000e+00	1.00000e+00	1.00000e+00	1.00000e+00	1.00000e+00	1.00000e+00	1.00000e+00	1.00000e+00	1.00000e+00	1.00000e+00	1.00000e+00	1.00000e+00	1.00000e+00	1.00000e+00	1.00000e+00	1.00000e+00	1.00000e+00	1.00000e+00	1.00000e+00	1.00000e+00	1.00000e+00	1.00000e+00	1.00000e+00	1.00000e+00	1.00000e+00	1.00000e+00	1.00000e+00	1.00000e+00	1.00000e+00	1.00000e+00	1.00000e+00	X	X	X	X	X	X	X	X	X	X	X	X	X	X	X	X	

B = Detector Channel
Val Type	B-AC1	B-AC2	B-AC3	B-AC4	B-AC5	B-AC6	B-AC7	B-AC8	B-AC9	B-AC10	B-AC11	B-AC12	B-AC13	B-AC14	B-AC15	B-AC16	B-DC1	B-DC2	B-DC3	B-DC4	B-DC5	B-DC6	B-DC7	B-DC8	B-DC9	B-DC10	B-DC11	B-DC12	B-DC13	B-DC14	B-DC15	B-DC16	B-Ph1	B-Ph2	B-Ph3	B-Ph4	B-Ph5	B-Ph6	B-Ph7	B-Ph8	B-Ph9	B-Ph10	B-Ph11	B-Ph12	B-Ph13	B-Ph14	B-Ph15	B-Ph16	

Term	0.00000e+00	0.00000e+00	0.00000e+00	0.00000e+00	0.00000e+00	0.00000e+00	0.00000e+00	0.00000e+00	0.00000e+00	0.00000e+00	0.00000e+00	0.00000e+00	0.00000e+00	0.00000e+00	0.00000e+00	0.00000e+00	0.00000e+00	0.00000e+00	0.00000e+00	0.00000e+00	0.00000e+00	0.00000e+00	0.00000e+00	0.00000e+00	0.00000e+00	0.00000e+00	0.00000e+00	0.00000e+00	0.00000e+00	0.00000e+00	0.00000e+00	0.00000e+00	-7.23465e+01	-1.49617e+02	-1.26872e+02	-1.83762e+02	-5.18693e+01	-6.06153e+01	-1.58526e+02	-1.62015e+02	-4.81224e+01	-7.56965e+01	-1.70957e+02	-1.70833e+02	-1.76992e+02	-1.76825e+02	-4.67194e+01	-1.50028e+02	
Factor	1.63432e-05	1.10510e-04	3.48016e-05	1.52478e-01	1.22918e-06	1.22249e-06	1.63273e-01	5.15583e-02	9.18127e-07	1.18410e-06	8.55517e-02	2.92432e-02	2.25317e-02	9.04730e-03	1.05066e-06	1.29668e-02	1.38578e-06	1.45995e-06	4.07899e-07	7.71863e-02	1.59237e-08	1.59708e-08	7.76724e-02	2.61251e-02	1.59683e-08	1.59842e-08	4.15537e-02	1.42499e-02	1.15109e-02	4.55475e-03	1.60640e-08	6.29093e-03	X	X	X	X	X	X	X	X	X	X	X	X	X	X	X	X	



#DISTANCE SETTINGS
A = Detector Channel
A-1	A-2	A-3	A-4	A-5	A-6	A-7	A-8	A-9	A-10	A-11	A-12	A-13	A-14	A-15	A-16	

2.5000e+00	3.0000e+00	2.5000e+00	3.0000e+00	2.0000e+00	3.0000e+00	1.5000e+00	3.0000e+00	3.0000e+00	3.0000e+00	3.0000e+00	3.0000e+00	3.0000e+00	3.0000e+00	1.5000e+00	3.0000e+00	

B = Detector Channel
B-1	B-2	B-3	B-4	B-5	B-6	B-7	B-8	B-9	B-10	B-11	B-12	B-13	B-14	B-15	B-16	

1.0000e+01	1.0000e+01	1.0000e+01	1.4400e+00	1.0000e+01	1.0000e+01	1.5100e+00	1.9400e+00	1.0000e+01	1.0000e+01	1.9900e+00	2.4900e+00	2.4100e+00	2.9000e+00	1.0000e+01	2.9800e+00	




#DATA BEGINS
time	group	step	mark	flag	A-AC1	A-AC2	A-AC3	A-AC4	A-AC5	A-AC6	A-AC7	A-AC8	A-AC9	A-AC10	A-AC11	A-AC12	A-AC13	A-AC14	A-AC15	A-AC16	A-DC1	A-DC2	A-DC3	A-DC4	A-DC5	A-DC6	A-DC7	A-DC8	A-DC9	A-DC10	A-DC11	A-DC12	A-DC13	A-DC14	A-DC15	A-DC16	A-Ph1	A-Ph2	A-Ph3	A-Ph4	A-Ph5	A-Ph6	A-Ph7	A-Ph8	A-Ph9	A-Ph10	A-Ph11	A-Ph12	A-Ph13	A-Ph14	A-Ph15	A-Ph16	B-AC1	B-AC2	B-AC3	B-AC4	B-AC5	B-AC6	B-AC7	B-AC8	B-AC9	B-AC10	B-AC11	B-AC12	B-AC13	B-AC14	B-AC15	B-AC16	B-DC1	B-DC2	B-DC3	B-DC4	B-DC5	B-DC6	B-DC7	B-DC8	B-DC9	B-DC10	B-DC11	B-DC12	B-DC13	B-DC14	B-DC15	B-DC16	B-Ph1	B-Ph2	B-Ph3	B-Ph4	B-Ph5	B-Ph6	B-Ph7	B-Ph8	B-Ph9	B-Ph10	B-Ph11	B-Ph12	B-Ph13	B-Ph14	B-Ph15	B-Ph16	aux-1	digaux	

2885.227	1	1	0	256	0.1127	0.022427	0.24911	0.063759	0.23697	0.022126	0.30977	0.076557	0.19712	0.060773	0.073719	0.13079	0.11588	0.29617	0.065711	0.29828	-1.9896	-2.2271	-2.7458	-2.3271	-2.3542	-2.5229	-2.4396	-2.9125	-2.5271	-2.2521	-2.9854	-2.1813	-2.4854	-2.85	-2.1583	-2.6833	405.282	173.879	391.462	436.302	148.146	377.741	408.985	221.055	99.044	215.860	187.574	210.923	396.710	436.835	361.765	418.109	0.00036272	0.000536	0.00054021	690.55	1.1804e-05	1.4151e-05	931.81	230.91	1.8164e-05	1.7247e-05	353.07	103.53	64.249	22.86	7.7002e-06	42.175	0.0034608	0.003263	0.0010539	886.83	3.7317e-05	3.5557e-05	1114	295.07	3.721e-05	3.4474e-05	452.09	137.48	89.506	32.768	4.1754e-05	57.257	210.750	323.771	165.882	93.255	91.164	259.766	91.853	97.342	321.721	195.472	95.959	101.622	102.324	108.485	106.676	105.991	-8191	255	
2885.322	1	1	0	0	0.17529	0.21016	0.23174	0.13479	0.097385	0.2608	0.15423	0.14535	0.26518	0.21743	0.13545	0.20167	0.10446	0.18225	0.22502	0.058949	-2.05	-2.2479	-2.7938	-2.3458	-2.5187	-2.7167	-2.1896	-2.9729	-2.7625	-2.2	-2.8896	-2.4229	-2.5021	-2.8	-1.9271	-2.7292	129.718	350.865	397.564	141.626	183.479	245.750	407.301	421.023	252.074	308.448	417.384	368.115	156.348	320.527	283.930	144.305	0.00038725	0.00084826	0.00017913	686.48	8.0411e-06	1.6811e-05	925.76	230.52	9.2078e-06	2.2901e-05	353.8	104.24	64.457	23.411	1.006e-05	43.116	0.0032492	0.0032768	0.001075	874.18	3.6025e-05	3.7145e-05	1120.4	292.99	3.6587e-05	3.6705e-05	455.34	137.13	88.609	33.509	4.0653e-05	56.663	221.035	104.514	187.987	92.978	292.268	189.615	91.925	97.317	274.242	236.079	95.872	101.879	102.749	107.710	342.326	105.928	-8191	255	
2885.418	1	1	0	0	0.14835	0.21433	0.14185	0.26987	0.078765	0.033599	0.37738	0.224	0.26411	0.089417	0.36327	0.19153	0.14473	0.12668	0.078294	0.14489	-2.0354	-2.2229	-2.9021	-2.4854	-2.3708	-2.825	-2.3896	-2.7479	-2.6437	-2.1083	-2.8917	-2.3604	-2.1896	-2.9854	-2.3063	-2.6104	335.152	107.049	434.970	373.351	83.273	373.324	101.006	425.001	296.705	215.061	330.865	421.880	238.007	126.924	356.426	220.425	0.00034543	0.0017749	0.00024136	682.28	4.6947e-06	1.3004e-05	927.45	232.12	7.6057e-06	5.6412e-06	354.29	105.11	65.122	23.439	9.6048e-06	43.155	0.0029929	0.003297	0.0010076	852.7	3.2628e-05	3.6858e-05	1106.6	287.23	3.3164e-05	3.6975e-05	448.62	135.17	87.438	33.984	3.8806e-05	56.097	240.556	147.924	302.477	93.006	203.772	188.428	92.089	97.263	175.950	81.195	95.436	101.953	102.425	108.245	383.894	106.047	-8191	255	
2885.490	1	1	0	0	0.3387	0.14428	0.14776	0.28829	0.069412	0.19482	0.11067	0.18165	0.10016	0.062952	0.18344	0.17423	0.085852	0.10458	0.16226	0.013833	-2.2521	-2.2062	-2.6813	-2.7604	-2.2479	-2.8875	-2.3917	-2.5187	-2.7458	-2.0229	-2.8021	-2.7292	-2.2375	-2.8604	-2.2479	-2.7146	289.364	348.448	428.785	80.981	178.630	325.249	93.556	213.863	135.071	364.844	348.670	436.151	97.047	426.974	148.028	344.076	0.00040777	0.0022315	0.00015931	680.25	1.4203e-05	7.4714e-06	919.57	231.62	1.0145e-05	1.4823e-05	352.93	104.09	65.087	23.205	1.1638e-05	42.349	0.0029005	0.0034994	0.00095206	844.47	3.2705e-05	3.8874e-05	1093.7	285.05	3.3928e-05	3.934e-05	442.68	133.56	88.158	34.268	3.7568e-05	55.158	237.792	117.422	330.003	92.980	208.684	136.437	91.955	97.065	261.140	180.349	95.794	101.877	102.462	108.059	91.645	105.908	-8191	255	
2885.610	1	1	0	0	0.095274	0.12051	0.021831	0.070778	0.12089	0.272	0.18272	0.234	0.13338	0.22806	0.41919	0.29606	0.33171	0.12746	0.088138	0.039416	-2.2958	-2.2875	-2.6375	-2.7938	-2.1875	-2.8187	-2.5146	-2.5646	-2.7708	-2.3	-3.0625	-2.6667	-2.075	-2.6813	-2.4771	-2.3312	348.708	318.040	275.440	360.137	174.364	399.953	397.700	350.169	209.558	408.646	327.093	422.977	221.631	253.203	206.155	84.505	0.00055892	0.00013856	0.00028264	677.66	8.3404e-06	9.0615e-06	917.66	230.42	1.4813e-05	1.5101e-05	353.41	103.85	65.006	23.08	5.9014e-06	42.517	0.0030869	0.0036848	0.00094225	841.67	3.5673e-05	4.0959e-05	1094.9	286.12	3.8552e-05	4.2722e-05	448.28	135.34	92.779	35.23	4.0279e-05	56.002	225.532	197.101	265.668	93.097	222.954	288.359	92.232	97.252	207.305	389.601	95.425	101.648	102.334	108.050	388.892	106.017	-8191	255	
2885.706	1	1	0	0	0.25478	0.13936	0.14369	0.18552	0.10451	0.42826	0.1104	0.21645	0.13462	0.049766	0.14608	0.21175	0.12897	0.16926	0.14301	0.17961	-2.2292	-2.4292	-2.6292	-2.7792	-2.0896	-2.8063	-2.6813	-2.3625	-2.9417	-2.3104	-2.5083	-2.7208	-2.2333	-2.6229	-2.5708	-2.2771	406.410	436.835	315.403	425.710	187.217	192.502	424.170	399.576	235.878	287.812	134.514	136.310	210.202	411.338	97.794	308.320	0.0006444	0.00038548	0.00016189	681.16	1.7208e-05	1.066e-05	921.22	233.21	1.4874e-05	3.3748e-06	355.26	104.68	65.4	23.074	1.4105e-05	42.993	0.0035836	0.0039278	0.00099074	853.54	4.1123e-05	4.208e-05	1103.1	289.4	4.2352e-05	4.2581e-05	448.83	135.96	94.921	34.813	3.948e-05	56.71	214.319	193.628	333.329	93.176	252.935	81.708	92.128	97.053	250.168	178.637	95.687	102.157	102.164	108.163	225.876	105.903	-8191	255	
2885.802	1	1	0	0	0.15112	0.16543	0.17691	0.10177	0.26129	0.094337	0.20284	0.30519	0.12164	0.15205	0.1577	0.23606	0.17808	0.15136	0.26707	0.12497	-2.6312	-2.1813	-2.5646	-2.8167	-2.1146	-2.8375	-2.8229	-2.4708	-2.8104	-2.3063	-2.4896	-2.9104	-2.15	-2.7583	-2.6104	-2.1604	110.962	426.794	245.019	367.670	341.925	231.301	394.170	433.486	365.518	105.534	96.977	385.352	392.052	348.881	304.194	332.113	0.00050048	0.00095884	0.0002777	688.93	1.4035e-05	8.4245e-06	921.49	233.21	6.5221e-06	6.5171e-06	356.41	105.99	64.901	22.914	1.4508e-05	42.812	0.0038063	0.0038841	0.00098135	863.43	4.4049e-05	4.1111e-05	1100.3	291.79	4.3358e-05	4.074e-05	444.9	137.57	95.496	34.161	3.8007e-05	57.306	215.968	395.710	391.531	92.921	198.300	402.626	92.035	97.152	297.484	302.155	95.748	102.136	102.228	108.092	354.865	106.157	-8191	255	
2885.899	1	1	0	0	0.37702	0.075873	0.15304	0.40692	0.13686	0.10674	0.18726	0.19354	0.29558	0.32415	0.27486	0.022495	0.15975	0.14875	0.073422	0.26176	-2.5958	-2.2917	-2.4708	-2.8438	-2.275	-2.6375	-2.8125	-2.2083	-2.8667	-2.4042	-2.4854	-2.9042	-2.2604	-2.5417	-2.8854	-2.1354	382.104	350.872	128.647	91.391	162.402	308.650	84.200	398.802	207.776	174.893	340.129	370.142	395.854	344.501	405.270	336.849	0.00026446	0.00068453	0.00023008	683.46	2.3787e-05	9.129e-06	921.39	232.22	2.8437e-06	5.0882e-06	355.01	104.84	64.236	22.839	1.011e-05	42.556	0.0038159	0.0037096	0.0009316	870.27	4.32e-05	3.8915e-05	1088.1	293.8	4.1785e-05	3.8859e-05	437.69	138.1	93.333	33.278	3.5836e-05	57.517	243.453	148.494	411.002	93.207	351.115	332.810	92.279	97.583	177.299	92.396	95.814	101.762	102.373	107.793	218.741	106.291	-8191	255	
2886.019	1	1	0	0	0.099581	0.2903	0.27787	0.162	0.18467	0.2017	0.35538	0.11872	0.24292	0.16979	0.23873	0.29556	0.15925	0.47642	0.11266	0.14664	-2.2542	-2.3729	-2.1479	-2.9792	-2.0104	-2.6542	-2.9229	-2.3229	-2.6708	-2.8021	-2.4583	-3.0333	-2.2917	-2.5771	-2.8521	-2.3896	177.769	405.785	363.624	361.974	406.537	128.519	366.249	116.511	260.090	271.640	386.009	429.863	180.002	372.323	106.707	94.883	0.00034448	0.00097655	0.00041758	678.78	2.8986e-06	3.514e-06	917.08	229.75	1.5518e-05	1.3361e-05	352.65	104.18	63.879	22.688	5.6858e-06	42.758	0.003568	0.0034826	0.00088796	868.01	4.0339e-05	3.6669e-05	1080.1	294.82	3.9896e-05	3.7865e-05	439.39	140.17	92.825	33.219	3.8152e-05	59.008	255.784	300.819	144.026	92.804	143.686	110.813	92.291	96.958	416.034	387.670	95.525	102.315	102.641	107.906	208.021	106.094	-8191	255	
2886.091	1	1	0	0	0.16479	0.090187	0.088181	0.2004	0.1315	0.05371	0.26999	0.15068	0.31308	0.13804	0.13368	0.15209	0.23149	0.15267	0.20794	0.081287	-2.3688	-2.7792	-2.1854	-3.0396	-2.3729	-2.4521	-2.9896	-2.3792	-2.6104	-2.6479	-2.425	-2.7021	-2.3604	-2.1625	-2.8958	-2.0687	410.122	119.437	407.926	359.621	270.672	276.283	371.095	406.470	81.028	354.232	111.680	240.069	140.738	271.584	164.405	279.255	0.0002837	0.00052092	0.00064923	678.94	3.8367e-06	1.7313e-05	923.38	231.75	2.5856e-06	7.192e-06	357.78	104.44	64.477	22.779	3.0615e-05	42.641	0.0035667	0.0035141	0.00097742	885.61	4.104e-05	3.7406e-05	1106.1	302.19	4.0612e-05	3.8573e-05	453.74	143.04	93.5	33.355	4.2847e-05	60.092	227.083	291.569	161.433	92.877	412.721	411.497	92.080	97.229	409.985	352.601	96.023	101.859	102.391	108.065	237.168	105.980	-8191	255	
2886.187	1	1	0	0	0.20557	0.12315	0.032905	0.17521	0.15767	0.18009	0.21204	0.16158	0.11464	0.26562	0.16303	0.16888	0.24936	0.23401	0.20153	0.056893	-2.1042	-2.6562	-2.1688	-2.7604	-2.4521	-2.4125	-3.0312	-2.1813	-2.8312	-2.9146	-2.0875	-2.7729	-2.4542	-2.4146	-2.8417	-2.3958	215.280	87.167	110.454	157.660	252.071	287.826	350.852	385.842	111.072	126.956	411.857	316.535	387.336	322.008	164.510	213.446	0.00019378	0.00071023	0.00082627	682.71	1.9694e-05	1.3507e-05	930.59	231.46	7.2122e-06	1.4323e-05	357.07	104.43	63.416	22.617	2.4877e-05	42.297	0.003643	0.0036295	0.0011078	898.05	4.2511e-05	3.8567e-05	1136.1	304.28	4.1295e-05	3.9511e-05	467.37	142.91	93.385	33.426	4.6424e-05	59.431	219.964	228.488	159.926	92.882	390.498	314.173	92.283	97.373	351.706	136.795	95.827	101.667	102.696	108.184	197.939	105.871	-8191	255	
2886.308	1	1	0	0	0.047852	0.015447	0.20999	0.28237	0.14582	0.01972	0.26031	0.31816	0.059095	0.16382	0.22479	0.28617	0.05052	0.1116	0.26464	0.14572	-1.9833	-2.7521	-2.0625	-3.0708	-2.4667	-2.3729	-2.8417	-2.4104	-2.4313	-3.0104	-2.1958	-2.8625	-2.5333	-2.1271	-2.875	-2.3479	219.016	89.209	388.420	302.131	117.529	355.161	257.756	353.686	80.364	406.698	302.684	403.422	384.035	385.309	317.327	436.064	0.00026549	0.0014282	0.00066036	678.38	4.0056e-06	1.6178e-05	925.63	230.69	5.8766e-06	1.2517e-05	354.28	102.3	63.226	22.344	3.9213e-06	41.447	0.003572	0.0036806	0.0011747	887.57	4.1166e-05	3.9188e-05	1141.5	300.04	3.9549e-05	4.0711e-05	468.58	140	91.689	33.739	4.7874e-05	58.442	248.038	135.252	130.100	92.873	329.623	222.311	92.152	97.134	118.730	147.954	95.893	101.910	102.556	107.949	104.632	105.920	-8191	255	
2886.402	1	1	0	0	0.1668	0.063475	0.054934	0.078353	0.11576	0.12536	0.080832	0.030773	0.17613	0.14353	0.071088	0.04311	0.22491	0.12315	0.28046	0.13588	-1.8896	-2.8792	-2.0083	-2.7521	-2.6188	-2.2104	-3.1813	-2.4375	-2.3375	-2.9437	-2.1792	-2.8354	-2.5229	-2.2625	-2.8563	-2.5229	417.956	434.364	149.398	184.732	302.417	358.155	239.061	218.397	92.887	299.045	381.265	120.466	89.416	391.035	364.575	103.233	0.00048079	0.0027335	0.00014701	679.65	1.0741e-05	1.596e-05	927.13	229.15	4.5927e-06	2.0045e-05	353.98	102.39	62.895	22.097	7.0271e-06	41.685	0.0035488	0.0040115	0.0012497	890.66	4.2245e-05	4.5006e-05	1157.2	302.46	4.1476e-05	4.6681e-05	475.71	140.7	92.246	34.946	4.8146e-05	58.145	254.383	169.113	262.478	92.965	93.646	240.115	91.888	96.978	410.041	199.402	95.422	101.781	102.357	107.653	328.176	106.014	-8191	255	
2886.498	1	1	0	0	0.099412	0.17375	0.18071	0.15619	0.048048	0.12044	0.22941	0.32535	0.08705	0.23091	0.27534	0.12383	0.13634	0.23575	0.075603	0.13695	-2.0417	-2.9521	-2.3229	-2.8042	-2.7208	-2.2042	-2.7958	-2.5604	-2.1125	-2.8396	-2.5125	-2.6312	-2.6646	-2.0417	-2.8521	-2.4729	185.202	186.453	253.419	104.320	355.036	224.817	393.176	423.284	234.239	178.006	413.864	347.077	433.481	370.426	196.625	121.115	0.00042845	0.0024993	0.00011651	681.52	1.0783e-05	1.6834e-05	921.81	229.75	1.3049e-05	9.6092e-06	353.42	102.71	63.562	22.292	4.4394e-06	42.194	0.0035075	0.0042626	0.0012131	880.37	4.1107e-05	4.6879e-05	1141.1	297.82	3.9493e-05	4.6259e-05	463.93	137.36	91.02	35.037	4.3778e-05	57.453	215.396	122.324	390.954	93.283	230.465	218.252	92.096	97.546	224.908	139.334	95.606	101.853	102.763	107.832	146.397	106.090	-8191	255	
2886.619	1	1	0	0	0.062313	0.21697	0.23736	0.11355	0.12587	0.24314	0.11345	0.30602	0.40241	0.13843	0.038093	0.19184	0.082931	0.3293	0.031483	0.086041	-1.8604	-2.6667	-2.2479	-2.4792	-2.6562	-2.0729	-2.85	-2.6063	-2.1083	-2.9792	-2.5583	-2.3521	-2.8	-2.1354	-2.6063	-2.7521	201.342	266.059	111.903	376.974	299.852	139.695	155.893	385.951	288.675	277.277	238.667	398.677	292.832	111.832	367.314	379.474	0.00052107	0.00075465	0.00015321	675.96	2.375e-05	5.0244e-06	923.35	228.19	1.4117e-05	8.8691e-06	353.61	103.2	63.54	22.193	1.7348e-05	42.277	0.0034443	0.0042233	0.0011114	859.76	4.0074e-05	4.5362e-05	1116.4	290.03	3.8806e-05	4.3935e-05	453.25	134.38	90.929	34.533	4.0325e-05	56.228	225.100	254.591	232.594	93.281	231.327	144.858	92.042	97.077	245.145	367.508	95.878	101.780	102.882	107.944	409.985	105.878	-8191	255	
2886.715	1	1	0	0	0.24189	0.20029	0.18747	0.12799	0.30489	0.12572	0.34787	0.26051	0.075907	0.22501	0.27375	0.1483	0.14134	0.053265	0.22155	0.086743	-1.7875	-2.8104	-2.2438	-2.4229	-2.7646	-2.2313	-2.7271	-2.7479	-2.2646	-2.8771	-2.5	-2.1521	-3.05	-2.3292	-2.6146	-2.7438	147.464	269.740	108.166	329.254	142.186	430.190	293.468	271.916	415.415	347.275	409.285	116.563	124.122	351.965	159.074	168.765	0.00069468	0.00085236	0.00043422	675.32	3.6957e-05	9.2281e-06	922.75	228.09	2.9396e-05	6.0996e-06	350.09	102.26	63.044	21.981	1.3853e-05	41.537	0.0035377	0.0040487	0.0010487	849.35	4.2173e-05	4.482e-05	1110.3	288.99	4.2914e-05	4.4604e-05	452.47	134.01	93.29	34.366	3.9725e-05	55.668	216.004	311.614	113.637	92.826	213.614	269.640	91.928	97.086	268.253	432.880	95.935	101.686	102.786	108.104	202.046	105.974	-8191	255	
2886.787	1	1	0	0	0.43608	0.084616	0.10685	0.19813	0.20768	0.20055	0.19295	0.13015	0.17227	0.066326	0.28525	0.10343	0.046419	0.21042	0.15786	0.15039	-1.7729	-2.8312	-2.4771	-2.1271	-2.9229	-2.3625	-2.5792	-2.8917	-2.0958	-2.5479	-2.6979	-2.3875	-2.8479	-2.4354	-2.6792	-2.6437	197.209	193.181	209.525	89.944	385.815	208.991	378.504	104.213	288.254	364.675	354.752	381.644	100.543	345.366	317.651	392.623	0.0005036	0.0012973	0.00020706	672.55	1.8929e-05	6.6901e-06	919.27	227.54	1.3511e-05	7.7042e-06	352.94	103.54	62.478	22.124	9.3302e-06	42.093	0.0037749	0.0038661	0.0010074	842.98	4.3045e-05	4.1813e-05	1093.3	286.8	4.3114e-05	4.1047e-05	446.55	134.9	93.898	33.889	3.845e-05	56.969	211.721	397.857	411.637	92.628	256.379	380.540	91.997	97.212	236.210	402.225	95.690	101.715	102.724	107.527	308.340	105.949	-8191	255	
2886.907	1	1	0	0	0.16094	0.067028	0.13451	0.18294	0.22097	0.054973	0.20356	0.11908	0.24206	0.20567	0.16201	0.17041	0.23502	0.19478	0.081692	0.093802	-1.7604	-2.5292	-2.4917	-2.3917	-2.8146	-2.4688	-2.4458	-2.8646	-2.2812	-2.6146	-2.5104	-2.1208	-2.8146	-2.3958	-2.1604	-2.8771	139.018	418.493	136.052	385.802	429.444	106.989	335.669	362.408	406.921	202.376	265.887	324.692	136.595	216.391	99.994	96.672	0.00042483	0.0006207	0.00024444	676.37	1.0038e-05	8.1373e-07	920.37	230.94	2.4589e-06	1.0021e-05	355.75	104.23	62.949	22.185	3.5004e-06	42.477	0.0039782	0.0038498	0.0010178	867.49	4.6023e-05	4.2748e-05	1101.6	296.18	4.57e-05	4.1429e-05	449.91	139.33	94.851	33.94	3.7827e-05	58.472	230.510	380.509	378.244	93.131	327.103	135.372	92.169	97.696	412.555	353.913	95.785	101.873	102.416	107.612	349.656	106.345	-8191	255	
2887.003	1	1	0	0	0.15859	0.020299	0.2052	0.18355	0.034712	0.2239	0.23087	0.078141	0.070763	0.028195	0.28125	0.30144	0.067111	0.15908	0.17504	0.099341	-1.5229	-2.5083	-2.6063	-2.0875	-2.9396	-2.4958	-2.3917	-3.1437	-2.0729	-2.6	-2.95	-2.2042	-2.9062	-2.6	-2.3875	-2.8812	200.606	126.478	391.447	382.093	323.620	280.336	272.559	137.209	104.982	319.061	387.967	411.779	261.091	433.281	181.770	411.318	0.0004043	0.00073237	0.00027417	677.97	1.0071e-05	1.9246e-05	925.64	231.13	5.2064e-06	3.7113e-06	358.3	104.07	63.756	22.292	1.5649e-05	42.672	0.0039116	0.0036979	0.00098481	880.75	4.3853e-05	4.0906e-05	1097	299.91	4.3496e-05	3.9431e-05	448.35	141.58	93.472	33.57	3.8039e-05	59.317	245.738	230.764	202.282	92.917	93.265	365.562	91.866	97.372	433.669	358.365	95.988	102.002	102.699	108.250	277.779	106.547	-8191	255	
2887.100	1	1	0	0	0.029183	0.29298	0.1178	0.31045	0.083742	0.106	0.27282	0.088922	0.12568	0.2977	0.062994	0.084646	0.18055	0.25355	0.18597	0.20867	-1.95	-2.3688	-2.8667	-2.2542	-2.5563	-2.5938	-2.4417	-2.8396	-2.3187	-2.3833	-2.9104	-2.1667	-2.6729	-2.6542	-2.3438	-2.7708	418.506	318.522	270.687	357.098	171.736	122.651	328.855	340.049	91.514	403.673	212.208	158.643	319.223	305.794	365.896	80.334	0.000225	0.00086228	0.00070611	679.02	1.9695e-05	7.6584e-06	927.55	231.46	1.5905e-05	9.6597e-06	355.68	103.36	62.583	22.204	3.5064e-05	41.908	0.0037447	0.0035433	0.00099181	886.06	4.1288e-05	3.8885e-05	1099.6	300.31	4.1278e-05	3.7252e-05	450.4	140.96	90.941	32.805	3.9115e-05	58.284	209.321	260.921	182.852	93.321	355.344	305.589	92.412	97.407	409.177	308.771	95.787	101.870	102.255	108.135	252.485	106.249	-8191	255	
2887.196	1	1	0	0	0.26413	0.015306	0.14065	0.21601	0.22183	0.092258	0.25639	0.19835	0.13155	0.30507	0.14044	0.096548	0.19196	0.16203	0.1345	0.11164	-1.8771	-2.3833	-2.7292	-2.3354	-2.5875	-2.7313	-2.2167	-2.6562	-2.6917	-2.4792	-2.675	-2.2917	-2.6875	-2.6625	-2.3646	-2.8875	325.109	272.832	327.355	408.662	158.755	336.929	391.416	324.909	221.247	339.751	344.274	352.644	431.923	345.001	308.468	203.902	0.0003088	0.00064681	0.00074167	675.47	9.5007e-06	6.2788e-06	921.3	227.99	4.968e-06	8.3459e-06	356.01	103.58	63.046	22.424	2.4823e-05	42.414	0.003488	0.0032881	0.0010267	878.01	3.9008e-05	3.704e-05	1106.6	296.92	4.0096e-05	3.6148e-05	455.95	140.37	90.343	32.708	4.1859e-05	58.085	201.887	308.626	128.131	92.904	362.175	426.892	92.151	97.213	389.815	280.959	96.000	101.757	102.605	108.485	223.587	105.884	-8191	255	
2887.315	1	1	0	0	0.19006	0.32709	0.19531	0.26612	0.14541	0.14828	0.25536	0.19729	0.061917	0.24452	0.21995	0.18449	0.17212	0.046028	0.35047	0.083633	-2.0958	-2.2062	-2.8312	-2.4375	-2.3396	-2.75	-2.2396	-2.6229	-2.4375	-2.2875	-2.8229	-2.3146	-2.4417	-2.7417	-1.9604	-2.6646	348.168	179.764	207.922	426.672	177.639	188.379	87.575	395.343	166.158	295.469	345.184	319.154	283.884	234.982	237.901	423.476	0.00034729	0.0015482	0.00023009	671.96	4.9768e-06	6.8699e-06	921.96	228.12	7.1065e-06	9.3218e-06	356.11	104.37	63.443	22.628	1.5322e-05	42.568	0.0034039	0.0032557	0.0010748	866.53	3.7335e-05	3.6707e-05	1116.4	293.59	3.873e-05	3.6861e-05	462.36	140.06	90.102	33.434	4.5051e-05	58.434	207.224	147.743	180.737	92.911	269.616	276.173	92.498	97.426	370.072	208.743	96.175	101.767	102.566	107.961	243.362	106.139	-8191	255	
2887.386	1	1	0	0	0.14147	0.17868	0.13479	0.32826	0.18925	0.11154	0.11374	0.14703	0.060117	0.11545	0.084112	0.38081	0.039908	0.12535	0.18013	0.16022	-2.2542	-2.0062	-2.6771	-2.2375	-2.3438	-2.8083	-2.575	-2.6896	-2.6063	-2.2604	-2.7687	-2.4417	-2.2958	-2.8396	-2.1937	-2.5708	437.479	118.027	206.322	399.958	267.108	145.578	428.699	108.306	208.380	252.927	341.005	376.566	162.392	313.514	104.132	409.135	0.00044643	0.0020899	0.000324	672.11	1.9151e-05	1.3481e-05	926.07	229.66	8.1593e-06	1.6061e-05	358.74	104.41	63.444	22.925	3.0181e-06	43.049	0.0034433	0.0036082	0.0011571	872.44	3.8231e-05	4.0876e-05	1138.1	295.61	3.9077e-05	4.1306e-05	469.61	140.38	89.85	34.431	4.5228e-05	58.174	200.828	143.783	196.453	93.242	349.147	204.183	92.138	97.390	126.046	196.391	95.906	102.305	102.852	108.346	88.663	106.291	-8191	255	
2887.482	1	1	0	0	0.097824	0.23986	0.17407	0.27688	0.10771	0.073862	0.328	0.11809	0.35388	0.16928	0.19725	0.061476	0.23513	0.14939	0.24747	0.12726	-2.4229	-2.2292	-3.0438	-2.4938	-2.3937	-2.8187	-2.3042	-2.6625	-2.6854	-2.3021	-2.9167	-2.5687	-2.3771	-2.8167	-2.3729	-2.6604	170.882	166.950	390.133	411.803	244.803	231.003	404.581	139.611	234.041	422.871	347.371	171.070	380.878	130.090	438.531	91.212	0.00038351	0.0026902	0.0004817	673.46	7.2327e-06	5.2957e-06	917	230.24	2.9218e-06	1.9263e-05	355.93	104.22	63.694	22.552	1.1514e-05	42.136	0.0033471	0.0038746	0.0011403	868.56	3.7773e-05	4.4218e-05	1136.1	295.84	3.979e-05	4.5863e-05	469.51	140.87	91.219	35.624	4.6294e-05	57.786	212.172	95.163	101.205	93.357	105.984	161.226	92.444	97.508	400.069	193.365	96.213	102.260	102.794	108.756	421.946	106.081	-8191	255	
2887.579	1	1	0	0	0.12496	0.23021	0.019159	0.11158	0.17428	0.029749	0.11498	0.48361	0.12403	0.077621	0.17655	0.29081	0.16107	0.089075	0.32305	0.12769	-2.6271	-2.1833	-2.7708	-2.6729	-2.3333	-2.975	-2.5271	-2.4938	-2.9104	-2.3083	-2.8375	-2.6937	-2.3187	-3.0417	-2.2917	-2.5125	93.357	136.270	81.772	372.406	229.069	167.032	283.737	359.772	323.310	108.495	422.604	85.714	351.328	320.879	423.517	95.975	0.00067562	0.00059266	0.00027179	670.89	1.9147e-05	1.5623e-05	919.34	228.16	2.2146e-05	1.4611e-05	356.76	104.05	64.15	22.537	7.9456e-06	42.384	0.0035354	0.004258	0.0011275	866.38	3.9236e-05	4.6043e-05	1123.9	290.8	4.0246e-05	4.6174e-05	459.82	138.27	92.306	35.739	4.4499e-05	57.361	238.752	168.552	222.195	93.626	230.770	310.863	92.634	97.635	244.470	203.588	95.810	102.260	102.847	108.234	425.708	106.152	-8191	255	
2887.699	1	1	0	0	0.12362	0.071335	0.13428	0.18785	0.16874	0.20798	0.17966	0.26783	0.12244	0.086548	0.18348	0.24826	0.175	0.053086	0.045538	0.18974	-2.4729	-2.2521	-2.7729	-2.6896	-2.15	-2.7625	-2.6146	-2.5958	-2.7646	-2.0938	-2.625	-2.6979	-2.0521	-2.8042	-2.7417	-2.1604	300.165	251.053	376.353	409.561	182.178	122.211	84.192	130.380	241.802	362.371	345.692	374.096	83.790	114.207	321.014	317.861	0.00064888	0.0011892	0.00050743	673.39	3.0936e-05	9.9437e-06	918.09	230.62	1.3529e-05	7.5293e-06	356.52	104.16	64.612	22.913	5.9101e-06	42.873	0.0037761	0.0043837	0.0011106	867.9	4.3089e-05	4.7117e-05	1125.3	292.85	4.4178e-05	4.6895e-05	459.19	138.13	95.022	35.536	4.1979e-05	56.947	219.733	97.279	265.640	93.202	224.498	110.683	92.377	97.394	234.637	393.680	95.929	102.335	102.866	108.073	356.651	106.138	-8191	255	
2887.795	1	1	0	0	0.15648	0.13345	0.12186	0.097719	0.1801	0.091218	0.31166	0.17233	0.10489	0.20293	0.26552	0.060881	0.23519	0.099302	0.043691	0.070947	-2.3875	-2.3292	-2.7708	-2.8083	-2.2	-2.7562	-2.6646	-2.6167	-2.8417	-2.2604	-2.5917	-2.7938	-2.1917	-2.6604	-2.5687	-2.0792	370.918	135.376	262.904	191.059	432.503	425.835	409.261	431.286	90.380	126.495	363.127	413.650	105.947	373.217	213.157	388.191	0.00064023	0.00039149	0.00010684	677.75	3.2247e-06	9.8615e-06	919.33	231.36	1.6805e-05	2.0625e-05	357.95	106.13	65.254	23.06	1.2851e-05	43.304	0.0038363	0.0040449	0.0010146	851.62	4.3048e-05	4.2395e-05	1101.3	288.58	4.3489e-05	4.2167e-05	449.54	137.14	95.165	34.483	3.8154e-05	56.92	222.735	103.994	123.927	93.433	274.178	433.990	92.413	97.610	265.582	379.102	96.055	102.475	102.879	108.330	303.714	106.688	-8191	255	
2887.892	1	1	0	0	0.14241	0.22519	0.29694	0.22145	0.25443	0.10802	0.24796	0.049419	0.10324	0.24421	0.17936	0.05347	0.043592	0.061121	0.17819	0.12595	-2.5021	-2.0979	-2.4083	-2.9042	-2.2167	-2.6479	-2.9583	-2.2542	-2.8542	-2.275	-2.3812	-2.7938	-2.0938	-2.6083	-2.7896	-2.3458	328.071	221.215	212.333	118.059	197.610	198.959	434.079	424.846	308.962	355.876	200.554	272.767	138.333	86.272	137.253	184.557	0.00031767	0.00089853	0.00033564	671.49	7.7646e-06	2.3379e-05	912.94	230.66	1.6063e-06	1.6381e-05	356.62	105.33	64.338	23.103	3.7924e-06	43.03	0.0037176	0.0036795	0.00092534	848.68	4.2686e-05	3.9304e-05	1085	289.81	4.2941e-05	4.0215e-05	442.57	138.58	94.621	33.858	3.6521e-05	57.402	201.157	346.245	367.172	93.466	304.278	355.208	92.390	97.622	255.105	352.447	96.196	102.204	103.002	108.347	216.045	106.905	-8191	255	
2887.988	1	1	0	0	0.31559	0.35839	0.18426	0.097191	0.13257	0.16635	0.10228	0.22873	0.17235	0.1723	0.11545	0.24631	0.31361	0.30561	0.27587	0.10172	-2.6229	-2.1854	-2.475	-3.0792	-2.0375	-2.6896	-2.7292	-2.1083	-2.7521	-2.4938	-2.2729	-2.8354	-2.3854	-2.6521	-2.7125	-2.2771	400.857	177.816	282.490	117.279	277.810	119.660	401.627	325.627	317.985	196.930	426.446	431.334	402.451	409.506	245.960	284.146	0.00011482	0.00093315	0.00017886	673.52	1.5193e-05	5.2902e-06	914.54	230.29	6.8491e-06	1.0697e-05	358.22	105.75	64.633	23.104	1.2514e-05	43.068	0.0036436	0.0035236	0.00088355	856.29	4.1248e-05	3.7192e-05	1074.2	292.48	4.0427e-05	3.7751e-05	439.16	139.69	93.258	33.317	3.5413e-05	58.287	248.709	259.028	322.932	93.384	273.236	292.774	92.722	97.647	82.837	393.091	95.918	102.419	102.854	107.998	202.748	106.635	-8191	255	
2888.084	1	1	0	0	0.13208	0.074312	0.01947	0.24336	0.13302	0.022368	0.1962	0.13063	0.18211	0.10013	0.21809	0.08329	0.32648	0.17752	0.17828	0.079099	-2.3438	-2.5208	-2.125	-3.0354	-2.2125	-2.5604	-2.9229	-2.3292	-2.7771	-2.4125	-2.3979	-2.9938	-2.1625	-2.6792	-2.5417	-2.3688	334.269	263.288	124.005	354.162	148.826	253.741	404.934	148.114	89.736	90.593	338.775	347.021	80.324	391.494	249.669	225.702	0.00032529	0.00072438	0.00049207	672.84	1.7702e-05	4.8037e-06	913.03	230.87	7.5732e-06	1.0709e-05	357.97	106.38	65.137	23.211	1.2689e-05	43.044	0.0034178	0.0033328	0.00086892	859.06	3.8313e-05	3.4658e-05	1070.9	293.72	3.7402e-05	3.5368e-05	438.6	139.9	91.412	32.683	3.5889e-05	58.346	241.016	301.663	134.761	93.537	387.705	139.486	92.690	97.939	96.609	395.941	96.162	102.051	102.791	108.280	253.304	106.552	-8191	255	
2888.180	1	1	0	0	0.22255	0.17289	0.1852	0.28263	0.13715	0.18627	0.14577	0.093689	0.17687	0.074352	0.19233	0.13686	0.18947	0.087199	0.097426	0.03758	-2.1229	-2.6979	-2.2938	-2.9333	-2.3958	-2.425	-3.0417	-2.3104	-2.7479	-2.6188	-2.4188	-2.8771	-2.4	-2.4437	-2.8167	-2.4313	239.554	156.649	209.951	94.762	306.866	433.618	392.819	157.747	342.250	127.755	416.398	339.011	435.849	311.471	98.536	170.758	0.00033456	0.00097772	0.00032738	671.69	4.227e-06	5.2793e-06	918.87	231.02	2.9162e-06	8.3003e-06	359.45	106.13	65.669	23.268	6.3948e-06	43.694	0.0031918	0.003123	0.00090116	856.3	3.6249e-05	3.268e-05	1079.7	292.58	3.5331e-05	3.3379e-05	445.5	139.33	90.541	32.436	3.7741e-05	58.263	264.221	317.101	148.274	93.550	357.731	182.310	92.746	97.758	349.102	430.275	96.117	102.276	103.064	108.389	284.895	106.295	-8191	255	
2888.299	1	1	0	0	0.25355	0.0835	0.1532	0.10428	0.33659	0.16032	0.033804	0.099467	0.17031	0.23238	0.31523	0.052098	0.26218	0.12617	0.17278	0.12275	-2.0938	-2.7333	-2.2646	-2.9333	-2.3875	-2.3833	-2.8792	-2.2771	-2.4979	-2.7	-2.1417	-2.9188	-2.5229	-2.3063	-2.9521	-2.4771	89.674	223.601	201.988	148.304	152.306	236.633	96.431	222.915	254.052	355.197	391.749	400.073	155.708	417.127	213.153	396.786	0.00029853	0.00079566	0.00066173	672.01	5.1002e-06	6.3558e-06	914.86	231.03	5.8842e-06	1.3686e-05	359.13	105.79	65.155	23.385	1.3112e-05	43.441	0.0030633	0.0030358	0.00095732	849.24	3.4942e-05	3.2087e-05	1088.5	289.19	3.3423e-05	3.2481e-05	447.31	136.27	88.171	31.974	3.6963e-05	56.268	234.899	374.770	171.194	93.447	300.010	205.994	92.722	97.751	162.354	179.937	96.104	102.192	102.971	108.196	212.444	106.387	-8191	255	
2888.395	1	1	0	0	0.054387	0.079495	0.027911	0.20434	0.085436	0.32693	0.16761	0.32667	0.10367	0.14242	0.14101	0.11534	0.18988	0.086912	0.17989	0.075985	-2.0563	-2.8083	-2.2958	-2.8583	-2.4958	-2.2146	-2.6583	-2.2896	-2.3625	-2.7917	-2.2812	-2.6813	-2.6937	-2.1083	-2.9021	-2.2646	302.068	429.620	397.170	247.248	267.354	181.792	109.967	181.839	233.257	312.928	400.593	400.940	133.750	145.390	236.103	392.540	0.00035538	0.0019016	0.00074637	667.44	2.8169e-06	1.5855e-05	913.05	228.98	6.9134e-06	1.0429e-05	356.94	105.66	65.128	23.415	5.187e-06	43.451	0.0027341	0.0028769	0.00091998	824.93	3.1287e-05	3.1134e-05	1077.2	282.29	3.0321e-05	3.2418e-05	443.32	133.02	86.298	32.186	3.5646e-05	55.351	230.371	127.725	148.248	93.338	108.818	228.465	92.499	97.609	423.847	165.697	96.108	102.278	102.864	108.385	147.646	106.337	-8191	255	
2888.491	1	1	0	0	0.10477	0.27852	0.23239	0.19997	0.15518	0.2185	0.1461	0.1288	0.11775	0.15889	0.23313	0.018156	0.13856	0.39768	0.14869	0.15316	-1.9312	-2.7771	-2.1437	-2.5917	-2.6354	-2.1542	-2.9417	-2.4125	-2.1208	-2.6437	-2.175	-2.3646	-2.8208	-2.0354	-2.5771	-2.6688	257.478	80.083	182.063	368.606	190.694	383.259	382.614	304.867	413.143	271.438	103.444	238.228	97.044	379.676	278.007	322.881	0.00030906	0.002697	0.00018048	666.31	7.899e-06	1.7408e-05	915.02	229.15	5.3385e-06	2.4214e-05	357.54	106.26	65.28	23.305	1.1602e-05	43.718	0.00253	0.0029234	0.00087977	810.27	2.8821e-05	3.2084e-05	1067.5	278.52	2.8674e-05	3.3786e-05	441.72	132.94	86.343	33.13	3.6049e-05	56.004	226.997	166.034	311.308	93.336	183.981	251.889	92.387	97.617	343.929	215.069	96.359	102.098	102.843	108.466	370.598	106.437	-8191	255	
2888.587	1	1	0	0	0.028936	0.26535	0.088101	0.22368	0.18283	0.03163	0.025982	0.074978	0.26861	0.17974	0.021312	0.078259	0.099189	0.12892	0.26562	0.29673	-1.7708	-2.9021	-2.2542	-2.4958	-3.0229	-2.1896	-2.9333	-2.6437	-2.1937	-3.0208	-2.3167	-2.45	-2.7333	-2.3125	-2.6792	-2.4583	94.507	155.898	368.357	314.144	223.007	85.318	218.836	390.920	316.363	96.205	245.476	112.445	368.917	238.553	359.172	372.908	0.00047433	0.00070044	0.00018081	675.3	5.3943e-06	1.636e-05	917.31	229.81	1.0277e-05	1.2883e-05	360.26	106.82	66.161	23.376	9.1976e-06	43.492	0.0027329	0.003386	0.00092818	827.89	3.1787e-05	3.6983e-05	1078.7	281.28	3.1764e-05	3.7743e-05	445.58	134.19	88.901	34.135	3.5965e-05	56.079	209.036	155.103	346.478	93.466	233.097	252.836	92.482	97.510	209.315	236.016	96.101	102.251	103.220	108.362	332.416	106.315	-8191	255	
2888.683	1	1	0	0	0.14217	0.11588	0.091902	0.14943	0.15448	0.20231	0.18983	0.093412	0.24392	0.025814	0.22452	0.2692	0.13075	0.25439	0.29978	0.076444	-1.8604	-2.8125	-2.3083	-2.4375	-2.6917	-2.2479	-2.625	-2.6771	-2.1417	-2.6292	-2.5667	-2.2833	-2.9146	-2.3	-2.5312	-2.7625	280.472	256.717	256.273	413.430	138.820	360.866	201.261	419.583	152.366	81.487	402.549	400.064	186.290	349.047	102.685	393.018	0.00056538	0.00094189	0.00010153	694.84	2.7231e-05	7.6521e-06	918.12	225.78	2.5494e-05	9.4737e-06	355.81	106.83	66.527	22.917	1.1503e-05	43.195	0.0029576	0.0035716	0.00093214	843.92	3.5192e-05	3.9514e-05	1082.3	278.63	3.577e-05	3.9528e-05	444.7	134.74	92.368	34.196	3.638e-05	55.621	237.611	304.175	426.910	93.325	252.231	200.384	92.264	97.621	229.084	283.848	96.320	102.163	103.066	108.488	413.534	106.372	-8191	255	
2888.780	1	1	0	0	0.26905	0.09552	0.10958	0.20553	0.18947	0.1889	0.12583	0.24253	0.031341	0.014741	0.13188	0.29397	0.12354	0.12397	0.19504	0.14774	-1.3542	-2.8875	-2.1917	-2.3771	-2.6604	-2.3271	-2.6167	-2.7604	-2.05	-2.7021	-2.7042	-2.2792	-2.7938	-2.2729	-2.3042	-2.6604	171.352	219.448	309.605	424.720	90.524	402.420	196.059	424.987	175.210	243.334	355.471	266.198	386.220	333.837	243.436	379.379	0.00057642	0.001126	0.00012746	705.22	1.1557e-05	1.1454e-05	920.78	225.92	7.1622e-07	5.9243e-06	356	107.79	66.897	22.9	8.6728e-06	43.273	0.00332	0.0036441	0.00093948	858.59	3.8941e-05	3.9543e-05	1086.2	278.78	3.8981e-05	3.8602e-05	442.97	135.68	94.457	33.871	3.5422e-05	56.031	221.042	392.904	152.265	93.123	285.196	349.238	92.317	97.577	418.333	423.478	95.869	102.152	102.950	108.102	304.572	106.250	-8191	255	
2888.876	1	1	0	0	0.17936	0.10581	0.26829	0.17092	0.14288	0.15323	0.1545	0.13782	0.12104	0.26287	0.073847	0.22748	0.25344	0.066724	0.32833	0.023958	-1.8375	-2.6875	-2.4021	-2.3146	-2.8208	-2.3333	-2.5417	-2.7042	-2.2396	-2.5708	-2.6458	-2.225	-2.7687	-2.2729	-2.2958	-2.7833	190.393	213.130	427.899	397.961	245.781	85.485	128.877	386.821	152.494	319.432	156.582	285.538	171.787	433.190	171.896	87.205	0.00046503	0.001102	0.00050114	712.93	1.1773e-05	6.582e-06	932.25	227.41	6.6955e-06	3.0713e-06	355.57	109.1	67.349	23.09	6.3904e-06	43.725	0.0035608	0.003564	0.00093633	877.41	4.1557e-05	3.9456e-05	1092.7	284.47	4.1774e-05	3.8474e-05	443.86	139.63	96.697	33.947	3.5003e-05	57.741	213.925	276.027	110.974	93.314	185.247	280.642	92.135	97.655	387.380	243.923	96.073	102.301	102.823	107.993	203.525	106.703	-8191	255	
2888.972	1	1	0	0	0.10219	0.26923	0.15748	0.065731	0.12952	0.08632	0.12726	0.27057	0.12441	0.12991	0.18057	0.089896	0.16882	0.18574	0.15614	0.20349	-1.7646	-2.5062	-2.6792	-2.1437	-2.875	-2.2458	-2.6562	-2.8688	-2.1312	-2.5729	-2.5875	-2.3063	-2.7271	-2.6104	-2.3667	-2.9	323.056	423.929	376.212	148.968	356.435	169.900	337.352	364.719	132.579	213.745	282.123	418.731	373.697	389.334	398.634	236.728	0.00041733	0.00040782	0.00039154	721.88	9.4667e-06	3.1909e-06	934.34	229.32	1.1904e-06	8.5997e-06	360.89	110.62	67.958	23.089	5.797e-06	43.763	0.0037055	0.003527	0.00093065	900.92	4.26e-05	3.9631e-05	1099.1	293.2	4.3338e-05	3.9477e-05	450.12	145.44	98.393	34.395	3.7017e-05	59.962	211.207	250.604	432.876	92.873	149.685	327.206	92.472	97.838	82.339	132.837	96.460	101.901	102.821	108.026	162.170	106.522	-8191	255	
2889.093	1	1	0	0	0.048289	0.018654	0.24185	0.24921	0.25529	0.22495	0.24318	0.17974	0.29207	0.071406	0.20892	0.12384	0.033564	0.27672	0.085854	0.07975	-1.8729	-2.3458	-2.7958	-2.2562	-2.8604	-2.4688	-2.3812	-3.125	-2.3229	-2.3521	-2.8292	-2.1583	-2.775	-2.4896	-2.1771	-2.8125	180.326	172.401	136.744	94.780	315.325	202.343	379.695	87.204	234.991	335.404	374.792	376.298	189.352	111.181	232.657	198.704	0.00031654	0.00087018	0.00052796	728.55	8.0817e-06	1.3096e-05	948	229.19	7.7542e-06	3.1647e-06	361.32	110.17	67.973	22.9	1.775e-05	43.263	0.0038101	0.0036128	0.00096931	931.69	4.2868e-05	4.0494e-05	1119.8	301.12	4.4277e-05	4.0001e-05	456.82	149.37	98.343	34.392	3.9704e-05	60.489	230.334	246.216	128.620	93.425	85.135	430.464	92.277	97.719	335.467	321.293	96.155	102.157	102.901	108.211	232.423	106.265	-8191	255	
2889.187	1	1	0	0	0.18289	0.16872	0.29235	0.15773	0.1964	0.024318	0.31015	0.16847	0.29491	0.13177	0.10239	0.26263	0.063012	0.051056	0.23602	0.15892	-1.9833	-2.3396	-2.7958	-2.2521	-2.65	-2.7021	-2.1604	-2.9292	-2.4562	-2.4604	-2.8333	-2.3729	-2.6208	-2.9	-2.0229	-2.7583	127.490	279.797	288.627	413.727	223.939	225.311	409.848	90.920	210.318	291.747	248.586	411.662	410.510	259.152	322.180	410.702	0.00015243	0.00079316	5.8782e-05	725	1.175e-05	2.6562e-05	947.74	227.06	2.1114e-05	6.495e-06	359.69	109.69	67.379	22.806	1.2946e-05	42.594	0.0037875	0.0035939	0.0010552	947.96	4.3098e-05	4.1037e-05	1142.5	304.75	4.4804e-05	4.0594e-05	467.12	151.56	98.849	34.503	4.5247e-05	61.051	159.954	323.165	172.243	93.187	110.175	100.572	92.310	97.606	382.454	249.166	96.414	101.836	102.776	108.092	253.058	106.269	-8191	255	
2889.260	1	1	0	0	0.12183	0.24503	0.043581	0.1738	0.15034	0.1817	0.2828	0.053467	0.075466	0.18198	0.14189	0.085893	0.24454	0.14371	0.31945	0.1361	-1.9208	-2.2771	-3	-2.1667	-2.5438	-2.8292	-2.4313	-3.0396	-2.4292	-2.3542	-2.8521	-2.2146	-2.6896	-2.5875	-2.1271	-2.825	389.813	120.280	399.752	354.552	345.768	122.797	352.197	319.035	323.456	201.388	359.053	90.423	339.235	394.882	425.205	413.230	0.00038148	0.00076552	0.00060488	722.38	1.2079e-05	1.0235e-05	946.43	226.15	4.9136e-06	3.1473e-06	357.68	109.83	67.581	22.885	1.1259e-05	43.161	0.0038932	0.0036611	0.0011714	950.33	4.2577e-05	4.0298e-05	1154.5	300.51	4.2563e-05	3.8777e-05	469.72	148.77	96.593	34.15	4.6899e-05	60.362	213.415	225.808	174.218	93.248	406.032	307.346	92.388	97.515	436.189	210.451	96.486	101.960	102.776	108.594	239.700	106.384	-8191	255	
2889.379	1	1	0	0	0.17293	0.13047	0.18261	0.16444	0.036272	0.19572	0.32558	0.19215	0.29113	0.10091	0.11847	0.041193	0.16172	0.085345	0.26843	0.045393	-1.9625	-2.2583	-2.975	-2.2292	-2.4313	-2.8708	-2.2333	-2.8333	-2.2458	-2.5271	-2.8854	-2.3688	-2.4854	-2.7229	-2.2458	-2.7417	134.144	289.157	305.712	390.070	366.914	373.669	375.052	312.495	207.432	232.500	375.968	327.540	327.981	266.902	176.713	243.325	0.00032902	0.0018973	0.00046155	727.28	6.9537e-06	1.7322e-05	954.56	228.2	8.9109e-06	1.5328e-05	361.18	110.32	68.241	22.868	7.0927e-06	42.967	0.0037818	0.0037528	0.0012492	953.08	4.2494e-05	4.3078e-05	1181.8	301.54	4.3134e-05	4.2598e-05	481.29	149.67	97.433	35.162	5.0018e-05	60.379	214.174	150.523	179.991	93.544	260.389	240.789	92.638	97.307	362.924	182.174	96.525	102.055	102.570	108.520	197.325	106.098	-8191	255	
2889.475	1	1	0	0	0.27415	0.12709	0.14122	0.023063	0.16476	0.032469	0.094611	0.035396	0.12478	0.1883	0.073352	0.17931	0.1122	0.14957	0.1441	0.24006	-2.2146	-2.0729	-2.7958	-2.4562	-2.5062	-2.9354	-2.2667	-2.7313	-2.6875	-2.0625	-2.9167	-2.375	-2.3292	-2.9813	-2.5208	-2.6354	333.954	185.463	121.016	286.407	314.477	415.003	168.752	324.531	163.827	144.355	357.216	209.261	169.111	128.721	402.766	300.609	0.00045578	0.0019978	0.00061493	731.25	1.7827e-05	2.3186e-05	956.24	227.38	2.6158e-06	1.949e-05	359.13	110.1	67.942	22.813	1.1726e-05	42.544	0.0037675	0.0040971	0.0012893	953.78	4.2246e-05	4.7026e-05	1195.9	301.96	4.4045e-05	4.8483e-05	488.71	151.14	98.428	36.898	5.3312e-05	60.889	207.620	144.532	434.875	93.395	87.183	204.690	92.407	97.618	128.285	204.752	96.322	101.927	102.647	108.334	106.940	106.275	-8191	255	
2889.572	1	1	0	0	0.14292	0.083576	0.094257	0.15628	0.17233	0.17588	0.067803	0.28705	0.23249	0.46555	0.32726	0.10859	0.12175	0.14318	0.026295	0.15147	-2.4562	-2.1583	-2.9188	-2.5167	-2.4688	-2.8771	-2.4458	-2.5917	-2.7021	-2.0646	-2.8187	-2.6688	-2.375	-2.8646	-2.4313	-2.3896	421.183	360.709	122.867	388.175	326.870	318.678	411.158	409.608	308.706	254.360	410.284	137.884	382.398	217.958	212.664	104.618	0.00043715	0.0015382	0.00016412	736.31	2.2858e-05	3.3953e-05	956.51	228.92	1.1014e-05	1.8004e-05	358.55	109.1	67.773	22.23	1.7163e-05	41.942	0.0040338	0.0048315	0.0013733	976.73	4.6556e-05	5.5554e-05	1222.6	310.18	4.9263e-05	5.7317e-05	498.46	153.75	102.37	38.722	5.5934e-05	60.924	212.077	102.778	316.190	93.332	238.774	254.715	92.474	97.594	249.564	190.733	95.776	102.187	102.688	108.243	346.845	106.244	-8191	255	
2889.668	1	1	0	0	0.18859	0.10492	0.0048831	0.25072	0.12271	0.046261	0.36384	0.3553	0.13137	0.10072	0.049939	0.21567	0.086075	0.034175	0.35422	0.22936	-2.4042	-2.0208	-2.675	-2.7646	-2.35	-2.8292	-2.4083	-2.4979	-2.7958	-2.3021	-2.7125	-2.7146	-2.1833	-2.7229	-2.3812	-2.3104	165.456	110.817	245.409	94.030	215.884	87.345	391.998	368.326	109.519	366.400	106.012	363.979	268.545	134.523	384.589	116.984	0.00066194	0.0011705	0.00067217	738.34	2.4174e-05	9.5023e-06	960.38	227.11	2.4417e-05	6.8611e-06	359.19	109.23	67.971	22.383	1.3032e-05	41.999	0.0043954	0.0052589	0.0013637	974.63	4.9285e-05	5.7088e-05	1212.8	305.76	5.1459e-05	5.8172e-05	491.15	152.82	105.4	39.14	5.5623e-05	61.083	211.996	143.609	290.045	93.222	228.245	329.325	92.636	97.570	244.217	305.081	96.109	102.414	102.891	108.357	404.715	106.242	-8191	255	
2889.788	1	1	0	0	0.11965	0.14966	0.13738	0.12654	0.12044	0.11923	0.099147	0.13986	0.24485	0.28071	0.2074	0.11022	0.30672	0.18454	0.16857	0.12303	-2.3812	-2.2604	-2.5375	-2.8146	-2.0583	-2.9917	-2.375	-2.4208	-2.8771	-2.2521	-2.6542	-2.6958	-2.3396	-2.8396	-2.475	-2.375	147.813	392.724	157.637	415.766	287.943	336.690	279.908	357.841	232.663	262.260	437.384	379.504	372.405	322.364	82.066	205.606	0.00065919	0.00028043	0.00016153	744.55	3.2852e-05	1.9412e-05	962.56	228.01	1.8887e-05	1.1949e-05	360.82	110	68.174	22.414	1.1713e-05	42.756	0.004855	0.0054576	0.0013699	980.72	5.5141e-05	5.7916e-05	1216.3	306.1	5.6257e-05	5.8197e-05	490.83	152.95	108.62	38.766	5.4465e-05	61.555	227.262	320.727	323.080	93.130	226.661	85.917	92.424	97.420	212.893	409.947	96.319	102.281	102.781	107.689	358.705	106.271	-8191	255	
2889.884	1	1	0	0	0.1895	0.11339	0.13716	0.24704	0.10551	0.10182	0.42416	0.2278	0.18923	0.21499	0.10832	0.12722	0.18759	0.11871	0.34888	0.11539	-2.5938	-1.9875	-2.6688	-2.8667	-2.2042	-2.6354	-2.6104	-2.1604	-2.7667	-2.25	-2.5771	-2.7479	-2.1771	-2.925	-2.5771	-2.2896	106.035	430.327	389.495	232.277	222.246	257.975	376.619	396.412	124.290	289.994	117.617	84.504	375.687	412.616	280.163	200.926	0.0003601	0.00062563	9.1081e-05	744.25	2.1585e-05	4.4758e-06	964.12	230.35	2.7363e-06	1.8499e-05	361.81	110.19	68.33	22.315	7.7356e-06	42.725	0.0051445	0.0053062	0.0013365	982.83	5.8579e-05	5.6066e-05	1209.3	308.94	5.833e-05	5.5564e-05	484.18	153.22	108.74	37.342	4.9618e-05	61.305	226.887	294.220	428.487	93.103	230.236	362.458	92.476	97.487	380.571	117.203	96.067	101.739	102.850	108.245	363.449	106.330	-8191	255	
2889.981	1	1	0	0	0.081088	0.27661	0.088348	0.27701	0.20613	0.067883	0.26984	0.37703	0.089884	0.18852	0.1876	0.17372	0.28474	0.13674	0.41362	0.25076	-2.2958	-2.1479	-2.4375	-3.0104	-2.125	-2.6146	-2.6417	-2.4104	-2.8021	-2.6021	-2.3042	-2.8833	-2.1625	-2.6312	-2.6729	-2.1042	259.039	265.861	402.243	98.450	172.595	96.775	315.914	327.283	86.542	316.137	342.563	365.383	153.018	207.909	106.496	255.763	0.00054797	0.00050171	0.00025845	734.84	1.7269e-05	1.0559e-05	952.61	229.64	6.6997e-06	3.8831e-06	356.26	109.59	67.44	22.232	4.3521e-06	42.338	0.0048891	0.0047327	0.0011868	970.19	5.4693e-05	4.9606e-05	1172.4	306.33	5.3465e-05	4.9162e-05	465.05	151.62	104.09	35.458	4.4436e-05	60.708	215.272	348.813	240.766	93.417	355.870	328.025	92.223	97.717	407.506	419.250	96.052	102.127	102.661	108.026	83.782	106.631	-8191	255	
2890.077	1	1	0	0	0.058034	0.18064	0.15431	0.19082	0.076795	0.12667	0.39064	0.08359	0.11557	0.26666	0.20429	0.11088	0.27692	0.29416	0.12919	0.17873	-2.4208	-2.475	-2.2083	-2.875	-2.1021	-2.4271	-2.7417	-2.2458	-2.6458	-2.3271	-2.4104	-2.6792	-2.3771	-2.4042	-2.8125	-2.1417	399.859	164.862	279.550	205.133	411.240	267.542	367.919	405.992	109.103	396.892	354.223	80.377	398.158	329.613	142.636	303.111	0.00034338	0.0011203	0.00018389	737.01	7.8848e-06	1.6283e-05	952.73	228.67	8.7411e-06	9.6063e-06	357.53	108.95	67.568	22.28	1.4269e-05	42.458	0.0044156	0.0042787	0.0010848	966.83	4.983e-05	4.5056e-05	1154.1	306.61	4.9122e-05	4.6507e-05	462.6	153.36	103.11	35.136	4.4984e-05	61.921	252.523	367.729	111.194	93.221	232.298	380.421	92.452	97.544	83.161	403.026	96.110	102.230	103.044	107.826	281.709	106.316	-8191	255	
2890.173	1	1	0	0	0.31081	0.23011	0.14824	0.25734	0.19875	0.20669	0.35264	0.21876	0.17385	0.17704	0.096023	0.37179	0.20479	0.25891	0.12011	0.24754	-2.2979	-2.4042	-2.25	-2.6937	-2.2604	-2.2438	-3.1542	-2.1146	-2.425	-2.5167	-2.1562	-2.9229	-2.3708	-2.3521	-2.8146	-2.4146	233.039	86.711	396.950	400.261	339.382	161.199	361.553	375.705	131.189	256.544	370.846	371.092	421.720	129.108	216.252	396.658	0.00029451	0.0014293	0.00019069	737.9	2.968e-06	6.397e-06	962.19	228.12	7.4892e-06	1.0275e-05	361.09	109.36	67.498	22.461	1.981e-05	42.366	0.0042646	0.0041806	0.0011264	980.94	4.868e-05	4.4352e-05	1172	311.85	4.8161e-05	4.5579e-05	473.5	155.45	102.37	34.989	4.8676e-05	62.857	237.731	339.129	209.767	93.271	285.317	355.894	92.498	97.642	392.989	435.362	96.327	101.980	102.528	108.173	237.963	106.443	-8191	255	
2890.269	1	1	0	0	0.07464	0.1109	0.2593	0.028837	0.17921	0.19679	0.11535	0.12489	0.18386	0.061682	0.15191	0.27581	0.22044	0.053411	0.3448	0.17807	-2.1479	-2.6583	-2.1542	-2.7542	-2.45	-2.475	-2.8667	-2.2875	-2.6208	-2.6542	-2.3417	-2.8812	-2.4896	-2.4562	-2.7354	-2.4083	300.117	330.341	396.739	290.703	366.796	126.335	364.441	148.927	222.997	192.338	401.185	240.589	284.537	128.454	277.458	383.601	0.00041269	0.0014267	0.00048672	741.62	1.2621e-05	1.0471e-05	968.55	229.37	8.5142e-06	2.2296e-05	363.66	111.12	69.071	22.675	1.7724e-05	42.187	0.0042064	0.0041907	0.0012536	995.64	4.9423e-05	4.5074e-05	1206.9	316.4	4.8796e-05	4.6274e-05	489.21	156.49	103.54	35.12	5.2822e-05	62.501	243.216	257.805	159.041	93.343	428.435	124.268	92.679	97.942	299.660	257.260	96.314	101.879	102.750	108.229	236.744	106.414	-8191	255	
2890.388	1	1	0	0	0.064872	0.15383	0.15862	0.30039	0.077669	0.1423	0.081187	0.048993	0.22489	0.21351	0.14112	0.079445	0.3885	0.070885	0.26886	0.11018	-2.0187	-2.9271	-2.0625	-2.75	-2.6271	-2.2792	-3.1708	-2.1229	-2.5229	-2.7167	-2.1771	-2.9313	-2.5	-2.2562	-2.8688	-2.4604	94.065	399.849	85.127	386.958	228.261	363.989	420.314	138.262	277.835	98.034	181.018	411.981	376.838	434.977	194.247	153.684	0.00018246	0.0010177	0.00057878	740.58	7.3706e-06	1.1395e-05	968.66	228.79	1.2415e-05	2.095e-05	362.12	110.39	67.994	22.593	1.1482e-05	42.087	0.0040817	0.0040999	0.0012894	971.47	4.4585e-05	4.1106e-05	1188.4	302.87	4.1207e-05	4.1018e-05	477.05	148.4	97.783	34.102	4.9551e-05	59.882	219.796	434.756	146.144	93.229	173.228	178.974	92.678	97.754	384.799	196.409	96.306	102.103	102.763	107.698	208.256	106.212	-8191	255	
2890.484	1	1	0	0	0.090394	0.14397	0.36971	0.14653	0.22493	0.06889	0.11929	0.22171	0.3921	0.13699	0.24317	0.067214	0.22625	0.16561	0.36162	0.16923	-2.3271	-2.5938	-2.1792	-2.675	-2.5333	-2.3229	-2.9708	-2.3229	-2.2854	-2.8937	-2.2167	-2.75	-2.5333	-2.3563	-2.9333	-2.5229	109.854	156.994	253.129	425.489	108.605	173.396	141.855	373.434	90.255	136.378	414.365	260.534	182.356	286.268	265.104	353.030	0.0002172	0.0025299	0.00035481	743.31	4.4017e-06	1.9933e-05	964.84	229.89	3.1588e-06	1.9474e-05	362.69	110.41	68.689	22.893	1.1157e-05	42.577	0.0037071	0.0041067	0.001298	960.46	4.3877e-05	4.5054e-05	1203.7	304.37	4.1841e-05	4.5818e-05	483.54	148.23	97.823	35.283	4.8333e-05	59.283	240.232	140.620	138.679	92.911	168.255	226.732	92.520	97.507	362.225	242.945	96.456	102.111	102.685	108.305	260.324	106.302	-8191	255	
2890.556	1	1	0	0	0.095894	0.054197	0.10947	0.062659	0.24396	0.099291	0.20011	0.15961	0.066891	0.030522	0.016305	0.24412	0.13049	0.29155	0.14602	0.067528	-1.9208	-2.8646	-2.2792	-2.6146	-2.7188	-2.1521	-2.9062	-2.475	-2.2875	-2.8271	-2.4188	-2.5979	-2.7417	-2.2687	-2.7521	-2.4437	125.108	252.725	146.718	224.737	198.534	354.065	409.014	420.166	348.728	391.178	357.678	356.789	396.707	370.709	339.490	437.138	0.00043117	0.0020241	0.00034766	739.82	2.6364e-06	3.3488e-05	968.21	230.82	1.5691e-05	1.7192e-05	360.75	111.01	69.321	22.912	1.6123e-05	43.005	0.0034863	0.0041646	0.0012069	939.12	3.995e-05	4.496e-05	1178.4	297.53	3.8473e-05	4.5527e-05	473.15	145.81	96.697	35.667	4.4843e-05	58.6	225.660	134.988	252.072	93.132	222.750	224.174	92.436	97.388	254.841	205.906	96.262	101.823	102.696	108.417	387.233	106.095	-8191	255	
2890.652	1	1	0	0	0.022635	0.074941	0.12628	0.15825	0.17886	0.11	0.099248	0.23136	0.066808	0.15405	0.25784	0.34394	0.15135	0.1162	0.18032	0.15648	-1.7146	-3.0792	-2.0104	-2.6708	-2.6146	-2.2729	-2.8729	-2.7479	-2.2729	-2.8458	-2.4375	-2.3979	-2.9771	-2.1979	-2.9208	-2.7938	436.672	368.782	411.610	367.582	254.860	318.676	96.952	390.381	165.256	276.262	152.750	157.677	412.066	413.725	141.724	101.941	0.00061318	0.00065824	0.00013377	743.99	2.1053e-05	9.1433e-06	968.25	231.25	5.3526e-06	4.5661e-06	364.12	112.42	70.774	22.778	5.4609e-06	42.607	0.0034389	0.0042769	0.0011464	934.09	4.0656e-05	4.6805e-05	1173.9	296.47	4.0241e-05	4.6839e-05	470.93	145.69	99.304	36.158	4.3414e-05	58.001	232.575	138.675	321.735	93.051	237.685	259.048	92.506	97.575	240.783	424.661	96.394	101.634	102.753	108.590	422.928	106.402	-8191	255	
2890.773	1	1	0	0	0.13114	0.072565	0.25662	0.065581	0.21397	0.12893	0.33932	0.22264	0.12329	0.12636	0.092225	0.044514	0.30437	0.16112	0.10491	0.10306	-1.975	-2.7708	-2.2854	-2.4083	-2.8063	-2.2104	-2.7667	-2.8729	-2.325	-2.7854	-2.4104	-2.4583	-2.8521	-2.0271	-2.5083	-2.7646	231.707	141.815	304.058	439.856	327.044	238.059	391.266	423.248	285.239	334.535	385.326	351.638	94.778	382.246	174.790	349.909	0.00071992	0.00052169	0.00031434	747.31	2.1304e-05	4.4607e-06	975.04	232.35	1.8894e-05	4.9435e-06	362.05	111.97	70.765	22.543	8.6162e-06	42.064	0.003719	0.0043725	0.0011267	934.15	4.4429e-05	4.7881e-05	1173.9	297.03	4.4442e-05	4.7583e-05	470.15	145.72	102.84	36.181	4.4223e-05	57.779	209.357	369.772	251.031	93.013	252.267	380.014	92.287	97.907	227.149	372.179	96.493	102.247	102.878	107.980	175.336	106.122	-8191	255	
2890.869	1	1	0	0	0.071204	0.077943	0.084416	0.099383	0.12884	0.088801	0.2483	0.044005	0.023671	0.43796	0.16993	0.15879	0.29778	0.13714	0.1171	0.17257	-1.6688	-2.7125	-2.4354	-2.2396	-2.7375	-2.5167	-2.525	-2.8604	-2.1188	-2.7438	-2.6104	-2.4458	-2.8042	-2.4021	-2.2792	-3.0292	179.200	166.335	128.035	436.658	379.357	275.654	365.487	216.668	421.423	239.030	427.947	233.915	430.728	394.919	123.559	417.947	0.00067939	0.00088129	8.9713e-05	752.36	1.8373e-05	1.9628e-05	976.08	232.95	2.4488e-05	1.4706e-05	358.84	111.6	69.895	22.455	7.966e-06	42.266	0.0042024	0.0044602	0.0011696	948.04	4.956e-05	4.8858e-05	1179.5	299.76	4.8385e-05	4.667e-05	466.83	146.15	103.9	35.432	4.1567e-05	57.899	222.191	287.720	218.188	92.921	233.625	384.163	92.268	97.825	224.496	360.970	96.314	101.940	102.869	108.128	414.290	106.858	-8191	255	
2890.965	1	1	0	0	0.1628	0.20051	0.36959	0.15308	0.37114	0.15855	0.14056	0.24679	0.097462	0.047552	0.22888	0.15897	0.37207	0.080334	0.18345	0.22547	-1.6604	-2.8229	-2.5417	-2.4313	-2.8854	-2.4292	-2.5833	-2.7542	-2.2104	-2.6292	-2.8063	-2.1562	-2.9479	-2.2812	-2.5208	-2.9125	343.870	124.012	405.528	384.364	95.967	239.415	387.544	395.540	196.494	432.725	365.162	392.989	114.297	196.294	282.068	362.576	0.00041543	0.002576	0.00032765	751.67	1.4822e-05	1.0548e-05	971.61	231.85	2.739e-06	1.0686e-05	363.15	112.83	69.977	22.57	8.0229e-06	42.656	0.0041998	0.0040992	0.0010822	944.57	4.8472e-05	4.514e-05	1161.5	300.68	4.8617e-05	4.4185e-05	463.62	149.35	103.71	35.184	4.0597e-05	59.552	203.686	326.757	330.961	93.146	220.566	198.577	92.335	97.582	316.494	426.121	96.104	101.779	102.763	107.857	321.930	106.346	-8191	255	
2891.061	1	1	0	0	0.16264	0.18549	0.10308	0.11236	0.17392	0.10994	0.037492	0.29779	0.074485	0.15721	0.14632	0.079395	0.090017	0.18428	0.3475	0.074461	-1.6875	-2.4313	-2.6146	-2.2604	-2.8646	-2.5792	-2.3	-2.9104	-2.1542	-2.4333	-2.7938	-2.0917	-2.9833	-2.4646	-2.2083	-3.0479	182.034	160.324	162.915	99.123	435.341	267.826	345.743	412.016	334.344	98.866	120.376	437.212	291.519	298.579	323.080	277.726	0.00032832	0.00062771	0.00018663	749.43	4.4389e-06	1.73e-05	969.88	231.79	1.0956e-05	1.4344e-05	366.17	112.85	69.741	22.717	7.7307e-06	42.739	0.0042387	0.0039941	0.0010526	961.13	4.7603e-05	4.4021e-05	1154.7	305.35	4.6909e-05	4.2237e-05	461.46	151.86	101.92	34.676	3.9674e-05	60.45	197.093	188.255	382.822	92.950	88.639	434.754	92.511	97.594	383.033	135.878	96.236	101.787	102.036	107.662	184.514	106.464	-8191	255	
2891.157	1	1	0	0	0.10977	0.12852	0.15003	0.3549	0.31068	0.17234	0.44381	0.12063	0.1837	0.18316	0.11913	0.31394	0.22938	0.016608	0.18713	0.39969	-1.8979	-2.3375	-2.8208	-2.2583	-2.6771	-2.475	-2.2833	-2.9729	-2.3563	-2.3979	-2.8542	-2.1458	-2.7833	-2.6229	-2.1833	-2.9979	193.623	299.997	369.763	133.068	141.965	277.888	83.001	361.765	402.950	406.350	287.657	438.147	409.324	314.453	184.351	356.329	0.00022695	0.0014943	0.00037046	746.28	1.2795e-05	1.7263e-05	976.08	232.86	9.5812e-06	1.9708e-06	364.5	112.6	69.822	22.406	2.8949e-05	41.883	0.0040543	0.0038457	0.0010597	971.69	4.6265e-05	4.3852e-05	1166.4	312.82	4.7772e-05	4.3553e-05	473.02	156.28	102.76	34.945	4.4611e-05	61.405	232.225	419.621	141.133	92.943	367.146	409.578	92.632	97.642	431.291	235.472	95.936	101.660	102.173	107.942	252.558	106.006	-8191	255	
2891.253	1	1	0	0	0.14886	0.15663	0.24069	0.28523	0.12634	0.098774	0.31091	0.082175	0.16563	0.13479	0.13596	0.26492	0.090889	0.29383	0.29198	0.43197	-1.8604	-2.0917	-2.7417	-2.4	-2.5187	-2.6375	-2.2479	-2.8521	-2.3937	-2.2021	-2.8771	-2.4396	-2.6333	-2.6292	-2.4146	-2.6896	185.297	349.783	153.176	402.100	418.384	417.194	415.393	196.810	150.068	253.311	394.306	423.633	344.535	348.707	281.285	375.254	0.00018844	0.00091404	0.00040848	746.19	1.6252e-05	1.4668e-05	975.24	232.07	6.3914e-06	1.6609e-05	365.13	111.01	69.516	22.337	1.8373e-05	41.604	0.0041023	0.0038627	0.0011579	983.29	4.5201e-05	4.3058e-05	1187.4	313.03	4.6865e-05	4.264e-05	483.82	156.15	102.45	34.819	5.0054e-05	61.59	231.835	198.959	162.191	92.929	377.678	396.822	92.416	97.213	301.853	90.887	95.541	101.988	102.293	107.927	261.450	105.948	-8191	255	
2891.349	1	1	0	0	0.25032	0.31681	0.20887	0.21159	0.20855	0.10344	0.18532	0.16038	0.17281	0.1532	0.19046	0.17042	0.07893	0.16665	0.024666	0.15389	-2.1646	-2.1063	-2.9188	-2.3417	-2.3688	-2.8	-2.1479	-2.7396	-2.5938	-2.1646	-2.8438	-2.2938	-2.5104	-2.9292	-2.2583	-2.8854	437.415	414.977	387.293	245.869	218.693	104.463	418.207	256.145	108.600	240.086	101.015	151.135	424.025	436.757	87.965	342.839	0.00018611	0.00058972	0.0004876	748.06	5.4528e-06	1.3337e-05	986	232.43	9.7668e-06	1.9369e-05	366.83	111.68	69.172	22.453	6.3297e-06	42.185	0.0042059	0.0039989	0.00131	994.86	4.6439e-05	4.4868e-05	1219.7	314.21	4.7425e-05	4.4168e-05	494.24	155.31	101.42	34.997	5.2158e-05	61.032	236.550	169.553	181.442	92.967	369.135	174.436	92.137	97.384	120.966	228.130	95.796	102.053	102.258	108.134	233.237	106.205	-8191	255	
2891.468	1	1	0	0	0.026363	0.24724	0.098834	0.11976	0.059013	0.072334	0.42723	0.13808	0.21997	0.0030111	0.2803	0.12028	0.11026	0.16857	0.17932	0.080434	-2.2417	-2.3396	-2.8688	-2.3083	-2.525	-2.7958	-2.2271	-2.9313	-2.55	-2.1167	-3.0312	-2.4896	-2.3583	-2.9396	-2.1979	-2.6042	242.607	387.436	267.673	107.040	391.309	314.663	402.181	415.827	434.779	298.391	334.379	427.057	160.265	120.288	403.081	354.172	0.00028038	0.0023953	0.00031103	744.56	7.4025e-06	2.2949e-05	977.07	232.27	1.3444e-05	2.7698e-05	367.7	111.97	69.899	22.727	7.4953e-06	42.654	0.0040463	0.0040792	0.0013415	981.3	4.4658e-05	4.6335e-05	1226.4	309.9	4.5445e-05	4.6028e-05	496.96	153.61	99.973	35.863	5.2303e-05	60.217	298.617	133.209	160.260	93.088	386.953	260.436	92.035	97.163	386.151	203.193	96.402	101.809	102.531	108.153	155.378	106.014	-8191	255	
2891.564	1	1	0	0	0.075934	0.14636	0.076845	0.26708	0.088614	0.029732	0.29175	0.26902	0.12505	0.28702	0.29885	0.069297	0.12235	0.12533	0.13145	0.27388	-2.3021	-2.1688	-2.7062	-2.4396	-2.3021	-2.8875	-2.3083	-2.5229	-2.7167	-2.1958	-2.7896	-2.5625	-2.1542	-2.8125	-2.2562	-2.5292	385.087	103.665	184.330	368.541	247.246	273.680	398.069	407.139	410.009	148.446	435.729	247.361	122.207	163.307	116.676	314.676	0.00017503	0.0024517	0.00036357	744.02	1.3252e-05	2.173e-05	968.05	232.15	2.7716e-06	1.9879e-05	364.02	111.27	69.436	22.613	4.2532e-06	42.078	0.0038893	0.0043463	0.0013255	969.91	4.299e-05	4.8835e-05	1213.6	305.72	4.3611e-05	4.8865e-05	488.24	151.61	99.145	36.626	5.1104e-05	59.461	242.292	130.095	354.757	92.927	305.672	218.144	91.974	97.279	195.608	159.358	96.045	101.621	102.540	108.268	80.948	105.815	-8191	255	
2891.661	1	1	0	0	0.066647	0.18472	0.13952	0.13998	0.13246	0.26318	0.1798	0.071481	0.074952	0.13525	0.33119	0.20483	0.24543	0.046052	0.14009	0.096189	-2.1625	-2.0563	-2.6813	-2.6417	-2.1813	-2.9375	-2.4729	-2.5208	-2.6688	-2.2542	-2.8521	-2.5208	-2.1562	-2.9042	-2.2521	-2.6521	150.653	103.823	392.304	88.976	195.553	135.386	103.492	422.586	196.224	411.266	368.843	371.505	268.353	282.119	396.758	374.294	0.00051595	0.0012927	0.00031932	741.38	1.8173e-05	2.0389e-05	968.63	232.59	4.947e-06	2.4952e-05	363.59	111.44	70.066	22.504	1.9208e-05	42.183	0.0038959	0.00469	0.0012914	966.44	4.4111e-05	5.2444e-05	1210.9	305.21	4.5783e-05	5.2758e-05	486.96	151.37	101.2	37.39	4.9914e-05	59.075	225.478	120.221	331.381	93.095	211.501	223.183	92.406	97.344	299.282	226.894	95.655	101.648	102.674	107.379	368.626	105.874	-8191	255	
2891.781	1	1	0	0	0.1096	0.18681	0.10359	0.12088	0.084189	0.038967	0.25904	0.26206	0.015545	0.32662	0.35582	0.18367	0.0587	0.33747	0.15169	0.31751	-2.2438	-2.025	-2.6167	-2.6375	-2.1833	-2.6958	-2.4833	-2.5438	-2.8771	-2.3063	-2.675	-2.6917	-2.1396	-2.5687	-2.5583	-2.2479	230.924	299.006	242.792	84.403	329.898	102.522	390.765	220.974	385.684	432.093	380.368	305.935	332.238	420.710	392.822	277.360	0.00058491	0.0013229	0.00011078	739.79	2.3512e-05	6.0764e-06	972.38	233.54	2.1641e-05	1.1612e-06	366.37	112.94	70.323	22.34	1.073e-05	42.381	0.004085	0.0048235	0.0012362	956.59	4.6485e-05	5.2946e-05	1202.9	303.02	4.8689e-05	5.3192e-05	485.03	151.21	104.31	37.498	4.9342e-05	59.173	204.272	310.471	386.529	92.930	191.268	104.077	92.140	97.070	250.641	289.248	95.774	101.916	102.167	108.164	113.894	106.000	-8191	255	
2891.853	1	1	0	0	0.021781	0.22936	0.12787	0.14469	0.065485	0.1547	0.22072	0.21721	0.16573	0.48862	0.18697	0.23435	0.23511	0.31404	0.15585	0.24769	-2.4146	-2	-2.4333	-2.8667	-1.9979	-2.8438	-2.5958	-2.2313	-2.9562	-2.475	-2.5333	-2.85	-2.2292	-2.6813	-2.5604	-2.2167	398.141	159.891	386.934	105.034	82.259	148.753	98.483	421.405	309.937	126.382	341.147	375.227	256.597	418.257	219.889	358.142	0.00057763	0.001145	0.00019623	742.51	2.9158e-05	4.7022e-06	975.27	233.41	3.004e-05	7.0943e-06	364.95	112.48	70.309	22.45	3.4446e-06	42.854	0.0044627	0.0048978	0.0012364	961.82	5.2085e-05	5.373e-05	1210.1	306.86	5.4762e-05	5.49e-05	489.57	153.96	109.2	37.968	5.1328e-05	60.82	206.446	357.633	330.155	92.952	235.714	355.788	92.303	97.235	195.195	400.243	95.949	101.538	102.318	107.913	395.624	106.089	-8191	255	
2891.949	1	1	0	0	0.28679	0.2491	0.14191	0.089319	0.17295	0.10913	0.1274	0.17535	0.074109	0.42494	0.31298	0.13059	0.040372	0.26181	0.2082	0.11717	-2.4375	-2.3771	-2.4104	-2.8292	-2.0687	-2.5938	-2.6708	-2.2646	-2.8708	-2.275	-2.5042	-3.0062	-1.9667	-2.6354	-2.6167	-2.3125	191.132	329.970	295.996	435.023	350.894	282.932	199.121	417.850	249.243	397.567	100.247	368.229	240.376	94.430	154.297	109.573	0.00043952	0.0011749	0.00057761	743.25	1.3286e-05	3.329e-05	968.57	232.87	1.03e-05	2.0135e-05	365.21	111.79	69.118	22.492	1.3369e-05	42.51	0.0049759	0.005026	0.0012688	977.68	5.7362e-05	5.3737e-05	1206.3	311.7	5.7281e-05	5.3669e-05	484.56	155.95	110.27	37.34	5.067e-05	61.901	195.467	317.617	356.499	92.879	335.544	408.941	92.504	97.196	153.441	405.234	95.635	101.866	102.357	108.007	411.469	106.165	-8191	255	
2892.070	1	1	0	0	0.071116	0.035481	0.14595	0.17214	0.070823	0.10645	0.055528	0.18008	0.20226	0.19986	0.093522	0.33285	0.15258	0.13733	0.068018	0.031815	-2.3583	-2.3021	-2.2667	-2.7687	-2.2938	-2.5187	-2.8688	-2.2417	-2.8521	-2.8812	-2.3812	-3.0646	-2.2938	-2.6667	-2.6896	-2.4792	145.775	276.906	318.064	323.441	409.571	164.643	431.827	398.176	238.459	97.549	411.884	422.014	214.085	357.449	194.224	413.328	0.00024927	0.00024681	0.00015153	742.74	9.6185e-06	7.5627e-06	969.16	233.78	4.4158e-06	9.2799e-06	365.26	111.95	69.279	22.382	1.3227e-05	42.747	0.005122	0.0049666	0.0012472	991.51	5.7356e-05	5.1744e-05	1192.7	316.18	5.559e-05	5.1316e-05	479.22	157.9	108.74	36.774	4.9263e-05	63.516	219.152	170.909	326.175	93.151	109.648	271.897	92.331	97.486	411.087	393.695	95.855	102.278	102.393	107.987	270.718	106.407	-8191	255	
2892.164	1	1	0	0	0.16121	0.12963	0.043223	0.33592	0.025252	0.097901	0.2766	0.34012	0.094017	0.17174	0.15802	0.057647	0.28089	0.28954	0.073707	0.065949	-2.3333	-2.4958	-2.275	-3.0583	-2.2812	-2.5333	-2.8771	-2.2354	-2.7625	-2.6083	-2.3833	-2.8396	-2.4896	-2.3583	-2.8979	-2.1333	164.136	402.492	103.697	410.421	187.690	390.154	355.193	396.898	421.506	128.525	437.313	307.189	423.469	108.602	360.798	114.353	0.00026258	0.001569	0.00015653	734.97	3.4411e-06	1.0825e-05	969.11	232.22	1.5358e-05	1.4643e-06	366.33	112.08	69.732	22.453	2.1117e-05	42.752	0.0049347	0.0048483	0.0012416	1007.5	5.6572e-05	5.1376e-05	1200	325.3	5.5891e-05	5.2268e-05	488.92	162.84	109.44	36.871	5.2424e-05	65.414	227.119	267.680	412.864	93.025	105.982	381.799	92.227	97.555	419.931	84.263	95.848	101.710	102.633	108.161	235.828	106.128	-8191	255	
2892.260	1	1	0	0	0.090737	0.087696	0.18162	0.22459	0.019056	0.20035	0.098484	0.073618	0.084391	0.1508	0.25393	0.13152	0.032662	0.28931	0.087962	0.33666	-2.3083	-2.5229	-2.0917	-2.8646	-2.2125	-2.4104	-3	-2.2896	-2.8104	-2.5979	-2.3104	-2.8688	-2.4979	-2.4125	-2.9708	-2.4146	331.739	270.911	327.545	275.822	178.945	263.410	110.590	421.465	285.137	291.126	363.668	397.251	159.571	333.447	154.023	192.542	0.00028895	0.001405	0.00035787	739.79	1.1328e-05	1.6192e-05	976.05	233.46	1.2193e-05	1.5513e-05	369.74	112.04	69.645	22.478	2.8567e-05	42.441	0.0048554	0.004807	0.0013319	1024.9	5.6195e-05	5.0957e-05	1227.7	331.69	5.5209e-05	5.2539e-05	503.81	164.96	109.23	36.792	5.6987e-05	65.87	222.636	355.294	202.257	93.182	437.836	105.654	92.589	97.769	392.279	142.085	96.070	101.824	102.522	107.964	241.057	106.387	-8191	255	
2892.356	1	1	0	0	0.10039	0.027377	0.23711	0.21837	0.21633	0.060928	0.1258	0.15074	0.1799	0.2341	0.069301	0.24987	0.1695	0.21301	0.017169	0.20084	-2.1833	-2.7104	-2.2021	-2.8875	-2.4458	-2.3292	-2.9896	-2.2938	-2.55	-2.7562	-2.1688	-2.8542	-2.5854	-2.3479	-2.7708	-2.4583	249.691	297.003	293.329	84.011	423.279	170.036	312.310	369.487	295.457	187.685	432.347	104.675	222.703	398.770	226.319	332.234	0.00027675	0.0012751	0.00065185	738.7	1.4638e-05	1.0165e-05	976.76	235.05	1.1661e-05	9.18e-07	370.31	111.57	68.594	22.313	8.7541e-06	41.99	0.0047776	0.0047598	0.0014567	1025.2	5.591e-05	5.1014e-05	1252.6	332.34	5.467e-05	5.2598e-05	517.7	163.81	108.63	36.935	6.2072e-05	65.162	238.184	274.852	165.522	92.893	93.009	426.442	92.758	97.270	411.542	403.296	95.971	101.766	102.245	107.747	171.811	106.336	-8191	255	
2892.453	1	1	0	0	0.084993	0.26866	0.15597	0.063087	0.094724	0.090308	0.25718	0.25013	0.15869	0.35209	0.076742	0.028989	0.21924	0.20386	0.080553	0.060394	-2.1063	-2.7479	-2.2042	-2.7458	-2.4917	-2.2771	-3.0687	-2.3396	-2.4354	-2.8292	-2.3667	-3.0146	-2.6292	-2.2333	-2.775	-2.3875	300.430	316.442	347.584	435.848	161.593	245.162	354.452	372.007	406.999	357.661	123.452	162.041	348.875	294.918	146.550	268.277	0.0003356	0.00094641	0.0004955	732.64	1.8137e-05	5.1794e-06	972.22	234.11	7.6289e-06	1.2545e-05	367.16	110.58	68.564	22.484	1.1637e-05	41.771	0.0047799	0.0049619	0.0016041	1024.6	5.6994e-05	5.4838e-05	1276	333.05	5.5322e-05	5.6762e-05	528.68	162.9	108.87	38.321	6.635e-05	65.787	267.478	127.316	190.433	93.152	387.587	255.926	92.390	97.419	94.540	199.152	96.129	101.644	102.461	107.782	119.553	106.336	-8191	255	
2892.549	1	1	0	0	0.30462	0.19294	0.028069	0.26082	0.040933	0.20253	0.21244	0.37752	0.16619	0.21852	0.19392	0.16975	0.21366	0.29727	0.098959	0.089468	-1.9583	-2.8167	-2.0958	-2.8042	-2.5896	-2.2729	-2.7729	-2.5125	-2.3292	-2.9188	-2.0875	-2.7042	-2.7771	-2.4417	-2.9042	-2.4688	352.082	306.308	379.131	82.138	158.763	212.913	333.067	365.694	138.941	238.375	361.520	436.734	373.186	206.999	114.209	365.847	0.00042038	0.002526	0.0003607	736.34	6.2297e-06	2.7127e-05	974.39	233.55	1.5304e-05	3.9258e-05	366.93	111.93	69.454	22.617	5.9736e-06	42.148	0.0049316	0.0056204	0.0017562	1036.3	6.0494e-05	6.4922e-05	1319.1	343.23	6.1986e-05	7.0547e-05	558.35	170.95	115.23	42.723	7.5134e-05	69.215	236.648	142.280	183.374	93.269	147.926	223.240	92.257	97.378	363.077	224.903	96.017	101.452	102.614	107.590	353.140	106.153	-8191	255	
2892.645	1	1	0	0	0.21014	0.13102	0.090516	0.19867	0.082764	0.12504	0.18039	0.1864	0.11749	0.10611	0.10572	0.057667	0.28316	0.33609	0.20883	0.23792	-1.8333	-2.8104	-2.1417	-2.7417	-2.7875	-2.3375	-2.9625	-2.6229	-2.1146	-2.9	-2.2604	-2.5854	-2.8063	-2.2042	-2.8104	-2.6229	371.144	418.504	161.594	341.767	435.907	154.186	426.276	321.427	280.569	334.047	434.665	362.507	127.745	152.221	108.099	175.233	0.00035881	0.0025939	0.00047432	737.67	1.9253e-05	3.748e-05	971.99	236.06	7.4357e-06	6.634e-06	369.87	111.91	69.829	22.717	9.5593e-06	42.735	0.0055129	0.0067182	0.0019044	1059.7	6.4326e-05	7.3285e-05	1322.1	344.74	6.2812e-05	7.4261e-05	552.4	169.15	115.59	43.565	7.0611e-05	67.912	229.774	191.697	301.144	92.982	247.828	241.973	92.158	97.425	211.907	109.952	96.111	101.955	102.903	108.307	412.608	106.222	-8191	255	
2892.741	1	1	0	0	0.21829	0.1327	0.10901	0.16981	0.14296	0.24058	0.1315	0.24539	0.13713	0.13761	0.1381	0.13488	0.1011	0.20553	0.14289	0.21129	-1.9396	-2.9917	-2.2208	-2.5333	-2.6646	-2.1771	-2.5875	-2.7354	-2.225	-3.0792	-2.5292	-2.3771	-2.7917	-2.4062	-2.65	-3.0438	239.126	257.052	216.154	135.803	407.631	209.933	370.722	91.535	328.299	364.347	351.549	376.606	388.495	345.441	252.851	98.967	0.00061175	0.0012199	0.00063086	735.72	3.1738e-05	1.9032e-05	970.19	234.63	2.7954e-05	6.6939e-06	368.85	111.23	70.086	22.397	5.3309e-06	42.147	0.0055005	0.006762	0.0017849	1037.6	6.5163e-05	7.3904e-05	1294.7	337.55	6.4435e-05	7.3361e-05	538.31	163.8	115.75	42.6	6.4967e-05	65.304	210.340	97.930	426.190	93.171	208.432	229.397	92.194	97.351	225.026	438.997	96.150	101.567	102.649	108.338	389.263	106.270	-8191	255	
2892.862	1	1	0	0	0.017278	0.042964	0.14616	0.2604	0.12134	0.23066	0.12125	0.097113	0.15392	0.12426	0.076692	0.35637	0.31252	0.18447	0.056085	0.20244	-1.9667	-2.8167	-2.2562	-2.5458	-2.8146	-2.3542	-2.6063	-2.8917	-2.1458	-3.0521	-2.5875	-2.425	-2.8896	-2.1896	-2.75	-2.7896	108.648	133.472	265.552	408.869	424.515	339.182	230.038	104.248	256.413	161.802	347.831	365.197	425.054	155.202	283.023	175.560	0.00048326	0.0022996	1.4031e-05	733.3	3.5227e-05	1.1901e-05	961.86	232.75	2.5303e-05	2.3649e-05	364.78	110.86	69.341	22.143	2.2207e-05	41.832	0.005637	0.0064375	0.0016619	1011.2	6.6523e-05	7.0164e-05	1266.2	330.1	6.6971e-05	6.9686e-05	528.06	161.66	118.58	42.089	6.3709e-05	65.238	211.081	271.643	166.831	93.079	249.599	436.161	92.418	97.336	238.044	384.795	95.861	101.769	102.157	108.036	403.035	105.993	-8191	255	
2892.958	1	1	0	0	0.10365	0.060896	0.072322	0.070155	0.04291	0.26702	0.070387	0.14536	0.067029	0.12593	0.12489	0.2451	0.1582	0.089839	0.38901	0.064857	-1.5979	-2.8208	-2.4167	-2.3458	-3.0104	-2.4271	-2.5771	-2.7375	-2.3083	-2.7	-2.5812	-2.1813	-2.9958	-2.4042	-2.1583	-2.7687	363.874	300.452	156.794	355.573	339.623	166.068	331.253	195.333	304.356	328.813	369.476	437.223	425.244	402.426	438.157	326.162	0.00062056	0.0010642	0.00037922	732.65	2.1473e-05	1.3546e-05	963.72	234.16	2.4701e-05	2.8276e-05	366.62	110.69	68.8	22.382	2.1658e-05	42.474	0.0060932	0.00631	0.001652	1017.6	7.0753e-05	6.8963e-05	1260.9	332.85	7.0911e-05	6.6579e-05	522.91	163.13	119.09	41.149	6.005e-05	65.93	226.101	297.904	283.781	93.279	279.212	394.658	92.032	97.540	241.814	360.918	96.114	101.594	102.471	107.829	418.190	106.470	-8191	255	
2893.054	1	1	0	0	0.03276	0.30107	0.20354	0.31408	0.20123	0.027171	0.14541	0.15427	0.13961	0.21809	0.20794	0.19982	0.14355	0.15135	0.21345	0.098281	-1.6979	-2.5521	-2.6583	-2.2188	-2.9688	-2.2542	-2.4313	-2.9125	-2.2438	-2.4938	-2.675	-2.2896	-3.0146	-2.4792	-2.4042	-3.0896	257.816	345.131	98.622	427.389	333.089	116.644	172.750	344.123	428.535	354.991	373.036	319.327	345.941	85.863	148.858	391.044	0.00028227	0.0014896	0.00045477	733.74	1.1684e-05	3.079e-05	958.06	233.65	7.0015e-06	7.1712e-06	364.89	112.01	69.43	22.615	3.0789e-06	42.774	0.0061082	0.00584	0.0015337	1022.3	6.8816e-05	6.4324e-05	1237	335.42	6.9682e-05	6.2943e-05	513.96	166.84	118.15	40.406	5.7382e-05	67.271	222.149	363.209	364.203	92.943	395.546	382.572	92.166	97.627	180.902	347.087	96.191	101.878	102.671	107.828	291.741	106.312	-8191	255	
2893.150	1	1	0	0	0.20236	0.112	0.20213	0.27583	0.13443	0.15642	0.32395	0.1609	0.20009	0.23135	0.029109	0.16558	0.072481	0.20257	0.26259	0.19452	-1.5833	-2.55	-2.6146	-2.3271	-2.8688	-2.6271	-2.5042	-3	-2.3375	-2.5812	-2.6479	-2.1875	-2.8521	-2.6917	-2.4	-2.9437	148.606	363.034	124.822	429.022	326.396	156.341	91.792	416.667	101.809	204.715	387.173	139.361	404.846	88.416	212.002	403.788	0.0002534	0.0016687	0.00030977	734.19	2.69e-05	1.3067e-05	967.68	233.25	1.5096e-05	6.8713e-06	365.57	110.97	68.67	22.173	2.5678e-05	42.071	0.0058814	0.0055186	0.0014644	1038.1	6.5444e-05	6.1123e-05	1228.3	338.11	6.5187e-05	5.8773e-05	504.78	166.88	113.43	38.987	5.5888e-05	67.051	199.346	362.367	248.686	92.857	421.658	368.467	92.313	97.586	353.336	366.906	96.190	101.888	102.576	107.716	244.385	106.689	-8191	255	
2893.246	1	1	0	0	0.13584	0.29726	0.11146	0.13567	0.13852	0.19452	0.11413	0.1167	0.26695	0.095003	0.085499	0.23373	0.044674	0.18654	0.18663	0.26812	-1.8	-2.6167	-2.8688	-2.3187	-2.7188	-2.7229	-2.3125	-2.9313	-2.3792	-2.4104	-2.85	-2.1646	-2.6021	-2.7583	-2.0479	-2.9104	339.002	189.970	235.117	96.824	240.355	322.677	99.136	292.581	253.547	187.169	118.677	437.956	106.239	81.727	402.775	373.554	0.00029225	0.0018	0.00080239	730.43	1.2362e-05	1.115e-05	964.45	229.9	1.436e-05	1.8149e-05	359.66	108.75	67.964	22.168	2.6676e-05	41.412	0.0055518	0.0052868	0.0014876	1052.3	6.3035e-05	5.9715e-05	1237.3	340.47	6.3703e-05	5.7656e-05	508.84	168.11	111.98	38.63	6.0488e-05	67.286	223.475	294.196	173.907	92.837	435.761	394.577	92.378	97.520	116.420	347.572	96.046	101.648	102.625	108.342	253.960	106.241	-8191	255	
2893.342	1	1	0	0	0.24889	0.17952	0.20584	0.16973	0.14153	0.18237	0.10704	0.33213	0.11939	0.20624	0.20304	0.28038	0.044103	0.17911	0.18456	0.28754	-1.9479	-2.4229	-2.9437	-2.4625	-2.5312	-2.8979	-2.175	-2.9833	-2.6604	-2.4958	-2.9938	-2.4021	-2.3708	-2.9208	-2.0458	-3.0396	353.800	178.019	181.414	293.721	274.484	255.898	363.969	337.531	217.589	172.558	156.497	89.296	117.996	334.054	253.757	321.610	0.00020365	0.0018618	0.00098089	725.8	1.7099e-05	1.566e-05	961.77	228.88	1.3773e-05	1.9352e-05	359.59	109.14	68.104	22.171	2.326e-05	41.421	0.0054238	0.0051442	0.0015873	1048.1	5.9833e-05	5.6944e-05	1248.8	334.1	5.9948e-05	5.4288e-05	513.98	164.79	109.04	37.736	6.2978e-05	65.891	251.882	342.515	142.263	93.052	394.840	364.918	92.169	97.777	342.156	237.144	96.288	101.928	102.490	108.060	244.829	106.368	-8191	255	
2893.461	1	1	0	0	0.061957	0.20065	0.19982	0.19259	0.18591	0.18928	0.26834	0.12414	0.46508	0.1078	0.25027	0.047776	0.21355	0.14778	0.25734	0.13643	-2.0604	-2.3438	-2.8458	-2.425	-2.4437	-2.6229	-2.2729	-2.7583	-2.4667	-2.2687	-2.8792	-2.4125	-2.5187	-2.7375	-2.0771	-2.7792	153.253	235.837	358.396	416.535	177.584	387.729	367.037	391.964	172.551	292.801	115.332	390.266	309.876	163.640	156.903	356.530	0.00041309	0.0016871	0.00052311	724.58	1.1086e-05	1.03e-06	961.12	227.3	8.3203e-06	1.7987e-05	358.89	108.48	68.397	22.387	2.1779e-06	41.648	0.0051676	0.0049753	0.0016482	1033.1	5.72e-05	5.6007e-05	1262.4	327.8	5.721e-05	5.4068e-05	517.23	161.55	106.42	37.77	6.2508e-05	63.624	245.604	140.899	141.618	93.281	131.606	335.186	92.494	97.693	433.884	175.751	96.447	101.872	102.457	108.677	191.034	106.232	-8191	255	
2893.557	1	1	0	0	0.24231	0.10662	0.14281	0.13154	0.12665	0.04017	0.28085	0.2591	0.14346	0.25434	0.038524	0.090819	0.25925	0.30472	0.059195	0.14025	-2.1625	-2.0563	-2.8042	-2.3521	-2.3521	-2.9146	-2.2292	-2.5958	-2.6021	-2.4417	-3.1	-2.4458	-2.5667	-2.9938	-2.3521	-2.6375	255.082	196.493	420.635	106.015	435.218	151.038	414.792	347.321	289.523	351.377	85.422	110.563	430.803	111.804	342.106	381.726	0.00030967	0.0029705	0.00022874	723.89	9.8946e-06	2.9046e-05	957.37	228.38	7.5269e-06	2.9791e-05	356.64	108.28	67.399	22.406	9.1372e-06	41.546	0.0047041	0.0048484	0.0015642	993.81	5.0649e-05	5.4237e-05	1241.9	316.23	5.1719e-05	5.4153e-05	508.19	157.01	102.96	37.921	6.0002e-05	61.774	222.781	134.171	81.043	93.386	380.944	241.497	92.615	97.782	178.947	207.018	96.566	102.254	102.249	108.202	202.898	106.131	-8191	255	
2893.654	1	1	0	0	0.24079	0.13247	0.055364	0.083012	0.33799	0.19364	0.22898	0.1476	0.35187	0.047867	0.24797	0.2936	0.29784	0.24504	0.096733	0.13481	-2.3146	-1.9375	-2.7771	-2.5646	-2.2771	-3.15	-2.3917	-2.7604	-2.7938	-2.2687	-2.8604	-2.6417	-2.3708	-3.1792	-2.1729	-2.5979	220.194	113.597	315.777	250.370	138.875	355.286	131.148	392.946	211.525	187.409	348.443	130.006	418.057	146.529	243.492	270.179	0.00027493	0.0023462	0.00046605	717.42	5.5662e-06	3.2257e-05	947.49	228.08	4.2961e-06	2.0798e-05	352.56	107.79	67.851	22.235	6.3659e-06	40.986	0.0043915	0.0050705	0.0014907	975.33	4.8896e-05	5.6908e-05	1227.8	311.83	5.0428e-05	5.7471e-05	496.43	153.63	101.95	38.383	5.7197e-05	60.477	246.482	141.152	377.008	93.054	250.793	222.594	92.297	97.688	271.522	217.298	95.892	102.188	103.197	108.225	363.141	106.221	-8191	255	
2893.750	1	1	0	0	0.081269	0.20045	0.069706	0.1466	0.1753	0.064089	0.11258	0.38623	0.23727	0.26188	0.22542	0.023365	0.1454	0.35073	0.16569	0.23965	-2.2542	-2.1479	-2.6125	-2.7687	-2.2542	-2.9667	-2.4417	-2.4667	-2.6729	-2.2021	-2.6917	-2.6021	-2.4396	-2.9146	-2.3833	-2.4437	414.922	333.871	359.439	370.186	202.365	388.892	362.603	434.427	237.766	123.729	279.726	426.879	350.978	411.712	275.439	395.800	0.00077888	0.001889	0.00031984	716.83	2.8445e-05	2.5669e-05	949.25	225.98	2.8402e-05	6.5388e-06	355.85	107.98	68.44	22.119	4.3512e-06	41.426	0.0043762	0.0053202	0.0014213	964.8	5.0152e-05	5.9692e-05	1220.1	310.62	5.3261e-05	6.1659e-05	497.66	154.67	105.86	39.68	5.8644e-05	61.403	237.226	125.412	341.110	93.239	218.187	223.214	92.366	97.554	226.499	202.322	96.029	102.173	102.776	108.127	377.528	106.189	-8191	255	
2893.846	1	1	0	0	0.25993	0.0034136	0.067028	0.051021	0.23011	0.12227	0.08474	0.13327	0.20768	0.10777	0.22854	0.15416	0.10878	0.13501	0.13575	0.15592	-2.4958	-2.1792	-2.5771	-2.7375	-2.1813	-2.9437	-2.4292	-2.4604	-2.8021	-2.3896	-2.6479	-2.8292	-2.2896	-2.9417	-2.3771	-2.3958	393.443	164.329	133.837	367.842	397.905	157.453	397.934	436.838	190.699	184.381	396.429	438.251	434.634	98.657	92.019	157.279	0.00070671	0.00063882	0.00019041	718.35	2.1358e-05	1.4201e-05	950.68	228.85	2.1778e-05	1.3753e-05	358.27	109.63	68.681	22.098	6.7966e-06	41.728	0.0049697	0.0058174	0.0014723	978.56	5.7105e-05	6.2913e-05	1223.3	311.3	5.7975e-05	6.18e-05	497.06	154.38	109.36	39.354	5.6741e-05	61.341	209.645	89.632	277.854	93.130	250.648	80.531	92.422	97.446	280.710	290.527	96.137	102.041	102.923	108.992	238.698	106.299	-8191	255	
2893.942	1	1	0	0	0.41328	0.064182	0.17896	0.23262	0.2421	0.13666	0.31473	0.18858	0.2048	0.18143	0.3892	0.12167	0.12136	0.10625	0.13648	0.21033	-2.4292	-2.175	-2.5563	-2.8958	-2.4104	-2.7625	-2.6771	-2.3521	-2.9146	-2.3833	-2.5979	-2.7729	-2.4146	-2.6104	-2.6042	-2.3229	268.441	161.515	333.531	377.978	384.325	112.143	416.306	95.175	97.106	139.704	345.740	295.855	284.335	172.199	178.742	123.223	0.00074487	0.0003699	0.00018038	719.8	3.6928e-05	1.686e-05	951.66	231.28	1.9729e-05	2.3318e-05	360.09	109.98	68.482	22.153	1.5162e-05	41.66	0.005295	0.0057137	0.0014554	982.11	6.3498e-05	6.3473e-05	1236.2	318.77	6.5303e-05	6.4004e-05	503.87	158.51	114.12	39.523	5.8135e-05	62.819	219.022	229.603	244.968	93.318	233.549	366.753	92.319	97.596	226.166	339.395	96.013	102.328	102.558	108.170	80.379	106.165	-8191	255	
2894.038	1	1	0	0	0.11574	0.13951	0.10605	0.12866	0.065536	0.030179	0.27326	0.11198	0.064348	0.11947	0.14707	0.11281	0.30056	0.12669	0.19683	0.11537	-2.6167	-2.325	-2.4917	-2.8125	-2.3896	-2.6396	-2.85	-2.2812	-3.0521	-2.375	-2.6	-2.7979	-2.0917	-2.5708	-2.5312	-2.4	236.208	125.425	398.001	395.063	165.081	253.776	364.440	366.909	89.767	378.240	248.847	419.405	360.243	221.593	243.422	390.467	0.00058942	0.00083452	0.00043168	722.7	1.9837e-05	1.143e-05	952.79	229.56	1.0103e-05	1.3741e-05	359.48	109.4	68.262	21.99	7.413e-06	41.369	0.0056872	0.0056695	0.0014337	997.78	6.6017e-05	6.0818e-05	1222.7	322.14	6.5456e-05	6.0562e-05	493.46	159.86	113.93	38.585	5.5785e-05	63.994	195.910	411.036	348.004	93.351	413.598	370.976	92.345	97.995	192.291	351.579	96.151	101.882	102.607	108.112	359.987	106.322	-8191	255	
2894.159	1	1	0	0	0.10829	0.12449	0.11267	0.078905	0.22945	0.13715	0.3155	0.21683	0.22484	0.11473	0.083957	0.086748	0.30253	0.18552	0.1564	0.15183	-2.4958	-2.3667	-2.5396	-2.9813	-2.5021	-2.6521	-2.8937	-2.3146	-2.8417	-2.3917	-2.4875	-3.0042	-2.2	-2.6125	-2.6021	-2.0375	274.289	294.365	437.305	325.031	360.770	209.136	413.044	412.249	252.930	297.074	99.141	346.410	394.982	112.797	239.906	114.370	0.00019075	0.0015241	9.5942e-05	724.3	1.9103e-05	3.6778e-06	952.31	230.84	8.1059e-06	4.1817e-06	359.58	109.21	67.274	21.904	5.6286e-06	41.397	0.0056163	0.0054766	0.0013949	1016.3	6.5347e-05	5.9249e-05	1218	331.02	6.5052e-05	6.0445e-05	494.47	164.41	113.43	38.418	5.6282e-05	66.062	218.430	282.205	101.206	93.184	358.793	309.171	92.516	97.425	92.920	121.346	96.100	102.420	102.310	108.091	243.597	106.203	-8191	255	
2894.253	1	1	0	0	0.23596	0.38823	0.080447	0.051623	0.16634	0.18684	0.09642	0.1689	0.21303	0.08236	0.14326	0.07659	0.27064	0.11114	0.19034	0.1244	-2.2542	-2.6458	-2.1479	-3.1583	-2.2104	-2.6354	-2.7458	-2.225	-2.6875	-2.7062	-2.2938	-2.875	-2.3625	-2.5021	-2.7396	-2.4854	302.381	145.634	323.113	397.854	409.713	411.967	111.967	393.009	263.879	287.264	415.318	114.351	418.182	406.475	108.955	105.731	0.00011313	0.00021481	0.00045148	723.47	1.7079e-05	1.3464e-05	953.57	230.57	1.5873e-05	9.2876e-06	361.15	109.84	68.008	21.984	2.0867e-05	41.529	0.0055328	0.0054421	0.0014284	1040.3	6.4817e-05	5.905e-05	1235.9	340.49	6.4861e-05	6.0909e-05	506.98	169.09	113.49	38.336	5.996e-05	67.433	233.806	293.703	125.924	93.180	392.782	391.033	92.677	97.743	389.443	419.303	96.229	101.937	102.952	108.116	241.347	106.175	-8191	255	
2894.327	1	1	0	0	0.11391	0.16773	0.059143	0.21683	0.10889	0.29191	0.17287	0.1769	0.12843	0.16814	0.15553	0.18081	0.12362	0.020549	0.18645	0.066672	-2.1937	-2.6854	-2.3333	-3.0125	-2.3688	-2.2833	-3.0229	-2.2125	-2.7583	-2.8688	-2.3125	-3.0458	-2.3312	-2.4646	-2.8896	-1.9958	162.798	343.483	183.876	333.150	348.662	375.177	357.560	307.817	436.751	271.486	349.173	364.056	130.751	258.787	275.704	399.269	0.00017503	0.0018758	0.00090394	720.54	2.0887e-05	1.085e-05	955.92	230.63	6.152e-06	1.2708e-05	364.28	109.26	67.436	21.9	2.228e-05	41.385	0.0053599	0.0053404	0.0015348	1046.3	6.3594e-05	5.8119e-05	1259.8	344.27	6.3742e-05	6.0653e-05	526.79	170.87	114.37	38.685	6.8404e-05	68.843	223.111	399.845	195.906	93.348	395.241	381.593	92.533	97.677	122.544	143.524	96.106	102.001	102.819	108.208	245.131	106.206	-8191	255	
2894.423	1	1	0	0	0.31703	0.06875	0.2177	0.16663	0.40396	0.047133	0.36376	0.13371	0.10526	0.087413	0.11051	0.27081	0.12043	0.017581	0.26617	0.12434	-2.3333	-2.5	-2.1292	-2.9458	-2.4396	-2.2583	-2.975	-2.4521	-2.5083	-2.8396	-2.3063	-2.7208	-2.475	-2.3146	-2.8958	-2.4167	341.740	351.826	404.011	358.279	409.912	184.094	337.829	93.249	229.316	174.587	234.419	434.189	133.559	398.783	416.750	267.026	0.00026627	0.0011974	0.00084145	718.28	6.6008e-06	2.3049e-05	960.88	229.24	7.4099e-06	1.0115e-05	362.41	108.15	67.12	21.855	1.8286e-05	40.964	0.0055734	0.005597	0.0017551	1055.3	6.5268e-05	6.0065e-05	1293.1	344.94	6.4109e-05	6.2364e-05	540.77	169.52	113.57	39.204	7.3278e-05	67.819	212.192	350.156	141.396	93.165	380.097	290.615	92.442	97.297	308.317	203.831	95.942	101.560	102.526	107.709	184.043	105.815	-8191	255	
2894.542	1	1	0	0	0.30243	0.041701	0.25358	0.13767	0.27321	0.14671	0.17314	0.12157	0.069023	0.13604	0.16789	0.11936	0.15787	0.076397	0.32818	0.14553	-2.175	-2.7583	-2.1792	-2.8937	-2.6896	-2.4104	-2.9958	-2.2938	-2.4729	-2.6458	-2.2958	-2.8708	-2.7229	-2.3667	-2.9083	-2.2188	435.987	339.711	79.700	261.430	379.567	373.958	379.553	397.617	170.179	436.556	100.867	246.892	359.291	83.847	235.658	190.813	0.00011848	0.0029282	0.00073423	712.62	1.9227e-05	2.9573e-05	952.31	228.91	4.7991e-06	2.6545e-05	359.86	106.99	66.661	21.927	1.5105e-05	41.007	0.0054987	0.0058288	0.0018696	1044.2	6.4938e-05	6.4501e-05	1313.8	344.24	6.5042e-05	6.9242e-05	555.84	169.74	114.45	41.322	7.7828e-05	68.754	199.763	128.988	141.428	93.183	366.510	256.203	92.429	97.110	310.871	227.016	96.004	102.159	102.635	107.615	363.360	106.109	-8191	255	
2894.638	1	1	0	0	0.14829	0.14767	0.11853	0.10408	0.22542	0.18644	0.21373	0.066121	0.12246	0.25469	0.22529	0.15999	0.27339	0.059879	0.19181	0.079019	-2.0125	-2.8604	-2.3604	-2.7229	-2.8438	-2.3021	-3.0229	-2.3	-2.3583	-2.7396	-2.3708	-2.6083	-2.8479	-2.4104	-2.8625	-2.6375	118.339	106.970	307.976	257.350	160.375	426.838	434.765	416.171	423.237	126.308	340.700	249.989	175.383	108.591	368.656	368.865	0.00021853	0.0028661	0.00022403	713.81	2.1765e-05	3.0259e-05	954.2	230.07	6.9842e-06	3.0412e-05	359.8	107.89	66.973	22.192	2.4072e-05	41.168	0.0057236	0.0066823	0.0020583	1072.4	7.1241e-05	7.9802e-05	1372.1	362.07	7.5016e-05	8.6962e-05	593.06	180.29	123.03	47.103	9.0796e-05	73.8	179.703	151.670	136.268	93.191	329.000	238.498	92.073	97.170	217.590	235.499	96.125	101.608	102.573	107.730	387.122	106.274	-8191	255	
2894.734	1	1	0	0	0.078178	0.28709	0.20075	0.17683	0.097776	0.072091	0.25381	0.040199	0.085059	0.10307	0.3729	0.24442	0.29779	0.11984	0.14984	0.0081154	-2.1063	-3.0708	-2.2188	-2.6396	-2.7396	-2.2938	-2.9604	-2.7	-2.2896	-3.0229	-2.4292	-2.5875	-2.9167	-2.3292	-2.8021	-2.7042	343.634	131.455	369.303	383.456	282.454	434.958	366.153	432.227	148.227	338.080	413.042	353.932	389.551	285.420	427.681	255.331	0.00060458	0.0027134	0.00064682	719.76	3.292e-05	5.7881e-05	957.06	231.01	3.4152e-05	1.5374e-05	360.57	107.97	67.603	21.468	2.5602e-05	40.276	0.0068162	0.0084276	0.0023501	1121.8	8.1132e-05	9.3859e-05	1394.1	367.46	7.9711e-05	9.2908e-05	586.71	177.74	124.29	47.629	8.6222e-05	72.129	220.575	140.691	346.740	93.228	264.090	212.669	92.398	97.323	227.599	405.956	96.023	102.066	102.417	107.336	373.895	105.954	-8191	255	
2894.830	1	1	0	0	0.027832	0.29251	0.22058	0.24957	0.031113	0.079249	0.15619	0.42613	0.05584	0.14197	0.15489	0.18056	0.15935	0.28139	0.071846	0.13584	-1.7687	-2.8812	-2.3417	-2.6396	-2.9604	-2.275	-2.6604	-2.9396	-2.1917	-3.0917	-2.5812	-2.4625	-3.0125	-2.2292	-2.8146	-2.6292	106.632	198.845	174.807	158.065	431.554	330.078	384.652	337.957	438.695	141.914	177.111	108.297	101.813	312.201	343.335	85.752	0.00074001	0.001134	0.00097471	713.66	5.329e-05	9.8598e-06	949.56	227.3	4.7031e-05	2.608e-05	356.79	105.9	66.39	21.223	1.3325e-05	39.852	0.0070101	0.0085692	0.002243	1098.6	8.4345e-05	9.4169e-05	1364.2	358.83	8.396e-05	9.2933e-05	575.76	174.65	128.6	48.258	8.7239e-05	72.263	215.991	376.977	315.578	93.141	211.067	254.625	92.342	97.393	233.356	403.763	95.700	101.719	102.859	107.968	375.915	106.144	-8191	255	
2894.951	1	1	0	0	0.19452	0.11511	0.13247	0.22312	0.2441	0.27676	0.27372	0.2418	0.13114	0.09331	0.16536	0.011178	0.34258	0.13999	0.30329	0.17566	-1.7437	-2.8063	-2.5042	-2.5187	-2.8375	-2.3271	-2.9083	-2.8833	-2.2042	-2.9292	-2.6604	-2.5021	-3.0062	-2.3625	-2.5479	-3.0062	102.859	184.770	400.129	99.981	146.934	161.524	370.180	147.512	204.434	358.729	282.305	228.859	385.228	384.069	317.500	137.699	0.00083449	0.003075	0.00028389	711.75	3.2813e-05	2.3176e-05	946.9	227.09	3.8373e-05	2.1387e-05	351.92	105.51	65.925	20.953	2.6839e-06	39.905	0.0080151	0.0089903	0.002362	1118.8	9.7724e-05	0.00010114	1390.3	369.74	9.9467e-05	0.00010037	595.2	182.62	139.9	50.213	9.3375e-05	75.423	235.884	333.372	367.335	93.001	245.784	97.804	92.096	97.798	247.053	370.389	95.915	101.832	102.379	108.535	419.101	106.428	-8191	255	
2895.022	1	1	0	0	0.11176	0.079626	0.31479	0.14826	0.23737	0.28476	0.27806	0.09968	0.29942	0.085903	0.14425	0.098553	0.19755	0.084716	0.39527	0.050409	-1.7917	-2.7812	-2.6562	-2.2458	-2.9771	-2.3229	-2.5604	-2.8875	-2.2458	-2.6854	-2.9083	-2.1667	-3.0354	-2.5375	-2.4062	-2.9938	240.098	243.043	97.930	132.546	361.988	313.774	342.777	341.693	101.822	113.536	389.409	142.924	272.932	228.569	255.273	316.962	0.00087552	0.0019579	0.00064929	717.59	2.7629e-05	1.0795e-05	945.07	229.8	2.1342e-05	2.225e-05	356.58	107.31	65.569	21.164	5.6731e-06	41.016	0.0090954	0.0091672	0.0023923	1141.6	0.0001038	9.8794e-05	1377.2	375.72	0.00010283	9.5107e-05	583.95	184.35	138.34	47.812	8.5125e-05	75.438	211.172	337.754	241.662	93.337	245.733	94.035	92.203	97.324	231.176	357.632	95.787	101.830	102.660	108.084	348.830	106.174	-8191	255	
#DATA ENDS
