BOXY.EXE: ISS Imagent and Oximeter Data Acquisition Program Version 0.80
Ascii Record File

#ACQ INFORMATION
2  Detector Channels 
16  External MUX Channels 
1  Auxiliary Channels 
5000  Waveform (CCF) Frequency (Hz)
1  Waveforms Skipped 
30  Waveforms Averaged 
1  Cycles Averaged 
16  Acquisitions per Waveform 
10.0806  Updata Rate (Hz) 

#FILE INFORMATION
TRUE -- External MUX Channel results are PARSED.
FALSE -- AC DC and Phase are NOT grouped.
TRUE -- Companion Program Settings File CREATED.
FALSE -- AC data not excluded
FALSE -- DC data not excluded
FALSE -- Phase data not excluded
FALSE -- Auxillary Chn. data not excluded
Tab delimiters

#CALIBRATION STATE
TRUE -- Waveform Calibration Values APPLIED.


#AUX CALIBRATION VALUES
Val Type	aux-1	

Term	1.0000e+00	
Factor	0.0000e+00	


#WF CALIBRATION VALUES
A = Detector Channel
Val Type	A-AC1	A-AC2	A-AC3	A-AC4	A-AC5	A-AC6	A-AC7	A-AC8	A-AC9	A-AC10	A-AC11	A-AC12	A-AC13	A-AC14	A-AC15	A-AC16	A-DC1	A-DC2	A-DC3	A-DC4	A-DC5	A-DC6	A-DC7	A-DC8	A-DC9	A-DC10	A-DC11	A-DC12	A-DC13	A-DC14	A-DC15	A-DC16	A-Ph1	A-Ph2	A-Ph3	A-Ph4	A-Ph5	A-Ph6	A-Ph7	A-Ph8	A-Ph9	A-Ph10	A-Ph11	A-Ph12	A-Ph13	A-Ph14	A-Ph15	A-Ph16	

Term	0.00000e+00	0.00000e+00	0.00000e+00	0.00000e+00	0.00000e+00	0.00000e+00	0.00000e+00	0.00000e+00	0.00000e+00	0.00000e+00	0.00000e+00	0.00000e+00	0.00000e+00	0.00000e+00	0.00000e+00	0.00000e+00	0.00000e+00	0.00000e+00	0.00000e+00	0.00000e+00	0.00000e+00	0.00000e+00	0.00000e+00	0.00000e+00	0.00000e+00	0.00000e+00	0.00000e+00	0.00000e+00	0.00000e+00	0.00000e+00	0.00000e+00	0.00000e+00	0.00000e+00	0.00000e+00	0.00000e+00	0.00000e+00	0.00000e+00	0.00000e+00	0.00000e+00	0.00000e+00	0.00000e+00	0.00000e+00	0.00000e+00	0.00000e+00	0.00000e+00	0.00000e+00	0.00000e+00	0.00000e+00	
Factor	1.00000e+00	1.00000e+00	1.00000e+00	1.00000e+00	1.00000e+00	1.00000e+00	1.00000e+00	1.00000e+00	1.00000e+00	1.00000e+00	1.00000e+00	1.00000e+00	1.00000e+00	1.00000e+00	1.00000e+00	1.00000e+00	1.00000e+00	1.00000e+00	1.00000e+00	1.00000e+00	1.00000e+00	1.00000e+00	1.00000e+00	1.00000e+00	1.00000e+00	1.00000e+00	1.00000e+00	1.00000e+00	1.00000e+00	1.00000e+00	1.00000e+00	1.00000e+00	X	X	X	X	X	X	X	X	X	X	X	X	X	X	X	X	

B = Detector Channel
Val Type	B-AC1	B-AC2	B-AC3	B-AC4	B-AC5	B-AC6	B-AC7	B-AC8	B-AC9	B-AC10	B-AC11	B-AC12	B-AC13	B-AC14	B-AC15	B-AC16	B-DC1	B-DC2	B-DC3	B-DC4	B-DC5	B-DC6	B-DC7	B-DC8	B-DC9	B-DC10	B-DC11	B-DC12	B-DC13	B-DC14	B-DC15	B-DC16	B-Ph1	B-Ph2	B-Ph3	B-Ph4	B-Ph5	B-Ph6	B-Ph7	B-Ph8	B-Ph9	B-Ph10	B-Ph11	B-Ph12	B-Ph13	B-Ph14	B-Ph15	B-Ph16	

Term	0.00000e+00	0.00000e+00	0.00000e+00	0.00000e+00	0.00000e+00	0.00000e+00	0.00000e+00	0.00000e+00	0.00000e+00	0.00000e+00	0.00000e+00	0.00000e+00	0.00000e+00	0.00000e+00	0.00000e+00	0.00000e+00	0.00000e+00	0.00000e+00	0.00000e+00	0.00000e+00	0.00000e+00	0.00000e+00	0.00000e+00	0.00000e+00	0.00000e+00	0.00000e+00	0.00000e+00	0.00000e+00	0.00000e+00	0.00000e+00	0.00000e+00	0.00000e+00	-5.52834e+01	-1.33387e+02	-1.26565e+02	-1.82540e+02	-5.55431e+01	-6.43973e+01	-1.56586e+02	-1.62015e+02	-4.36106e+01	-7.42587e+01	-1.74623e+02	-1.70094e+02	-1.82744e+02	-1.76742e+02	-5.93975e+01	-1.49658e+02	
Factor	1.78881e-05	1.49563e-04	4.68658e-05	1.78184e-01	1.61833e-06	1.89682e-06	1.77342e-01	5.82412e-02	1.18634e-06	1.65967e-06	8.82662e-02	2.80200e-02	2.53411e-02	8.65087e-03	1.41064e-06	1.27050e-02	4.88401e-06	6.02286e-06	1.67489e-06	8.81332e-02	6.42629e-08	6.60018e-08	8.18783e-02	2.88789e-02	6.38437e-08	6.60667e-08	4.22472e-02	1.34971e-02	1.26457e-02	4.32564e-03	6.44515e-08	6.12258e-03	X	X	X	X	X	X	X	X	X	X	X	X	X	X	X	X	



#DISTANCE SETTINGS
A = Detector Channel
A-1	A-2	A-3	A-4	A-5	A-6	A-7	A-8	A-9	A-10	A-11	A-12	A-13	A-14	A-15	A-16	

2.5000e+00	3.0000e+00	2.5000e+00	3.0000e+00	2.0000e+00	3.0000e+00	1.5000e+00	3.0000e+00	3.0000e+00	3.0000e+00	3.0000e+00	3.0000e+00	3.0000e+00	3.0000e+00	1.5000e+00	3.0000e+00	

B = Detector Channel
B-1	B-2	B-3	B-4	B-5	B-6	B-7	B-8	B-9	B-10	B-11	B-12	B-13	B-14	B-15	B-16	

1.0000e+01	1.0000e+01	1.0000e+01	1.4400e+00	1.0000e+01	1.0000e+01	1.5100e+00	1.9400e+00	1.0000e+01	1.0000e+01	1.9900e+00	2.4900e+00	2.4100e+00	2.9000e+00	1.0000e+01	2.9800e+00	




#DATA BEGINS
time	group	step	mark	flag	A-AC1	A-AC2	A-AC3	A-AC4	A-AC5	A-AC6	A-AC7	A-AC8	A-AC9	A-AC10	A-AC11	A-AC12	A-AC13	A-AC14	A-AC15	A-AC16	A-DC1	A-DC2	A-DC3	A-DC4	A-DC5	A-DC6	A-DC7	A-DC8	A-DC9	A-DC10	A-DC11	A-DC12	A-DC13	A-DC14	A-DC15	A-DC16	A-Ph1	A-Ph2	A-Ph3	A-Ph4	A-Ph5	A-Ph6	A-Ph7	A-Ph8	A-Ph9	A-Ph10	A-Ph11	A-Ph12	A-Ph13	A-Ph14	A-Ph15	A-Ph16	B-AC1	B-AC2	B-AC3	B-AC4	B-AC5	B-AC6	B-AC7	B-AC8	B-AC9	B-AC10	B-AC11	B-AC12	B-AC13	B-AC14	B-AC15	B-AC16	B-DC1	B-DC2	B-DC3	B-DC4	B-DC5	B-DC6	B-DC7	B-DC8	B-DC9	B-DC10	B-DC11	B-DC12	B-DC13	B-DC14	B-DC15	B-DC16	B-Ph1	B-Ph2	B-Ph3	B-Ph4	B-Ph5	B-Ph6	B-Ph7	B-Ph8	B-Ph9	B-Ph10	B-Ph11	B-Ph12	B-Ph13	B-Ph14	B-Ph15	B-Ph16	aux-1	digaux	

579.377	1	1	0	256	0.25749	0.16696	0.10731	0.19879	0.13638	0.17854	0.36045	0.13776	0.13356	0.19566	0.074793	0.24341	0.14078	0.19092	0.077198	0.035407	-4.1562	-5.0521	-4.9062	-4.8438	-5.0146	-4.8917	-5.0104	-5.4021	-4.3396	-5.0021	-5.1062	-4.6937	-5.2583	-4.7792	-4.6479	-5.3771	248.493	272.964	398.410	346.069	304.188	408.233	381.550	102.158	384.859	191.640	431.786	240.087	423.876	361.389	296.917	110.434	0.00055483	0.0003882	0.0001499	1507.6	6.0724e-06	2.5098e-06	1503.7	405.21	7.9401e-06	8.7578e-06	457.01	153.83	135.6	46.193	3.7974e-06	56.076	0.00067639	0.00070152	0.00018757	1534	7.5858e-06	7.5128e-06	1523.3	413.82	7.51e-06	7.6007e-06	467.85	157.54	138.76	47.515	7.7081e-06	57.744	238.265	149.632	193.755	89.586	223.147	249.170	89.331	94.104	280.138	231.471	93.584	98.341	98.662	102.904	221.362	102.033	-8191	255	
579.473	1	1	0	0	0.14506	0.15646	0.022503	0.023441	0.16157	0.22103	0.10325	0.06109	0.087569	0.10902	0.10405	0.2915	0.22994	0.29678	0.13879	0.31522	-4.2	-4.875	-5.0646	-4.7146	-5.025	-4.8729	-4.8333	-5.3604	-4.5167	-4.8063	-5.1292	-4.7104	-5.0354	-4.9542	-4.575	-5.3917	157.878	142.405	373.479	88.160	110.153	325.018	405.993	326.944	101.524	237.416	338.752	394.664	102.377	103.079	128.094	344.282	0.00057209	0.00062295	0.00012259	1504.5	5.2288e-06	4.5202e-06	1502.3	404.57	5.9379e-06	5.5861e-06	459.66	154.08	135.08	45.977	7.162e-06	56.362	0.00068555	0.00071417	0.00019573	1533	7.6726e-06	7.6426e-06	1524	413.73	7.5544e-06	7.5995e-06	468.6	157.64	138.43	47.453	7.6002e-06	57.904	240.418	164.078	187.682	89.398	254.159	233.132	89.406	94.168	259.658	224.361	93.530	98.594	98.714	102.983	222.504	102.011	-8191	255	
579.569	1	1	0	0	0.097237	0.22226	0.085069	0.14702	0.082709	0.30241	0.091989	0.32924	0.20387	0.14691	0.24171	0.26365	0.12077	0.14752	0.24769	0.1271	-4.3417	-4.6333	-5.0792	-4.7125	-4.9417	-4.8917	-4.9083	-5.3292	-4.7333	-4.975	-5.125	-4.5125	-5.1521	-5.0667	-4.5563	-5.3187	428.433	179.915	340.632	432.584	300.367	182.979	128.424	432.180	331.792	177.103	387.398	411.576	359.586	431.028	95.909	386.158	0.00056271	0.00058505	0.00010513	1507.7	5.1734e-06	3.8822e-06	1501.3	405.09	5.694e-06	5.0529e-06	458.74	153.96	135.42	45.979	8.7513e-06	56.222	0.00068316	0.00070377	0.0001943	1532.8	7.6027e-06	7.5208e-06	1523.1	413.69	7.4829e-06	7.5854e-06	467.98	157.62	138.63	47.404	7.3242e-06	57.84	242.777	166.990	139.618	89.570	235.390	204.653	89.526	94.261	270.111	177.745	93.611	98.533	98.709	103.014	235.392	102.266	-8191	255	
579.665	1	1	0	0	0.050446	0.26615	0.019541	0.16628	0.18669	0.079807	0.18261	0.15052	0.09299	0.15202	0.21317	0.24646	0.22162	0.23748	0.11162	0.032276	-4.4729	-4.6438	-5.0604	-4.7146	-4.8667	-5.0437	-4.7146	-5.3292	-4.6771	-4.7271	-5.2479	-4.5271	-5.1229	-5.0625	-4.5771	-5.2208	325.553	388.552	132.237	406.710	213.462	373.211	415.012	420.153	402.363	344.027	368.783	370.086	334.062	404.099	373.955	249.883	0.0005845	0.0003557	0.0001053	1508	7.7185e-06	6.5006e-06	1497.4	404.68	4.1217e-06	3.5343e-06	457.85	154.42	135.1	45.983	5.7511e-06	56.019	0.00066936	0.00066147	0.00018867	1530.5	7.2573e-06	7.1802e-06	1520	413.29	7.0921e-06	7.1347e-06	467.56	157.48	138.34	47.367	6.8991e-06	57.712	238.416	169.185	115.801	89.631	251.962	243.639	89.293	94.344	282.836	223.239	93.352	98.309	98.864	103.001	251.171	102.028	-8191	255	
579.761	1	1	0	0	0.046679	0.13029	0.064322	0.18909	0.038124	0.40652	0.28429	0.088113	0.066128	0.081229	0.28082	0.19953	0.27816	0.26701	0.2176	0.069937	-4.4854	-4.5875	-5.1958	-4.7688	-4.9625	-5.1125	-4.7521	-5.2354	-4.9479	-4.6667	-5.2854	-4.8333	-4.9354	-5.1687	-4.4604	-5.0896	401.529	432.079	230.426	380.136	276.289	283.754	76.688	386.456	293.788	335.331	114.005	415.222	409.440	380.738	433.111	96.625	0.00058751	0.00081606	0.00011643	1504.8	9.2537e-06	3.7913e-06	1493.3	403.06	5.1418e-06	6.1894e-06	455.13	153.37	135.16	46.015	5.6617e-06	56.329	0.00063979	0.00064904	0.00018016	1526.7	7.0728e-06	6.9258e-06	1514.9	412.57	6.8999e-06	6.948e-06	466.34	157.01	138.38	47.415	6.9028e-06	57.775	241.334	189.042	178.298	89.474	240.282	196.406	89.493	94.217	256.092	214.759	93.606	98.206	98.836	103.120	230.591	102.259	-8191	255	
579.882	1	1	0	0	0.20403	0.12973	0.046609	0.2492	0.081273	0.10404	0.44991	0.056917	0.085345	0.26671	0.34161	0.11074	0.31985	0.21157	0.15942	0.1074	-4.5917	-4.3875	-5.1833	-4.7458	-4.8292	-5.1396	-4.7458	-5.0271	-4.9583	-4.4688	-5.2292	-4.8688	-4.8396	-5.2729	-4.4583	-4.9792	423.056	131.122	104.331	430.770	366.746	362.678	370.450	255.456	146.886	341.450	387.154	128.346	356.232	98.660	319.763	310.097	0.0005482	0.0006856	0.00022736	1500.1	6.5294e-06	3.9147e-06	1492.5	404.5	5.6731e-06	5.5173e-06	456.11	153.74	134.67	45.8	5.1344e-06	56.126	0.00062563	0.00063762	0.00017692	1525.6	6.952e-06	6.9251e-06	1513.6	412.66	6.8499e-06	6.9501e-06	466.98	157.06	138.18	47.393	6.9903e-06	57.769	238.520	148.972	161.585	89.521	204.313	196.379	89.220	94.240	257.783	237.141	93.551	98.483	98.821	103.020	234.932	102.288	-8191	255	
579.978	1	1	0	0	0.14436	0.061365	0.29521	0.33084	0.14209	0.053404	0.24852	0.22408	0.11589	0.24966	0.2327	0.2543	0.037976	0.14711	0.0159	0.36302	-4.6396	-4.525	-5.1542	-5.1062	-4.7479	-5.1438	-4.8021	-5.1104	-4.9958	-4.7042	-5.2583	-4.8979	-4.825	-5.2458	-4.7625	-5.0604	247.497	197.129	251.779	377.295	84.651	345.879	341.943	383.082	324.134	339.431	392.253	411.833	352.463	105.760	262.004	341.210	0.00057875	0.0006154	0.00014732	1503.2	5.0955e-06	6.9921e-06	1491.7	404.64	6.9718e-06	4.2635e-06	456.21	153.25	135.28	45.988	7.4452e-06	56.015	0.00063654	0.00063946	0.00017899	1525	6.9771e-06	6.883e-06	1514.1	413.2	6.7766e-06	6.9663e-06	466.56	157.29	138.36	47.42	6.9394e-06	57.663	240.613	134.966	156.602	89.555	244.341	245.648	89.201	94.193	247.035	205.376	93.422	98.187	98.796	103.046	241.525	102.124	-8191	255	
580.074	1	1	0	0	0.051956	0.16886	0.10015	0.039725	0.29842	0.054178	0.30335	0.078341	0.10949	0.18613	0.19386	0.031972	0.12129	0.2245	0.1366	0.15233	-4.7771	-4.4021	-5.0375	-5.0813	-4.7396	-5.2146	-4.8438	-4.9042	-5.1438	-4.5062	-5.1104	-5.1708	-4.6729	-5.3708	-4.7333	-4.9146	170.891	111.933	256.232	373.906	294.916	228.246	365.603	376.201	175.403	416.353	323.127	417.878	235.179	387.928	352.984	90.927	0.00055848	0.00044388	0.00021453	1498.3	7.136e-06	4.9666e-06	1491.4	404.75	4.6438e-06	9.521e-06	456.88	153.16	135.17	45.973	4.0149e-06	56.074	0.00062598	0.00062975	0.00017579	1520.9	6.8017e-06	6.7688e-06	1511.3	412.48	6.5974e-06	6.5641e-06	465.95	156.93	138.07	47.316	6.4645e-06	57.581	244.519	194.574	174.203	89.593	243.609	210.696	89.468	94.382	258.982	203.166	93.500	98.246	98.921	102.995	238.569	102.146	-8191	255	
580.171	1	1	0	0	0.095003	0.11495	0.12181	0.33834	0.18812	0.12945	0.36635	0.031801	0.14592	0.23986	0.10466	0.16893	0.10385	0.062209	0.11041	0.26272	-4.7833	-4.4875	-4.9479	-5.2479	-4.5813	-5.0854	-4.8812	-4.9458	-5.0646	-4.5521	-5.0979	-5.1708	-4.6271	-5.2708	-4.8458	-4.7583	365.297	386.894	188.606	354.708	345.125	264.165	369.611	297.650	349.496	138.316	396.778	89.153	362.259	201.063	358.067	113.819	0.00057474	0.0004583	0.00017812	1494.5	8.602e-06	3.2235e-06	1488.9	403.57	4.5367e-06	4.4873e-06	457.34	153.8	135.64	46.016	4.3057e-06	55.995	0.00059848	0.00059096	0.00016675	1517.5	6.3705e-06	6.3788e-06	1507.9	412.15	6.3168e-06	6.402e-06	466.15	157.04	138.18	47.34	6.3286e-06	57.614	244.247	150.360	161.787	89.684	239.234	249.016	89.571	94.328	252.309	210.036	93.476	98.605	98.901	103.120	261.986	102.190	-8191	255	
580.267	1	1	0	0	0.053053	0.20794	0.081901	0.34633	0.35465	0.19857	0.19117	0.1775	0.064611	0.26298	0.11316	0.14842	0.049015	0.16263	0.10382	0.12377	-4.6604	-4.5854	-4.8875	-5.2917	-4.5625	-5.0854	-5.0771	-4.9	-5.15	-4.6667	-5.0146	-5.0729	-4.7021	-5.0958	-4.7646	-4.7125	93.089	191.865	303.195	393.377	404.627	170.660	335.320	400.370	396.735	131.557	405.329	392.858	271.962	392.095	214.561	92.955	0.00052396	0.0006083	9.2215e-05	1497	8.492e-06	3.9493e-06	1487.1	403.28	5.7863e-06	5.1048e-06	455.8	153.85	135.6	45.921	8.3162e-06	56.069	0.00059187	0.00058896	0.00016778	1520.5	6.4268e-06	6.4992e-06	1508.7	411.9	6.3612e-06	6.4008e-06	465.95	156.94	138.2	47.354	6.2664e-06	57.616	241.394	160.687	192.681	89.670	239.431	206.336	89.504	94.173	252.720	210.763	93.640	98.348	98.837	102.875	230.483	102.213	-8191	255	
580.363	1	1	0	0	0.060817	0.10638	0.15841	0.2178	0.11375	0.044945	0.22609	0.20597	0.21374	0.074006	0.11235	0.20704	0.20666	0.3326	0.17686	0.21472	-4.8479	-4.5896	-4.8625	-5.3583	-4.6833	-4.8792	-5.2083	-4.7917	-5.0792	-4.7979	-5	-5.2688	-4.6104	-5.3	-4.8688	-4.7	282.967	311.299	429.794	385.242	168.842	222.038	386.044	378.782	256.952	355.348	136.847	335.750	411.564	93.714	202.395	418.184	0.00055869	0.00069761	0.00016157	1488.1	8.9547e-06	6.2431e-06	1489	403.57	4.7861e-06	6.0007e-06	456.01	153	135.38	45.844	4.4431e-06	55.744	0.0005872	0.00058358	0.00015873	1517.6	6.3845e-06	6.3972e-06	1507.6	411.75	6.4132e-06	6.4204e-06	465.89	156.76	138.16	47.36	6.4625e-06	57.601	241.419	172.937	155.383	89.641	258.507	221.329	89.417	94.445	267.659	237.569	93.614	98.398	98.792	103.158	248.102	102.125	-8191	255	
580.482	1	1	0	0	0.2169	0.099696	0.065005	0.48149	0.087962	0.062531	0.25599	0.10695	0.17803	0.090616	0.125	0.16666	0.26335	0.11949	0.047139	0.085915	-4.6979	-4.8271	-4.6625	-5.3354	-4.5708	-5.0479	-5.2146	-4.7521	-5.1729	-4.7125	-4.8313	-5.3167	-4.7125	-5.1375	-4.9583	-4.7417	274.454	384.235	261.392	378.578	321.229	389.714	421.810	96.887	360.608	121.474	384.999	392.707	182.659	398.739	172.107	86.674	0.00058377	0.00050709	0.00017846	1496	5.4979e-06	4.771e-06	1489.2	402.21	5.0251e-06	8.7738e-06	457.05	153.76	134.82	45.803	6.6127e-06	56.314	0.00060123	0.00059144	0.00016625	1520.3	6.6054e-06	6.5371e-06	1508.6	411.62	6.5191e-06	6.5256e-06	465.93	157.17	138.13	47.31	6.3565e-06	57.598	244.763	165.421	139.172	89.461	270.792	248.107	89.320	94.411	254.125	214.669	93.564	98.461	98.878	102.940	232.365	102.038	-8191	255	
580.578	1	1	0	0	0.10482	0.034319	0.085447	0.51532	0.09734	0.10481	0.28522	0.23195	0.07209	0.069842	0.12847	0.15324	0.11004	0.10368	0.15866	0.19329	-4.75	-4.7875	-4.6312	-5.3667	-4.6	-4.8375	-5.1958	-4.6125	-4.9583	-4.8271	-4.7542	-5.2375	-4.7271	-4.9542	-5.1604	-4.7937	402.853	435.813	184.524	387.340	292.673	108.285	368.057	279.300	96.563	155.788	135.399	367.744	375.394	347.632	420.663	401.611	0.00056026	0.00061275	0.0001793	1491.8	6.1333e-06	6.7305e-06	1482.7	403.55	7.5151e-06	5.2894e-06	455.95	153.64	134.77	46.041	8.0787e-06	55.92	0.00059405	0.00059403	0.00016639	1516.9	6.4308e-06	6.4734e-06	1505.9	411.61	6.4148e-06	6.3976e-06	465.91	157.11	138.07	47.397	6.5156e-06	57.58	239.248	141.301	168.784	89.548	230.342	233.418	89.377	94.124	252.386	210.142	93.530	98.384	98.732	102.991	235.188	102.192	-8191	255	
580.674	1	1	0	0	0.11489	0.10163	0.08619	0.087344	0.35389	0.09395	0.12347	0.098498	0.20527	0.030816	0.15366	0.02761	0.12369	0.096299	0.06489	0.079432	-4.7646	-4.8208	-4.4771	-5.3458	-4.4958	-4.8125	-5.3167	-4.55	-5.0229	-5.0375	-4.6854	-5.2562	-4.9583	-4.7604	-5.0479	-4.6542	345.411	338.732	159.935	432.003	415.027	425.255	367.579	262.084	335.898	210.575	359.712	403.491	153.506	130.166	317.380	126.134	0.00058178	0.0003477	0.00019561	1496.3	8.1884e-06	6.9281e-06	1492.7	403.34	4.933e-06	3.212e-06	456.03	153.02	135.13	46.022	4.8673e-06	55.835	0.00060221	0.00060684	0.00016736	1520.5	6.3931e-06	6.4717e-06	1510.1	412.22	6.5651e-06	6.5233e-06	466.26	156.81	138.17	47.433	6.4774e-06	57.612	242.967	159.519	168.975	89.421	221.849	213.923	89.369	94.261	256.018	178.298	93.442	98.416	98.667	103.019	236.007	102.115	-8191	255	
580.770	1	1	0	0	0.18885	0.30805	0.22053	0.33389	0.2833	0.080844	0.37172	0.34788	0.11341	0.14399	0.073213	0.019623	0.27867	0.045389	0.077911	0.099264	-4.7063	-5.0833	-4.3688	-5.3562	-4.7292	-4.7583	-5.3333	-4.7083	-4.8562	-5.0437	-4.5917	-5.3354	-4.7792	-4.6646	-5.0437	-4.675	221.878	428.924	332.062	373.077	417.307	184.163	414.787	390.749	288.603	307.403	99.472	327.068	99.098	139.773	417.001	373.517	0.00054065	0.00044431	0.00012874	1492.2	8.2607e-06	5.8346e-06	1489.3	403.97	4.8913e-06	4.7104e-06	456.34	153.35	134.89	45.96	4.9638e-06	55.953	0.00060017	0.00059202	0.00016355	1517.6	6.4784e-06	6.4946e-06	1509.8	412.06	6.4241e-06	6.3241e-06	465.67	156.99	138.11	47.392	6.4657e-06	57.504	244.223	169.982	186.982	89.536	252.227	210.876	89.464	94.349	249.256	239.748	93.659	98.154	98.798	103.007	222.426	102.251	-8191	255	
580.866	1	1	0	0	0.1491	0.18486	0.22161	0.3312	0.054294	0.075977	0.16693	0.31798	0.11678	0.15507	0.17037	0.18248	0.14693	0.060986	0.12228	0.33969	-4.6813	-5.1521	-4.4313	-5.2354	-4.8792	-4.6792	-5.5479	-4.7438	-4.8833	-5.1625	-4.6833	-5.1396	-5.0417	-4.6729	-5.0396	-4.8125	162.494	223.035	134.627	402.291	108.402	285.421	410.511	380.806	400.376	85.283	404.660	105.587	434.909	310.321	178.677	426.164	0.00054808	0.0002931	0.00019906	1492.4	6.9106e-06	9.1943e-06	1492.4	403.26	6.1004e-06	6.6719e-06	457.66	154.07	135.34	46.073	7.7326e-06	56.055	0.00059558	0.0005953	0.00016623	1518.5	6.4266e-06	6.5175e-06	1509.6	411.74	6.5353e-06	6.5827e-06	466.29	157.16	138.28	47.463	6.5923e-06	57.611	239.346	125.834	203.396	89.527	230.019	216.096	89.470	94.317	254.608	268.195	93.308	98.308	98.814	102.996	237.997	102.169	-8191	255	
580.962	1	1	0	0	0.17325	0.12842	0.12929	0.067867	0.090233	0.07263	0.18651	0.2176	0.035028	0.061826	0.030749	0.12981	0.49019	0.12399	0.069373	0.14386	-4.5875	-5.1188	-4.5938	-5.1396	-4.8896	-4.5896	-5.3708	-4.8667	-4.7146	-5.1521	-4.5979	-5.1458	-5.1771	-4.6292	-5.2188	-4.9542	338.977	298.590	271.166	421.495	307.323	371.433	371.375	387.115	224.476	327.425	226.258	290.732	433.853	396.227	80.160	334.136	0.00058027	0.00032907	0.00014296	1495	8.5903e-06	5.0853e-06	1488.6	404.54	5.3565e-06	6.1656e-06	456.53	154.12	135.01	46.084	5.1407e-06	56.142	0.00060844	0.00059143	0.00016599	1518.5	6.4583e-06	6.4177e-06	1507.9	412.33	6.3999e-06	6.5251e-06	465.97	157.2	138.23	47.402	6.4008e-06	57.641	239.134	157.901	172.121	89.465	265.578	268.802	89.520	94.226	263.333	224.518	93.715	98.304	98.909	103.044	215.633	101.900	-8191	255	
581.059	1	1	0	0	0.092495	0.2687	0.084766	0.16238	0.13057	0.13997	0.32516	0.15335	0.21507	0.30917	0.15364	0.161	0.15658	0.22817	0.18034	0.13222	-4.4125	-5.1438	-4.5188	-5.0875	-5.075	-4.5917	-5.2979	-4.9688	-4.5813	-5.1479	-4.6667	-4.9688	-5.2438	-4.6042	-5.0958	-5.0188	326.124	143.717	130.464	421.439	243.489	208.403	403.537	397.584	142.550	334.416	77.497	365.736	420.992	136.547	109.792	203.418	0.00054893	0.0006751	0.0001931	1489.4	7.8954e-06	5.484e-06	1488.7	402.62	4.6865e-06	6.5153e-06	455.88	153.67	135.27	46.164	5.4957e-06	56.058	0.00060234	0.0005861	0.00016263	1515.7	6.4102e-06	6.556e-06	1508.4	411.47	6.468e-06	6.448e-06	465.44	157.11	138.35	47.46	6.4332e-06	57.554	241.800	155.733	170.922	89.601	228.908	225.704	89.488	94.163	240.043	207.450	93.484	98.556	98.664	103.030	233.041	102.089	-8191	255	
581.177	1	1	0	0	0.10462	0.062457	0.045492	0.45304	0.14855	0.047909	0.30338	0.16122	0.14411	0.037108	0.055614	0.21241	0.10849	0.22676	0.17726	0.33103	-4.3292	-5.0042	-4.5146	-5.2146	-5.025	-4.5521	-5.3479	-5.1604	-4.65	-5.1	-4.7833	-4.9208	-5.2771	-4.7125	-5.0271	-5.0083	178.214	117.199	287.765	393.113	413.210	385.740	399.652	294.159	110.326	401.687	370.261	374.908	429.971	379.126	323.649	347.575	0.00054043	0.00056418	0.00014968	1495.7	8.4156e-06	7.0248e-06	1485.5	403.62	3.766e-06	3.0001e-06	456.28	153.13	135.01	46.07	7.7908e-06	55.799	0.00059574	0.00059158	0.00016294	1517.8	6.3316e-06	6.3513e-06	1504.4	412.22	6.4092e-06	6.4505e-06	466.27	156.92	138.19	47.47	6.3855e-06	57.534	241.055	161.711	167.894	89.526	249.439	243.266	89.429	94.237	226.341	246.667	93.595	98.232	98.648	103.016	257.226	102.084	-8191	255	
581.274	1	1	0	0	0.082349	0.13534	0.031193	0.247	0.13019	0.13259	0.295	0.19826	0.11627	0.13179	0.044931	0.24536	0.25144	0.18358	0.10822	0.21498	-4.2458	-5.1083	-4.7063	-5.0458	-5.2604	-4.6562	-5.05	-5.1292	-4.3583	-5.0396	-4.9375	-4.8	-5.1438	-4.6458	-4.9417	-5.1188	206.884	167.083	431.666	138.853	219.989	435.616	373.130	429.689	341.861	418.605	394.919	328.766	308.264	78.096	414.885	364.455	0.00053813	0.00058842	0.00013596	1486.4	6.2612e-06	1.0288e-05	1488.9	404.13	4.697e-06	4.8173e-06	457.77	153.45	135.23	46.135	3.8711e-06	56.1	0.0005928	0.00058836	0.00016143	1515.8	6.4675e-06	6.4262e-06	1507.5	412.03	6.3282e-06	6.5326e-06	466.26	157.12	138.22	47.446	6.3623e-06	57.612	241.576	184.987	208.007	89.553	234.962	226.536	89.349	94.251	275.955	191.194	93.496	98.249	98.815	102.964	246.672	102.073	-8191	255	
581.347	1	1	0	0	0.096311	0.12949	0.13034	0.25927	0.19917	0.070245	0.07093	0.14278	0.14894	0.073022	0.20719	0.17291	0.037372	0.2175	0.095276	0.33934	-4.1354	-4.8833	-4.85	-4.8458	-5.1792	-4.6813	-5.0542	-5.1396	-4.5833	-4.9958	-5.0792	-4.8104	-5.3083	-4.725	-4.8104	-5.2708	361.116	356.699	340.847	405.635	389.846	423.389	77.780	80.596	289.561	208.279	383.109	95.864	402.302	398.202	174.285	406.325	0.00053677	0.00059622	0.00019699	1492.8	6.521e-06	6.4686e-06	1486.5	403.31	7.1331e-06	7.3695e-06	456.59	153.55	135.19	45.772	6.8927e-06	56.108	0.00058899	0.00060303	0.00016235	1514.8	6.4023e-06	6.3568e-06	1505.1	411.64	6.2999e-06	6.3125e-06	465.3	156.8	138.06	47.359	6.4245e-06	57.624	243.860	166.753	179.769	89.620	244.643	230.443	89.324	94.364	266.383	200.575	93.346	98.321	98.645	102.980	217.608	102.355	-8191	255	
581.443	1	1	0	0	0.041415	0.076575	0.03365	0.23779	0.1894	0.28143	0.17765	0.25457	0.12733	0.086304	0.16166	0.1876	0.16101	0.22794	0.14853	0.074616	-4.2125	-5.0521	-4.8771	-4.7646	-5.1292	-4.75	-4.8833	-5.2312	-4.5125	-5.1146	-4.9563	-4.7229	-5.4125	-4.875	-4.9	-5.1417	199.333	220.574	278.036	411.881	367.781	104.746	334.486	107.990	319.763	314.981	135.288	142.455	420.574	420.666	293.287	97.365	0.00057951	0.00067137	0.00023668	1489.6	7.1255e-06	8.4527e-06	1486.2	403.51	5.957e-06	4.3026e-06	455.76	154.07	135.22	45.995	3.3972e-06	55.96	0.00058329	0.00058786	0.00016053	1514.5	6.4627e-06	6.3979e-06	1505.3	412.25	6.2954e-06	6.4337e-06	465.31	157.04	138.29	47.401	6.3326e-06	57.497	240.395	136.815	171.392	89.559	256.894	228.836	89.501	94.374	276.747	203.580	93.601	98.543	98.712	102.915	252.080	102.218	-8191	255	
581.562	1	1	0	0	0.080266	0.063142	0.17479	0.22648	0.22287	0.051836	0.36615	0.20377	0.10196	0.088235	0.27535	0.14224	0.16303	0.30604	0.16791	0.20322	-4.4396	-4.9625	-4.8708	-4.7562	-5.2396	-4.9125	-4.8479	-5.3333	-4.5167	-4.9313	-5.1937	-4.65	-5.1917	-4.8958	-4.6583	-5.2375	346.505	384.480	382.926	100.024	254.319	131.202	371.222	428.092	179.523	152.754	410.456	367.162	347.417	403.718	394.924	350.673	0.00055892	0.00055599	0.00025113	1491.8	6.3224e-06	5.5492e-06	1488.2	403.46	5.4774e-06	6.197e-06	456.01	153.49	135.56	45.979	5.8492e-06	56.178	0.00058631	0.00058055	0.00015992	1516.5	6.3703e-06	6.3602e-06	1507.1	412.03	6.3344e-06	6.3977e-06	465.29	156.76	138.23	47.38	6.266e-06	57.656	240.910	148.677	175.331	89.772	266.219	247.235	89.250	94.445	264.207	237.241	93.572	98.117	98.957	103.053	250.063	102.182	-8191	255	
581.658	1	1	0	0	0.10483	0.16803	0.14723	0.16079	0.15846	0.078585	0.11646	0.27315	0.11575	0.19762	0.17636	0.13725	0.015221	0.20765	0.096163	0.036101	-4.3417	-4.8042	-5.0917	-4.6708	-5.1896	-4.7875	-4.7896	-5.3438	-4.6896	-4.9854	-5.3896	-4.6604	-5.2771	-4.9583	-4.4333	-5.3104	403.774	205.853	266.469	371.572	331.501	234.880	83.362	341.857	292.831	316.728	204.301	408.642	344.949	399.519	217.757	401.207	0.00058112	0.0007521	0.0001533	1491.9	7.0662e-06	9.1539e-06	1486.2	401.6	6.0207e-06	5.9784e-06	455.3	153.14	134.92	45.932	4.3382e-06	55.932	0.00058377	0.00059357	0.00016249	1516.4	6.4217e-06	6.3341e-06	1505.9	411.08	6.2919e-06	6.3797e-06	465.64	156.82	138.12	47.332	6.2738e-06	57.56	240.100	160.067	161.446	89.487	243.385	223.811	89.378	94.247	271.389	213.367	93.627	98.429	98.790	102.863	230.838	102.125	-8191	255	
581.754	1	1	0	0	0.28855	0.11421	0.075914	0.20142	0.2933	0.12068	0.27385	0.056024	0.064648	0.13045	0.30735	0.22508	0.20175	0.21496	0.13397	0.082284	-4.3708	-4.9125	-5.3417	-4.7812	-5.0625	-5.0729	-4.7896	-5.4479	-4.8458	-4.5833	-5.3604	-4.6854	-5.1813	-5.0188	-4.5979	-5.2458	149.940	274.991	184.375	370.108	335.724	204.483	381.858	276.871	373.057	340.900	399.148	267.535	119.870	430.601	278.566	318.883	0.00057317	0.00028406	6.4418e-05	1488.8	6.9069e-06	5.7997e-06	1484.1	403.33	4.7931e-06	6.3876e-06	458.04	153.41	135.58	45.903	5.0493e-06	56.098	0.00058834	0.0005852	0.00016296	1514.8	6.375e-06	6.3276e-06	1505.4	411.51	6.2729e-06	6.3165e-06	465.91	156.86	138.28	47.374	6.2478e-06	57.59	244.030	157.630	184.263	89.583	242.268	235.351	89.428	94.434	263.939	241.195	93.652	98.273	98.885	102.990	267.379	102.253	-8191	255	
581.875	1	1	0	0	0.045675	0.17356	0.10472	0.34258	0.18466	0.17722	0.17878	0.15043	0.20836	0.066203	0.17251	0.29037	0.11864	0.055468	0.091739	0.11122	-4.4333	-4.725	-5.275	-4.7396	-4.8292	-5.1062	-4.8063	-5.2229	-4.8458	-4.6333	-5.2792	-4.7792	-5.1583	-5.1937	-4.5958	-5.1333	429.858	98.629	355.599	113.299	243.046	430.633	352.364	371.970	183.256	234.096	328.169	377.108	424.914	389.734	137.213	341.885	0.00058639	0.00034534	0.00019533	1489.4	6.9061e-06	7.8934e-06	1483.5	402.76	4.4056e-06	5.1477e-06	454.98	153.93	135.05	46.118	7.7026e-06	55.964	0.0005912	0.00057855	0.0001617	1515.4	6.3889e-06	6.2189e-06	1504.3	411.64	6.2857e-06	6.2847e-06	466.06	156.9	138.11	47.375	6.1852e-06	57.583	238.063	183.144	170.650	89.615	259.857	243.360	89.532	94.277	253.287	210.588	93.406	98.344	98.808	103.184	241.933	101.957	-8191	255	
581.971	1	1	0	0	0.037317	0.036425	0.11172	0.4941	0.31843	0.24396	0.19054	0.087386	0.15662	0.16573	0.21239	0.10143	0.21357	0.20348	0.29483	0.32076	-4.6729	-4.6771	-5.2812	-4.8	-4.775	-5.0146	-4.6521	-5.2042	-4.8104	-4.4833	-5.2917	-4.825	-4.9229	-5.2958	-4.5229	-5.0042	360.808	209.416	157.903	402.215	150.554	350.999	363.361	224.558	220.289	281.051	430.919	204.132	365.613	80.331	366.529	371.335	0.00052639	0.00069141	0.0001597	1489.5	7.3115e-06	3.9564e-06	1484.2	404.52	6.9267e-06	8.5412e-06	457.04	153.88	134.8	45.97	9.1234e-06	56.212	0.00058585	0.00057616	0.000157	1514.6	6.4011e-06	6.2962e-06	1505.8	411.82	6.2889e-06	6.4028e-06	465.49	157.04	138.04	47.318	6.3595e-06	57.621	239.375	176.837	188.825	89.536	245.636	255.199	89.394	94.372	241.552	191.657	93.554	98.391	98.677	102.976	256.088	101.948	-8191	255	
582.043	1	1	0	0	0.29618	0.16298	0.048502	0.066086	0.16161	0.13575	0.19954	0.037389	0.21347	0.14856	0.20085	0.15587	0.078602	0.030835	0.1331	0.028708	-4.5604	-4.5458	-5.0583	-4.7812	-4.7063	-5.2208	-4.8833	-4.9646	-5.0354	-4.6333	-5.2521	-4.7854	-4.725	-5.1208	-4.4771	-4.9563	377.936	164.485	294.082	435.772	165.713	327.586	379.135	176.824	151.618	426.038	402.728	402.666	407.174	347.831	198.438	88.623	0.00058544	0.00045248	0.00015702	1490.8	6.0719e-06	9.6555e-06	1487.4	402.77	5.8749e-06	7.5681e-06	456.21	153.85	134.87	45.911	6.8989e-06	56.164	0.00058136	0.00057801	0.00016089	1515.4	6.4014e-06	6.4033e-06	1507.6	411.94	6.3711e-06	6.3479e-06	465.59	157.05	138.28	47.31	6.3622e-06	57.643	239.339	156.210	204.007	89.528	262.714	246.521	89.441	94.298	247.109	191.003	93.529	98.206	98.888	102.963	223.519	102.091	-8191	255	
582.163	1	1	0	0	0.070488	0.10326	0.093381	0.19653	0.14579	0.15373	0.31986	0.27026	0.1281	0.1325	0.1354	0.32176	0.19487	0.14267	0.077285	0.15754	-4.7854	-4.4354	-5.0604	-5.0188	-4.6875	-5.3042	-4.8333	-5.0083	-5.0479	-4.6167	-5.1562	-4.9062	-4.9437	-5.3292	-4.8021	-4.9771	374.343	107.225	295.769	359.525	382.250	436.152	378.942	160.470	305.916	155.956	420.996	135.260	380.846	347.952	278.862	300.467	0.00055923	0.00062566	0.00020734	1497.1	7.0525e-06	4.3368e-06	1489.5	403.71	7.5136e-06	4.9234e-06	457.14	152.92	134.86	45.939	4.3101e-06	56.212	0.00058747	0.00057842	0.00016432	1517.3	6.4231e-06	6.3527e-06	1507.5	412.38	6.3047e-06	6.4137e-06	466.29	156.86	138.25	47.37	6.3446e-06	57.687	243.687	175.198	164.549	89.577	239.331	228.162	89.434	94.143	266.199	250.456	93.544	98.163	98.823	103.202	250.977	102.149	-8191	255	
582.260	1	1	0	0	0.19422	0.18352	0.13879	0.27098	0.047552	0.026555	0.1263	0.056242	0.19599	0.090999	0.10598	0.15814	0.12994	0.26121	0.11324	0.21914	-4.7708	-4.5875	-5.1104	-4.8812	-4.5667	-5.2	-5.0396	-5.0021	-5.1792	-4.7104	-5.0938	-4.8917	-4.6208	-5.3583	-4.8562	-4.9292	196.393	193.933	386.842	395.140	415.922	194.138	330.100	190.006	425.146	210.640	131.212	79.996	357.957	78.384	335.682	436.272	0.00050815	0.00064213	0.0001868	1493.1	6.5024e-06	4.8811e-06	1484.6	403.58	5.5787e-06	6.4811e-06	456.84	153.2	134.92	46.037	4.558e-06	55.977	0.00058966	0.00058935	0.00016275	1516.8	6.4018e-06	6.3755e-06	1505.3	411.86	6.2593e-06	6.4222e-06	465.84	156.83	138	47.444	6.3294e-06	57.575	241.023	167.916	177.146	89.445	246.923	235.972	89.510	94.335	239.340	219.286	93.690	98.308	98.912	102.951	217.725	102.223	-8191	255	
582.354	1	1	0	0	0.16574	0.045179	0.19657	0.23022	0.26822	0.13285	0.26659	0.26297	0.041725	0.087884	0.12125	0.14408	0.16078	0.13904	0.13851	0.1796	-4.7625	-4.5104	-4.8833	-5.2229	-4.4375	-5.2104	-5.0958	-4.925	-5.2625	-4.6479	-5.0896	-5.0479	-4.6667	-5.2063	-4.6958	-4.7896	294.380	419.430	355.275	82.216	167.653	412.124	92.019	370.802	119.970	121.290	325.837	391.815	379.935	406.170	418.140	343.617	0.00057607	0.00053739	0.00011404	1491.9	8.8715e-06	2.2824e-06	1485.6	404.33	3.2811e-06	5.9231e-06	455.65	153.18	135.18	46.094	6.2374e-06	56.125	0.00058985	0.00057546	0.00016621	1515.4	6.4564e-06	6.4429e-06	1505.3	411.5	6.2708e-06	6.352e-06	465.94	156.63	138.32	47.423	6.1738e-06	57.581	241.255	135.460	195.083	89.643	247.160	229.918	89.454	94.334	240.797	191.547	93.649	98.452	98.738	102.996	239.155	102.484	-8191	255	
582.475	1	1	0	0	0.045483	0.16297	0.08442	0.36826	0.067713	0.17978	0.23847	0.16834	0.067541	0.30598	0.24266	0.16389	0.26327	0.23457	0.11485	0.15783	-4.9146	-4.4458	-4.7583	-5.2188	-4.4396	-5.0458	-4.9583	-4.8104	-5.1562	-4.7	-4.9708	-5.3229	-4.5458	-4.9875	-4.9646	-4.6333	313.068	185.193	168.312	381.313	277.856	436.100	356.457	345.761	210.300	362.970	398.475	395.228	300.749	372.555	361.408	359.453	0.00054464	0.00079994	0.00015971	1489.5	3.9942e-06	4.6723e-06	1484.6	403.41	4.7909e-06	4.5272e-06	455.37	153.71	135.34	45.989	7.1088e-06	55.996	0.00059264	0.00057124	0.00016141	1514.9	6.3288e-06	6.3902e-06	1505.4	411.78	6.3156e-06	6.2951e-06	465.59	156.93	138.14	47.401	6.273e-06	57.515	244.127	152.573	139.799	89.572	236.005	198.381	89.468	94.314	261.719	220.421	93.527	98.355	98.871	103.168	237.556	102.307	-8191	255	
582.571	1	1	0	0	0.18981	0.093883	0.29331	0.17938	0.022285	0.092501	0.30354	0.24199	0.1532	0.10572	0.26002	0.29641	0.082151	0.21031	0.071948	0.30061	-4.7771	-4.7104	-4.7792	-5.2646	-4.5792	-4.9167	-5.1708	-4.7438	-5.1417	-4.6167	-4.7979	-5.2646	-4.7875	-5.2167	-4.9313	-4.6813	280.937	305.730	105.337	345.869	367.368	174.839	347.934	356.678	357.130	331.038	379.095	408.798	373.326	395.878	108.748	392.169	0.00057571	0.00057761	0.000143	1486.4	4.8183e-06	2.9245e-06	1483.3	403.68	5.2e-06	4.0528e-06	454.89	153.34	135.05	45.875	7.0629e-06	55.949	0.00058163	0.00058231	0.00016219	1512.9	6.2676e-06	6.3729e-06	1505.4	411.02	6.3744e-06	6.2948e-06	465.01	156.66	138.1	47.348	6.3478e-06	57.551	239.605	190.482	203.484	89.498	244.774	273.846	89.440	94.242	258.960	232.149	93.589	98.222	98.755	103.062	241.228	102.138	-8191	255	
582.642	1	1	0	0	0.095071	0.12023	0.099633	0.2428	0.085923	0.17653	0.33138	0.26381	0.27381	0.1414	0.024183	0.1985	0.21417	0.41588	0.10504	0.12591	-4.7771	-4.775	-4.7354	-5.3938	-4.6021	-5.0229	-5.3271	-4.6917	-5.1708	-4.9479	-4.8333	-5.2792	-4.775	-4.8771	-5.0625	-4.6271	275.111	79.532	337.040	373.415	96.790	367.102	362.478	354.322	240.117	246.966	259.512	99.726	88.505	320.856	148.220	275.877	0.00056213	0.00048795	4.991e-05	1491.5	6.3505e-06	9.0509e-06	1483.2	402.29	5.8244e-06	3.2324e-06	455.65	153.61	135.01	46.033	5.8899e-06	56.025	0.00058935	0.0005867	0.00016052	1515.9	6.3071e-06	6.3846e-06	1505.2	411.28	6.4183e-06	6.2594e-06	465.77	156.93	138.09	47.403	6.3996e-06	57.495	242.474	152.520	163.705	89.577	240.110	242.358	89.315	94.530	239.565	160.274	93.607	98.342	98.775	103.035	233.486	102.250	-8191	255	
582.739	1	1	0	0	0.10693	0.23353	0.11659	0.24895	0.22705	0.033524	0.17797	0.23538	0.15616	0.15447	0.10153	0.1468	0.067549	0.17084	0.049976	0.23053	-4.6625	-4.8625	-4.5854	-5.3375	-4.7917	-4.9729	-5.3354	-4.6333	-5.0146	-4.825	-4.7333	-5.2167	-4.8667	-4.9458	-5.0875	-4.5687	208.989	244.471	144.163	418.287	309.271	327.121	337.881	398.228	212.118	430.704	142.426	397.275	79.858	413.576	235.559	413.494	0.00057893	0.00057471	0.00013986	1490.2	8.3379e-06	7.4907e-06	1486.7	403.54	6.0005e-06	5.3048e-06	455.61	153.4	134.85	46.024	5.5928e-06	55.882	0.00059237	0.00058133	0.00016227	1514.6	6.3556e-06	6.3917e-06	1505.8	412.09	6.3253e-06	6.3864e-06	466.05	156.9	138.13	47.38	6.3384e-06	57.544	240.235	164.840	163.500	89.440	245.468	241.600	89.436	94.325	234.173	205.519	93.779	98.456	98.835	103.025	254.712	102.007	-8191	255	
582.835	1	1	0	0	0.10782	0.18409	0.078646	0.26072	0.079928	0.094087	0.087243	0.33088	0.12071	0.2191	0.23734	0.1404	0.21078	0.1098	0.14805	0.15346	-4.7188	-5.025	-4.5271	-5.3146	-4.8125	-4.8417	-5.3583	-4.6375	-4.9271	-5.025	-4.7021	-5.1813	-4.8229	-4.8688	-5.0687	-4.6687	187.255	418.466	197.282	398.770	115.290	285.689	398.250	383.145	215.206	405.382	104.329	302.522	431.445	360.416	378.729	373.371	0.00056548	0.00040925	0.0002098	1486.4	6.707e-06	4.3198e-06	1486.7	402.1	4.6e-06	8.2674e-06	456.93	153.85	135.34	46.043	6.3877e-06	56.128	0.00058918	0.00057791	0.00015947	1514.4	6.2663e-06	6.3381e-06	1506.3	411.46	6.3517e-06	6.3584e-06	466.73	157.05	138.25	47.381	6.4261e-06	57.601	240.705	201.472	168.882	89.405	238.517	247.411	89.534	94.416	257.698	212.497	93.696	98.362	98.568	103.129	237.425	102.017	-8191	255	
582.955	1	1	0	0	0.054583	0.10816	0.1191	0.16084	0.08651	0.074552	0.30605	0.055256	0.076444	0.10496	0.095573	0.16471	0.27392	0.09102	0.014594	0.10994	-4.5146	-5.1438	-4.5979	-5.2771	-4.8146	-4.6833	-5.5083	-4.6667	-5.0375	-4.9938	-4.5625	-5.1937	-5.0021	-4.7771	-5.1833	-4.8167	171.577	79.355	248.891	93.641	276.774	423.604	368.684	304.041	128.213	186.201	371.677	362.691	407.195	436.213	146.611	401.897	0.00057548	0.00054111	0.00012213	1491.1	9.9676e-06	4.8123e-06	1489.4	404.08	3.6978e-06	3.5311e-06	456.52	153.23	135.05	46.06	5.0671e-06	55.999	0.00059914	0.00058545	0.00016243	1517.3	6.3907e-06	6.395e-06	1507.5	411.83	6.363e-06	6.3734e-06	466.22	157.07	138.24	47.404	6.4144e-06	57.562	241.008	170.699	221.248	89.542	238.146	220.454	89.403	94.440	265.155	217.989	93.633	98.354	98.775	103.034	224.366	102.023	-8191	255	
583.052	1	1	0	0	0.17755	0.18922	0.10024	0.19183	0.21871	0.21889	0.25101	0.15939	0.056293	0.048189	0.15572	0.18255	0.073931	0.072665	0.052434	0.16947	-4.6354	-5.1458	-4.4896	-5.1521	-5.075	-4.4375	-5.2083	-4.8	-4.6542	-5.075	-4.6813	-5.0312	-5.0437	-4.5708	-5.0271	-4.85	152.196	216.604	147.315	78.367	166.543	269.088	291.564	384.179	181.940	358.623	79.875	87.684	95.802	116.895	422.120	246.551	0.00055174	0.00053704	0.00018528	1493.6	5.7936e-06	6.7034e-06	1489.7	404.25	4.4189e-06	3.1295e-06	455.06	153.39	135.6	45.773	6.7707e-06	55.853	0.00058399	0.00058013	0.00016422	1517.6	6.4221e-06	6.3733e-06	1508.7	411.92	6.4337e-06	6.3405e-06	465.88	156.78	138.38	47.313	6.371e-06	57.528	241.661	162.786	184.776	89.580	239.895	204.918	89.367	94.214	252.773	204.672	93.635	98.238	98.560	102.968	237.543	102.054	-8191	255	
583.148	1	1	0	0	0.054769	0.094184	0.19167	0.14056	0.18162	0.17692	0.30063	0.21506	0.30749	0.12213	0.13566	0.15044	0.24311	0.1634	0.17902	0.2443	-4.3979	-5.2021	-4.6854	-5.1854	-4.9771	-4.6604	-5.2875	-4.9125	-4.8063	-5.2708	-4.7167	-5.0604	-5.0375	-4.6354	-4.9917	-4.8812	311.827	152.342	428.036	391.467	401.364	82.100	387.696	403.785	324.701	186.239	371.389	415.657	388.391	378.156	365.967	356.593	0.0005793	0.00046664	0.00014438	1487.7	9.6643e-06	9.9752e-06	1484.3	402.75	5.5486e-06	1.5846e-06	455.64	153.32	135.09	46.017	5.2833e-06	56.26	0.00059419	0.00058447	0.00016083	1514.5	6.4325e-06	6.3149e-06	1505	411.2	6.403e-06	6.4079e-06	465.34	156.78	138.03	47.318	6.3939e-06	57.56	241.520	151.158	164.505	89.752	243.399	236.300	89.523	94.405	242.206	263.776	93.623	98.183	98.827	103.107	233.386	102.316	-8191	255	
583.244	1	1	0	0	0.16909	0.32773	0.064557	0.16556	0.12374	0.064403	0.054324	0.10907	0.13309	0.090457	0.15475	0.053579	0.16598	0.27716	0.4339	0.27718	-4.3146	-5.1771	-4.6271	-5.0896	-4.9417	-4.5292	-5.3521	-4.9979	-4.4875	-5.1937	-4.8979	-4.9479	-5.1458	-4.7937	-5.0188	-5.0458	84.684	377.785	280.664	357.418	153.453	259.454	343.767	282.236	193.737	433.844	361.489	98.745	322.117	388.154	424.997	405.307	0.00053161	0.00068319	0.00021058	1491	9.1343e-06	9.0266e-06	1484.4	402.52	5.2273e-06	5.5942e-06	455.86	153.31	134.52	45.879	5.8906e-06	55.991	0.00058438	0.00057878	0.00016024	1515.8	6.4117e-06	6.3096e-06	1504.7	411.43	6.3305e-06	6.4019e-06	465.71	156.78	137.96	47.31	6.3693e-06	57.572	243.199	148.439	159.364	89.646	240.722	223.496	89.573	94.299	261.478	195.089	93.360	98.424	98.623	102.993	214.004	102.213	-8191	255	
583.338	1	1	0	0	0.1266	0.24224	0.16904	0.17466	0.072111	0.13203	0.24026	0.19868	0.066403	0.070296	0.2071	0.29739	0.17239	0.11392	0.060488	0.1356	-4.1562	-5.1458	-4.8125	-5.0042	-5.2021	-4.7375	-5.3	-5.175	-4.4104	-5.1021	-4.8708	-4.8229	-5.3167	-4.6958	-4.8167	-5.15	336.094	195.964	406.678	113.683	191.197	92.343	383.896	403.415	147.756	409.985	78.240	381.121	396.041	102.281	92.340	417.261	0.00054169	0.00060482	0.00013627	1484.9	6.6032e-06	4.2399e-06	1485.4	403.11	6.1835e-06	7.2037e-06	456.07	153.53	135.02	45.838	6.0025e-06	56.048	0.00058134	0.00058216	0.00015949	1513.5	6.2296e-06	6.3363e-06	1504	411.04	6.2655e-06	6.3615e-06	465.26	156.8	138.04	47.225	6.4018e-06	57.525	240.493	174.747	202.583	89.538	235.862	252.602	89.473	94.322	265.987	229.270	93.527	98.311	98.892	103.249	236.493	102.151	-8191	255	
583.436	1	1	0	0	0.19868	0.077428	0.13878	0.12956	0.087418	0.059157	0.22563	0.061352	0.022206	0.13395	0.065018	0.24659	0.14821	0.050464	0.15045	0.23705	-4.0146	-5.05	-4.6937	-4.9583	-5.2458	-4.6062	-5.1667	-5.2	-4.4437	-5.0125	-4.9938	-4.7438	-5.225	-4.625	-4.9854	-5.2417	339.891	190.423	415.100	362.380	236.370	218.420	391.793	365.844	212.251	171.979	158.261	406.177	422.544	81.813	431.361	394.437	0.00058414	0.00064637	0.00018857	1486.4	6.7208e-06	6.164e-06	1482.7	403.51	7.8565e-06	5.0313e-06	457.01	153.25	135.02	46.004	5.2589e-06	55.827	0.0005865	0.00058123	0.00016071	1511.7	6.3295e-06	6.3602e-06	1502.8	411.45	6.2947e-06	6.4814e-06	465.24	156.75	137.97	47.343	6.4755e-06	57.477	243.058	159.622	161.116	89.470	241.366	206.368	89.509	94.373	268.221	250.422	93.662	98.214	98.837	103.019	225.821	102.212	-8191	255	
583.555	1	1	0	0	0.1421	0.053196	0.13272	0.25689	0.089549	0.26326	0.086173	0.24016	0.14136	0.13429	0.29003	0.14431	0.18365	0.22494	0.07537	0.22166	-4.0125	-5.0083	-4.825	-4.8021	-5.1687	-4.925	-5.075	-5.2146	-4.4688	-5.0167	-5.05	-4.7333	-5.3521	-4.7417	-4.8083	-5.2562	388.508	322.680	298.157	82.112	239.476	429.893	268.874	383.089	374.587	226.081	374.670	92.022	94.061	92.906	125.047	291.992	0.00055004	0.00034683	0.00014455	1491.9	7.2979e-06	2.9668e-06	1485.3	402.92	5.8922e-06	4.6489e-06	456.87	153.48	135.14	45.826	6.1094e-06	56.14	0.00059294	0.00059116	0.00016533	1515.4	6.4626e-06	6.4155e-06	1506.8	411.49	6.3324e-06	6.4944e-06	465.42	156.97	138	47.342	6.5421e-06	57.616	242.393	196.020	160.107	89.867	238.246	236.775	89.429	94.361	271.904	207.443	93.777	98.256	98.712	103.030	232.637	102.047	-8191	255	
583.651	1	1	0	0	0.076977	0.12262	0.13122	0.26627	0.076911	0.045738	0.3177	0.20621	0.10742	0.20069	0.1906	0.42866	0.1173	0.25736	0.1345	0.14873	-4.2521	-4.8729	-4.7917	-4.7104	-5.0792	-4.8125	-5.0062	-5.2729	-4.5208	-4.9979	-5.1417	-4.8104	-5.1438	-4.9417	-4.7479	-5.2333	264.192	405.870	216.371	97.358	423.183	90.431	398.064	415.968	374.311	340.310	285.508	79.373	85.086	120.156	163.868	399.708	0.00056452	0.00057239	0.00015295	1493.6	6.0641e-06	6.7328e-06	1480.9	403.17	3.5156e-06	6.8257e-06	457.97	153.51	134.63	45.832	5.5319e-06	55.904	0.00059027	0.00059339	0.0001626	1515.7	6.4246e-06	6.3308e-06	1504.9	411.76	6.447e-06	6.4917e-06	466.26	156.76	137.8	47.299	6.4117e-06	57.489	239.507	170.189	146.126	89.492	243.895	259.154	89.468	94.280	240.168	208.921	93.629	98.366	98.757	102.925	210.804	102.163	-8191	255	
583.747	1	1	0	0	0.19405	0.14319	0.16686	0.16506	0.1817	0.088752	0.13394	0.27653	0.16444	0.20024	0.049679	0.13524	0.089862	0.26951	0.066641	0.10083	-4.2438	-4.8875	-4.8688	-4.6687	-5.0979	-4.8104	-4.7479	-5.2875	-4.5563	-4.8667	-5.0396	-4.5396	-4.9812	-4.8896	-4.7083	-5.1562	366.361	426.079	385.574	411.895	119.666	350.603	363.090	388.846	118.643	163.746	377.759	107.277	263.025	418.724	323.556	354.337	0.00055564	0.00043965	0.00011215	1486.3	6.5036e-06	4.1692e-06	1484.7	403.84	5.3458e-06	5.4126e-06	456.38	152.83	134.91	45.925	5.6875e-06	55.919	0.00058908	0.00059871	0.00016217	1512.4	6.4872e-06	6.3876e-06	1504.5	411.5	6.3833e-06	6.3252e-06	465.65	156.8	138.01	47.314	6.3732e-06	57.458	242.950	147.633	157.245	89.704	229.369	195.382	89.587	94.395	279.180	208.234	93.550	98.421	98.805	103.003	247.302	101.976	-8191	255	
583.843	1	1	0	0	0.22568	0.17927	0.096759	0.22655	0.09413	0.073353	0.087668	0.12346	0.13078	0.077332	0.074021	0.11662	0.15379	0.11495	0.16484	0.20518	-4.4604	-4.8375	-5.0125	-4.7583	-4.8812	-4.9688	-4.7729	-5.4	-4.5896	-4.7354	-5.1875	-4.6771	-5.0625	-5.1917	-4.5437	-5.2542	345.477	331.184	253.365	393.328	251.949	347.385	335.910	381.235	280.374	168.257	357.439	104.553	409.006	360.250	414.218	362.626	0.00058727	0.00037897	0.00010422	1494.7	8.4146e-06	8.1161e-06	1481.7	403.51	6.8869e-06	5.6178e-06	457.03	153.51	135.34	45.959	5.0773e-06	55.924	0.00058324	0.00058673	0.00016196	1514.8	6.5463e-06	6.3501e-06	1503.7	411.74	6.4158e-06	6.4471e-06	465.68	156.81	138.21	47.344	6.4222e-06	57.52	244.038	182.798	186.761	89.528	239.071	209.371	89.524	94.416	241.033	220.294	93.536	98.446	98.903	103.077	249.356	101.994	-8191	255	
583.940	1	1	0	0	0.03388	0.27029	0.1738	0.1609	0.14165	0.19143	0.23902	0.11398	0.12738	0.025133	0.0095551	0.241	0.20869	0.33353	0.032351	0.045376	-4.4458	-4.675	-5.2146	-4.7729	-4.9396	-4.9604	-4.7375	-5.2229	-4.9333	-4.6667	-5.2854	-4.7542	-4.9875	-5.1167	-4.5771	-5.1625	202.205	160.575	230.554	95.811	87.091	209.017	364.958	299.156	430.503	325.679	246.371	118.800	132.824	87.865	173.651	146.234	0.00054771	0.00045231	0.00019106	1493.2	8.0439e-06	6.1866e-06	1483.1	402.8	7.892e-06	5.0321e-06	456.26	152.98	135.12	45.954	4.6174e-06	55.947	0.00059016	0.00058786	0.00016187	1514.8	6.5337e-06	6.3672e-06	1503.2	411.15	6.3179e-06	6.4939e-06	465.79	156.85	138.13	47.351	6.3922e-06	57.514	243.108	160.778	176.410	89.628	250.963	254.526	89.398	94.562	258.483	209.007	93.586	98.349	98.828	103.169	226.745	102.207	-8191	255	
584.036	1	1	0	0	0.28869	0.081251	0.12369	0.14477	0.10412	0.042327	0.29917	0.13563	0.032542	0.14498	0.35821	0.086927	0.1069	0.1711	0.11946	0.21778	-4.4208	-4.6479	-5.1146	-4.6708	-4.85	-5.0354	-4.8208	-5.2063	-4.8562	-4.8417	-5.4104	-4.7167	-4.9583	-5.15	-4.425	-5.075	136.813	175.844	400.989	347.318	341.878	421.978	367.818	392.532	197.274	385.619	381.612	397.538	325.528	349.703	402.051	357.497	0.00060585	0.00079061	0.00020772	1489.3	4.5847e-06	5.4475e-06	1485.8	403.44	3.7413e-06	4.2641e-06	456.21	153.3	135.08	45.942	2.6743e-06	55.893	0.00059144	0.00060163	0.00016502	1514.7	6.6351e-06	6.4174e-06	1505.2	411.64	6.4518e-06	6.4527e-06	465.79	156.77	137.92	47.333	6.4132e-06	57.468	239.863	162.947	192.977	89.588	255.185	239.409	89.371	94.304	252.349	198.823	93.680	98.345	98.693	102.919	236.709	102.054	-8191	255	
584.132	1	1	0	0	0.030857	0.21742	0.15537	0.25344	0.055637	0.2628	0.20162	0.13143	0.073443	0.21105	0.11076	0.04993	0.27703	0.31389	0.12486	0.20216	-4.4521	-4.5312	-5.125	-4.8333	-4.6729	-5.075	-4.8042	-5.0875	-5.0417	-4.4458	-5.1854	-4.7958	-4.7771	-5.2583	-4.5146	-4.9854	114.178	147.736	157.134	396.292	301.997	106.129	408.210	380.970	280.336	102.151	134.610	127.481	404.088	423.415	434.003	363.728	0.00056809	0.00047337	0.00018946	1491.8	4.6166e-06	5.9708e-06	1484.5	403.68	4.9536e-06	7.1647e-06	456.46	153.32	134.86	46.017	3.9101e-06	56.005	0.00059756	0.0005895	0.00016201	1514.2	6.5135e-06	6.4166e-06	1505.3	412.09	6.3745e-06	6.4305e-06	466.02	156.88	137.98	47.379	6.298e-06	57.539	242.668	193.445	183.883	89.635	214.613	218.190	89.388	94.333	247.040	204.148	93.721	98.077	98.890	103.100	228.779	102.068	-8191	255	
584.253	1	1	0	0	0.26092	0.20686	0.21565	0.15632	0.09747	0.13202	0.13452	0.060461	0.24794	0.19578	0.15457	0.33078	0.097773	0.085268	0.12968	0.01985	-4.6458	-4.5396	-5.1438	-5.0458	-4.6167	-5.1354	-4.8292	-4.8604	-4.9792	-4.5354	-5.2479	-4.9187	-4.7792	-5.3021	-4.6292	-5.0625	404.966	213.159	201.431	352.925	254.212	107.508	392.869	417.555	416.012	248.038	80.017	431.483	112.408	112.209	352.899	130.633	0.00055362	0.00057431	0.00017824	1486.7	8.9304e-06	6.4461e-06	1481.9	403.36	5.4875e-06	5.5046e-06	456.12	153.15	134.52	45.859	7.0011e-06	55.918	0.00059232	0.00059232	0.00016509	1513.5	6.3998e-06	6.4211e-06	1504.1	411.55	6.3397e-06	6.4649e-06	465.26	156.56	137.89	47.262	6.32e-06	57.418	238.936	197.508	158.508	89.739	239.159	257.261	89.499	94.384	248.110	234.387	93.761	98.338	98.681	103.032	245.964	102.152	-8191	255	
584.347	1	1	0	0	0.10997	0.085028	0.052253	0.13247	0.21003	0.14092	0.2651	0.18163	0.084249	0.2426	0.081964	0.055817	0.17067	0.18046	0.0016449	0.045293	-4.6542	-4.4146	-5.0271	-5.1167	-4.4854	-5.1438	-4.8688	-4.7792	-5.25	-4.5708	-5.0396	-5.0646	-4.7896	-5.2458	-4.7417	-4.9229	367.141	279.429	361.136	432.592	276.974	131.610	369.282	410.617	378.016	76.339	147.817	228.850	391.241	323.211	180.000	385.968	0.00057127	0.00049544	0.00018111	1485.4	6.3931e-06	3.7193e-06	1484.8	403.68	8.8779e-06	6.1008e-06	456.4	153.48	134.34	46.051	5.2162e-06	56.115	0.00059187	0.00058959	0.00016428	1511	6.3993e-06	6.4233e-06	1503.4	411.53	6.4163e-06	6.4199e-06	465.86	156.8	137.79	47.341	6.3197e-06	57.568	242.560	131.647	187.617	89.429	257.373	249.741	89.524	94.210	253.035	230.650	93.534	98.186	98.828	102.947	232.595	102.195	-8191	255	
584.443	1	1	0	0	0.017453	0.15774	0.060043	0.2168	0.06868	0.26038	0.29061	0.23581	0.063019	0.19684	0.078593	0.23057	0.3043	0.093364	0.084885	0.17075	-4.8333	-4.5271	-4.975	-5.1083	-4.5729	-5.1562	-5.0542	-4.7667	-5.1208	-4.6333	-5.0375	-5.1771	-4.6687	-5.1583	-4.7937	-4.8146	323.422	191.812	120.095	428.542	162.562	387.898	391.026	389.005	133.167	228.570	114.430	110.933	89.007	371.052	408.274	77.497	0.00053725	0.00059084	0.00026126	1485.8	8.8119e-06	7.5812e-06	1483.5	403.85	5.7755e-06	3.3162e-06	457.63	152.99	134.45	45.844	5.5645e-06	55.862	0.00058712	0.00059161	0.00016478	1511.4	6.4951e-06	6.5025e-06	1503.6	411.2	6.4192e-06	6.4612e-06	465.66	156.35	137.62	47.285	6.5361e-06	57.514	241.078	186.991	189.848	89.638	238.375	226.701	89.476	94.319	273.455	207.712	93.672	98.371	98.737	102.997	248.804	102.405	-8191	255	
584.517	1	1	0	0	0.13021	0.092744	0.078309	0.30305	0.15669	0.22522	0.39308	0.10646	0.098845	0.10319	0.2182	0.27425	0.072115	0.24324	0.073315	0.20567	-4.6458	-4.7271	-4.9	-5.2688	-4.55	-5.1979	-4.9854	-4.6646	-5.1479	-4.6229	-4.7937	-5.0563	-4.5646	-5.1125	-4.9042	-4.6542	321.523	257.686	417.119	407.824	270.250	406.604	387.198	115.271	114.137	182.462	411.081	89.069	329.997	132.027	257.932	319.413	0.0005355	0.00075213	0.00018492	1492.6	6.3147e-06	6.9212e-06	1484.7	403.04	7.178e-06	7.1372e-06	454.86	153.24	134.79	45.822	7.982e-06	55.969	0.00060877	0.0005936	0.00016735	1514	6.457e-06	6.5452e-06	1502.8	411.19	6.5274e-06	6.5741e-06	464.64	156.59	137.95	47.298	6.363e-06	57.452	242.403	177.887	162.828	89.711	205.535	213.813	89.454	94.326	249.655	215.107	93.853	98.448	98.875	102.993	227.031	102.323	-8191	255	
584.635	1	1	0	0	0.13045	0.11212	0.089852	0.1634	0.11731	0.08239	0.29319	0.18297	0.028723	0.10986	0.20223	0.1598	0.18615	0.12035	0.10622	0.2122	-5.0375	-4.7104	-4.8792	-5.1125	-4.5979	-4.9271	-5.0979	-4.8271	-5.0042	-4.6083	-4.7333	-5.2729	-4.6	-4.9083	-5.0042	-4.7312	236.504	135.270	358.841	109.949	417.184	270.380	337.948	358.010	300.993	209.287	384.781	83.628	419.841	335.517	363.220	400.565	0.00056394	0.00039165	0.00019898	1487.8	7.6613e-06	7.2171e-06	1488.8	402.93	6.8306e-06	8.6516e-06	456.95	153.07	134.56	45.981	7.6922e-06	55.944	0.0005952	0.00058915	0.00016362	1512.5	6.3845e-06	6.3745e-06	1504.6	411.24	6.3461e-06	6.2286e-06	465.17	156.55	137.79	47.232	6.1406e-06	57.504	238.330	130.639	185.550	89.636	218.651	240.633	89.461	94.496	258.567	239.351	93.552	98.449	98.792	103.216	242.036	102.260	-8191	255	
584.732	1	1	0	0	0.23539	0.10267	0.2136	0.22965	0.12707	0.1342	0.20962	0.32302	0.072458	0.26836	0.086067	0.19405	0.13632	0.17026	0.36689	0.013191	-4.7375	-4.6708	-4.7396	-5.4604	-4.6417	-4.8667	-5.175	-4.6875	-5.0292	-4.9958	-4.6729	-5.3083	-4.7188	-5.0854	-5.0771	-4.6562	228.036	204.606	251.857	406.250	380.052	97.282	352.916	378.397	408.293	121.498	365.160	410.116	87.533	103.163	141.866	104.907	0.00055786	0.00042086	0.00015255	1487.9	7.2958e-06	4.0589e-06	1483.2	402.49	5.4392e-06	6.9156e-06	456.69	153.52	134.89	45.815	4.4006e-06	55.862	0.00057377	0.00057052	0.00015943	1511	6.2107e-06	6.1798e-06	1502.4	410.62	6.1734e-06	6.1248e-06	465.05	156.73	137.78	47.246	6.2028e-06	57.428	242.965	124.808	180.398	89.459	246.149	233.636	89.536	94.452	250.137	220.695	93.580	98.415	98.789	103.114	264.363	102.112	-8191	255	
584.828	1	1	0	0	0.27166	0.16527	0.30385	0.16452	0.1313	0.056101	0.094485	0.16199	0.2607	0.053455	0.18927	0.22317	0.32701	0.063323	0.14322	0.28364	-4.7812	-4.9417	-4.4812	-5.2583	-4.6333	-4.7396	-5.3646	-4.5625	-5.0958	-4.8833	-4.7604	-5.2917	-4.875	-4.85	-5.2583	-4.725	365.322	370.557	265.876	426.333	427.887	260.271	419.190	402.924	368.780	396.730	139.766	432.038	379.621	130.588	204.703	378.604	0.00056088	0.00050305	0.00015196	1489	7.118e-06	9.3885e-06	1484.2	402.66	3.7054e-06	8.0039e-06	456.81	153.37	135.02	45.967	5.8655e-06	55.938	0.00058143	0.00057264	0.00016135	1513.7	6.2875e-06	6.2005e-06	1503.8	411.05	6.2337e-06	6.1496e-06	465.66	156.76	138.14	47.353	6.1402e-06	57.498	237.912	162.042	174.666	89.591	250.369	236.170	89.446	94.288	274.967	199.592	93.810	98.527	98.883	102.765	236.865	101.904	-8191	255	
584.924	1	1	0	0	0.091101	0.21231	0.081591	0.26985	0.090418	0.019915	0.052446	0.16249	0.026973	0.24593	0.13559	0.071101	0.12228	0.080417	0.12622	0.1188	-4.8708	-4.9563	-4.5437	-5.3708	-4.8625	-4.7896	-5.3833	-4.6542	-4.9396	-5.0042	-4.6729	-5.2958	-4.8167	-4.8417	-5.0479	-4.6583	323.369	207.083	226.901	355.676	406.161	138.797	284.231	242.442	120.768	424.517	284.916	333.294	278.773	116.575	278.132	419.395	0.00057002	0.00053169	0.00012837	1492.7	9.1807e-06	7.9127e-06	1483	402.81	5.7578e-06	6.858e-06	456	153.13	135.3	45.841	6.6531e-06	55.948	0.00057952	0.00057658	0.00015739	1514.2	6.3181e-06	6.3506e-06	1503.6	411.64	6.2858e-06	6.2473e-06	465.27	156.75	138	47.299	6.1892e-06	57.492	241.756	149.606	163.997	89.597	251.836	249.771	89.503	94.608	246.632	205.749	93.529	98.395	98.814	103.179	274.398	102.091	-8191	255	
585.044	1	1	0	0	0.15647	0.24765	0.19272	0.097767	0.19225	0.1932	0.13421	0.064058	0.15705	0.21203	0.21212	0.17927	0.10661	0.12686	0.19017	0.13004	-4.6958	-4.9875	-4.6354	-5.3417	-4.7729	-4.6625	-5.3438	-4.6417	-4.8708	-5.0646	-4.85	-5.2625	-4.925	-4.7771	-5.1854	-4.725	131.072	226.508	285.199	77.862	151.850	360.976	406.265	366.368	155.617	364.829	374.265	406.550	236.847	405.513	376.637	103.063	0.000566	0.00055623	0.00012316	1492.9	8.0384e-06	5.0439e-06	1484.2	403.83	5.9964e-06	5.7612e-06	455.76	153.49	135.47	45.901	6.9364e-06	56.255	0.00058501	0.00056619	0.00015976	1514.6	6.3004e-06	6.2582e-06	1504.5	411.4	6.233e-06	6.3695e-06	465.25	156.79	138.2	47.322	6.3509e-06	57.557	239.699	146.838	162.016	89.695	240.603	226.710	89.401	94.361	254.541	219.401	93.470	98.302	98.856	103.015	230.384	102.204	-8191	255	
585.141	1	1	0	0	0.10861	0.070642	0.19469	0.22706	0.15181	0.11585	0.16388	0.095029	0.16397	0.086578	0.059302	0.11307	0.26845	0.21998	0.10333	0.22503	-4.4771	-5.15	-4.5896	-5.2333	-4.8667	-4.7604	-5.3646	-4.8812	-4.8562	-5.1062	-4.7625	-5.1146	-4.9688	-4.6896	-5.1167	-4.825	294.531	202.898	271.537	375.689	83.825	115.428	339.580	354.193	216.466	289.860	327.212	109.970	103.202	377.002	182.501	431.392	0.00055716	0.00054869	0.00016574	1490.4	5.8156e-06	6.5855e-06	1484.5	401.63	7.7585e-06	5.0442e-06	456.77	152.93	134.94	45.906	4.66e-06	55.872	0.00057766	0.00057601	0.00016157	1513.5	6.2379e-06	6.2935e-06	1503.9	411.29	6.3934e-06	6.2291e-06	465.75	156.62	138.05	47.247	6.3205e-06	57.485	241.055	142.808	175.714	89.519	267.108	219.412	89.399	94.283	267.432	207.283	93.596	98.300	98.920	102.907	241.011	102.145	-8191	255	
585.237	1	1	0	0	0.089537	0.19235	0.0573	0.14325	0.057407	0.036384	0.33062	0.28419	0.17032	0.13734	0.053068	0.24257	0.26014	0.26901	0.086629	0.20214	-4.3667	-5.1042	-4.4437	-5.0729	-5.0188	-4.6396	-5.3521	-4.8021	-4.8021	-5.1062	-4.6333	-5.0813	-5.2104	-4.6646	-5.1562	-4.8792	359.038	283.847	317.066	394.694	385.120	90.448	379.636	417.537	409.543	302.167	160.905	358.743	85.726	428.243	178.922	362.850	0.00052775	0.00037802	0.0001663	1491.3	6.817e-06	6.498e-06	1482	402.95	5.7947e-06	6.7134e-06	455.85	153.23	134.92	45.963	5.6874e-06	55.775	0.00058541	0.00057409	0.00016204	1512.4	6.3236e-06	6.3546e-06	1503.6	411.31	6.3191e-06	6.3584e-06	465.81	156.63	137.84	47.29	6.3354e-06	57.447	242.847	177.648	146.649	89.540	249.442	228.614	89.411	94.347	266.959	217.556	93.555	98.430	98.885	102.933	241.167	102.217	-8191	255	
585.333	1	1	0	0	0.17613	0.10022	0.11891	0.05335	0.19598	0.2098	0.40234	0.023256	0.066999	0.080539	0.31474	0.10153	0.22701	0.096604	0.13503	0.062829	-4.4313	-5.1396	-4.5792	-5.1646	-5.1354	-4.5792	-5.4271	-5.0312	-4.8458	-5.2479	-4.7458	-4.9958	-5.1771	-4.6	-5.0375	-4.8333	245.607	235.786	212.510	77.664	92.797	156.907	387.450	404.953	435.280	188.825	366.581	397.651	80.956	406.158	409.189	426.486	0.0005696	0.00061918	0.00014677	1485.1	7.2672e-06	9.0369e-06	1487.6	404.08	4.8726e-06	5.3158e-06	454.04	152.85	134.59	45.844	5.1286e-06	55.777	0.00057961	0.00057707	0.00015865	1510.6	6.2539e-06	6.2704e-06	1501.4	411.72	6.1293e-06	6.2829e-06	464.56	156.36	137.71	47.259	6.2064e-06	57.389	239.575	156.754	177.840	89.638	254.555	239.910	89.691	94.403	254.932	203.402	93.833	98.153	98.815	102.990	255.169	102.280	-8191	255	
585.427	1	1	0	0	0.16658	0.089107	0.23409	0.30114	0.06886	0.09527	0.20386	0.12396	0.098192	0.083102	0.26609	0.10711	0.090233	0.12609	0.052915	0.11024	-4.2958	-5.1562	-4.6729	-4.8521	-5.1479	-4.6271	-5.1542	-4.8875	-4.7271	-5.0458	-4.8708	-5.1354	-5.2937	-4.5896	-4.9479	-4.8771	186.280	136.360	270.290	433.794	135.744	420.185	84.201	389.989	232.170	92.344	77.390	411.302	77.536	379.896	103.900	249.681	0.00055309	0.00041703	0.00018072	1483.3	9.5531e-06	5.8594e-06	1481.5	402.71	6.5876e-06	6.9281e-06	454.61	153.01	135.04	45.762	5.8359e-06	55.916	0.00057051	0.00057801	0.00015892	1508.6	6.3062e-06	6.2941e-06	1499.2	411.09	6.3483e-06	6.4169e-06	464.75	156.35	137.65	47.185	6.2942e-06	57.403	240.534	126.270	166.047	89.541	218.044	224.522	89.559	94.366	266.465	219.979	93.658	98.283	98.782	103.100	238.690	102.452	-8191	255	
585.525	1	1	0	0	0.36998	0.079137	0.13163	0.078103	0.14851	0.18053	0.31082	0.25414	0.074485	0.029066	0.19567	0.18403	0.071042	0.026986	0.15324	0.25519	-4.1229	-4.9979	-4.7604	-4.8229	-5.1729	-4.5896	-5.1542	-5.1125	-4.4313	-5.0604	-4.9667	-4.7021	-5.3417	-4.6333	-4.9375	-5.1854	353.811	301.287	196.547	247.262	268.563	104.846	386.019	330.031	384.047	310.816	317.446	163.153	399.478	113.880	184.814	434.860	0.0005668	0.00068998	0.00021652	1484.2	8.3962e-06	4.9507e-06	1480.7	402.38	3.7821e-06	5.1727e-06	456.1	152.72	134.53	45.829	6.0366e-06	55.8	0.00058794	0.00057222	0.00016039	1507.7	6.3102e-06	6.1941e-06	1498.2	410.72	6.2599e-06	6.4049e-06	464.79	156.3	137.63	47.194	6.1884e-06	57.387	235.716	183.754	170.327	89.714	229.987	240.729	89.374	94.465	274.052	211.957	93.656	98.435	98.755	102.971	246.332	102.212	-8191	255	
585.644	1	1	0	0	0.12	0.051524	0.053087	0.24272	0.16915	0.073409	0.16324	0.17418	0.13263	0.18155	0.024954	0.094279	0.063662	0.16441	0.031433	0.063322	-4.2854	-5.0646	-4.7917	-4.9833	-5.1333	-4.6771	-4.9271	-5.2833	-4.6271	-5.1646	-4.9437	-4.5896	-5.3604	-4.8146	-4.7271	-5.2854	270.296	399.825	277.794	398.319	383.048	323.044	409.586	417.051	309.368	141.387	376.288	96.872	357.238	76.998	388.472	252.291	0.00055342	0.00054573	0.00017438	1480.8	7.9123e-06	4.5733e-06	1481.9	401.57	6.2398e-06	2.7487e-06	455.9	153.67	134.44	45.885	6.2987e-06	55.824	0.0005811	0.00056486	0.00015533	1508.1	6.2126e-06	6.1284e-06	1499.7	410.71	6.0826e-06	6.1771e-06	464.49	156.43	137.62	47.212	6.2202e-06	57.357	239.982	144.228	168.246	89.447	247.078	200.623	89.527	94.148	249.724	225.989	93.337	98.462	98.781	102.867	247.312	102.046	-8191	255	
585.740	1	1	0	0	0.050051	0.044048	0.077728	0.13752	0.2309	0.20964	0.12314	0.22262	0.37025	0.081724	0.1378	0.24134	0.11269	0.27959	0.16815	0.22964	-4.2063	-4.9229	-4.7646	-4.7583	-5.1229	-4.7562	-4.9812	-5.2271	-4.6521	-4.95	-5.1229	-4.725	-5.275	-4.7667	-4.7104	-5.2063	241.789	279.347	356.192	266.248	117.272	79.150	386.185	421.777	163.555	363.299	301.358	386.269	109.572	419.889	231.960	334.592	0.00057892	0.00080678	0.0001888	1487.6	6.031e-06	7.0326e-06	1480.1	402.17	6.1838e-06	7.0639e-06	453.47	152.51	134.56	45.792	5.4108e-06	55.787	0.00056611	0.00057247	0.00015925	1509.5	6.3125e-06	6.1877e-06	1501.5	410.51	6.282e-06	6.2462e-06	464.43	156.45	137.57	47.215	6.3196e-06	57.37	241.892	146.683	160.355	89.564	265.393	235.489	89.458	94.348	241.178	214.784	93.516	98.529	98.783	103.077	232.580	102.260	-8191	255	
585.812	1	1	0	0	0.13121	0.10265	0.11987	0.26878	0.14666	0.16872	0.11835	0.43784	0.083468	0.1643	0.28953	0.37766	0.25656	0.018501	0.12421	0.10534	-4.3542	-5.1021	-4.9958	-4.7542	-5.0437	-4.7292	-4.7875	-5.3583	-4.8167	-4.9396	-5.225	-4.5792	-5.1062	-5.0687	-4.6062	-5.2667	412.875	147.132	430.692	391.872	244.845	247.572	329.431	367.601	250.753	78.124	408.535	411.939	403.509	181.429	419.154	256.263	0.00056771	0.00046815	0.00014403	1486.2	7.1704e-06	6.5075e-06	1478.1	402.36	5.1705e-06	5.3997e-06	455.21	152.94	134.59	45.836	4.8867e-06	55.865	0.00057823	0.00057784	0.00015854	1509.8	6.3841e-06	6.2956e-06	1500.5	410.76	6.2843e-06	6.4352e-06	464.4	156.14	137.68	47.212	6.3965e-06	57.488	243.239	162.998	162.156	89.724	262.067	224.288	89.630	94.254	235.404	215.689	93.696	98.320	98.760	102.933	249.691	102.249	-8191	255	
585.933	1	1	0	0	0.18424	0.090321	0.088812	0.14486	0.18396	0.14849	0.090597	0.29404	0.050353	0.21388	0.036613	0.15423	0.33994	0.17891	0.14303	0.34492	-4.3271	-4.95	-5.0437	-4.6813	-5.0667	-4.8562	-4.8583	-5.3583	-4.7146	-5.1021	-5.3562	-4.7229	-5.1271	-5.0646	-4.6562	-5.4479	141.444	305.143	210.961	424.540	304.543	420.922	128.327	394.482	133.433	360.836	247.991	388.869	395.858	101.729	97.062	77.674	0.00053343	0.00035251	0.00020404	1484.6	8.8958e-06	7.9942e-06	1478.3	403.16	4.9055e-06	2.0146e-06	455.37	153.36	134.15	45.738	5.1014e-06	55.698	0.0005906	0.00059205	0.00016096	1510.5	6.4855e-06	6.4772e-06	1500	410.9	6.444e-06	6.5145e-06	464.82	156.58	137.56	47.137	6.5248e-06	57.34	242.625	137.688	155.375	89.571	255.963	239.563	89.519	94.416	257.103	268.107	93.746	98.480	99.021	103.115	242.554	102.129	-8191	255	
586.029	1	1	0	0	0.22051	0.1315	0.20662	0.27716	0.1327	0.074707	0.12838	0.071001	0.088227	0.27387	0.17721	0.47663	0.1937	0.21965	0.084105	0.094604	-4.3417	-4.7792	-5.1854	-4.8375	-4.9625	-5.1188	-4.8104	-5.3354	-4.7708	-4.7937	-5.3708	-4.7958	-5.0479	-5.15	-4.6292	-5.3125	270.679	182.773	263.716	88.855	95.328	307.790	392.871	414.520	147.269	260.036	389.188	371.519	356.002	79.312	198.982	349.135	0.0005384	0.00039705	0.00015425	1484.9	6.843e-06	4.7429e-06	1478.7	402.43	6.5133e-06	5.9269e-06	455.15	152.05	134.58	45.799	6.4416e-06	55.837	0.00060638	0.00060264	0.00016574	1509.4	6.5729e-06	6.4821e-06	1500.3	410.38	6.4981e-06	6.6999e-06	464.42	156.14	137.61	47.243	6.6938e-06	57.355	235.943	169.180	199.190	89.616	250.854	214.362	89.363	94.353	269.460	212.275	93.698	98.264	98.616	103.025	230.076	102.214	-8191	255	
586.125	1	1	0	0	0.062068	0.28354	0.19258	0.20188	0.18885	0.057253	0.15664	0.046437	0.24954	0.18267	0.16081	0.20389	0.10674	0.18673	0.13139	0.064066	-4.5458	-4.6604	-5.2771	-4.9479	-4.9896	-5.1771	-4.8021	-5.2125	-4.8958	-4.8375	-5.3271	-4.8771	-5.0687	-5.0792	-4.6458	-5.2083	167.509	222.079	428.248	392.370	80.157	393.566	392.010	313.559	122.707	173.577	373.691	405.985	245.810	143.953	312.204	349.915	0.00057482	0.00036761	0.00021684	1485.4	8.7979e-06	6.2292e-06	1486.7	402.73	7.3835e-06	3.8445e-06	453.83	152.67	134.61	45.734	6.6215e-06	55.822	0.00061214	0.00061185	0.00017371	1509.6	6.6746e-06	6.6275e-06	1504	410.49	6.6878e-06	6.7338e-06	464.67	156.12	137.42	47.17	6.6572e-06	57.395	239.822	172.971	170.215	89.495	230.266	267.253	89.431	94.323	263.130	192.329	93.669	98.308	98.766	103.095	254.270	102.054	-8191	255	
586.221	1	1	0	0	0.031398	0.077564	0.26467	0.15915	0.14345	0.2113	0.16546	0.18573	0.15538	0.2449	0.17944	0.15807	0.17479	0.053629	0.24048	0.13046	-4.5146	-4.5271	-5.1667	-5.1	-4.8146	-5.325	-4.8625	-5.2146	-5	-4.6167	-5.3375	-4.9521	-4.9313	-5.375	-4.6229	-5.175	395.066	172.581	262.248	413.588	218.488	428.559	365.007	385.253	165.946	266.257	419.473	368.946	414.745	357.707	288.699	389.481	0.00058986	0.00075348	0.00011037	1487.6	8.5648e-06	9.6633e-06	1481.4	400.31	4.3131e-06	6.8606e-06	455.13	152.54	133.83	45.661	6.4775e-06	55.859	0.00061946	0.00061522	0.00017058	1513	6.8376e-06	6.7246e-06	1501.3	410.3	6.6973e-06	6.711e-06	464.61	156.06	137.4	47.165	6.7377e-06	57.392	237.310	172.127	170.694	89.764	244.861	244.646	89.526	94.463	245.896	211.812	93.591	98.308	98.933	103.063	232.844	102.292	-8191	255	
586.340	1	1	0	0	0.2964	0.08872	0.084275	0.17192	0.23715	0.15015	0.27076	0.32679	0.093125	0.15806	0.087466	0.053952	0.17767	0.12609	0.01194	0.083047	-4.7625	-4.6479	-5.1687	-4.9875	-4.775	-5.1375	-4.9167	-5.1667	-5.0396	-4.6667	-5.175	-4.9062	-4.7646	-5.3208	-4.6813	-5.1104	361.047	291.534	226.829	394.222	94.716	206.305	386.690	370.115	97.278	294.993	94.852	129.294	89.039	399.745	246.896	336.861	0.00056322	0.00048928	0.00019269	1487.2	6.5097e-06	6.3836e-06	1480.6	402.44	6.5133e-06	7.1131e-06	454.59	153.09	134.85	45.805	6.9192e-06	55.986	0.00061472	0.00062111	0.00017286	1512	6.8156e-06	6.8217e-06	1502.3	410.81	6.7638e-06	6.9126e-06	464.69	156.2	137.44	47.168	6.8217e-06	57.444	236.839	138.238	178.165	89.555	218.314	246.268	89.538	94.528	248.960	214.667	93.635	98.417	99.037	103.084	255.221	102.162	-8191	255	
586.436	1	1	0	0	0.055473	0.22073	0.16923	0.1354	0.25689	0.047774	0.29404	0.088449	0.011356	0.19837	0.23461	0.16193	0.28526	0.11443	0.18235	0.13902	-4.7583	-4.4062	-5.1167	-5.2042	-4.6729	-5.1646	-4.9625	-4.9708	-5.0938	-4.4917	-5.2021	-5.0625	-4.6813	-5.3333	-4.7354	-5.0479	130.284	252.254	227.382	333.684	139.261	354.377	335.910	403.424	133.050	248.161	301.951	431.819	405.551	393.216	117.405	408.364	0.00057444	0.00070819	0.00012219	1486.2	5.2995e-06	9.0406e-06	1480.6	401.06	6.5548e-06	8.1832e-06	454.7	152.72	134.56	45.764	3.4275e-06	55.682	0.00062588	0.00063063	0.00017609	1511.2	6.8706e-06	6.8735e-06	1502.1	410.66	6.8299e-06	6.8654e-06	464.85	156.16	137.54	47.12	6.9097e-06	57.352	243.533	164.960	187.161	89.575	284.019	207.939	89.495	94.257	243.254	207.424	93.747	98.369	98.885	102.976	251.606	102.104	-8191	255	
586.508	1	1	0	0	0.092641	0.046205	0.16602	0.28017	0.27882	0.1856	0.25004	0.11363	0.033685	0.24598	0.1608	0.1406	0.39914	0.11553	0.031904	0.24149	-4.7937	-4.6375	-5.0875	-5.0875	-4.6167	-5.1813	-5.0687	-4.975	-5.1979	-4.5813	-5.075	-5.025	-4.725	-5.3146	-4.8375	-4.8771	322.415	150.962	117.213	427.776	231.984	276.375	380.700	386.227	378.792	280.161	305.584	117.201	386.584	357.937	331.402	147.163	0.00055208	0.00077232	0.00020406	1487.7	9.0555e-06	6.5295e-06	1481.6	403.16	5.7412e-06	4.1001e-06	455.65	151.85	134.44	45.644	5.9913e-06	55.872	0.00062952	0.00062989	0.00017881	1514.1	6.9699e-06	6.9232e-06	1503	411.06	6.8972e-06	6.8218e-06	465.02	155.94	137.25	47.046	6.9028e-06	57.31	237.015	158.632	172.201	89.542	232.827	233.796	89.510	94.278	266.407	169.326	93.699	98.407	98.758	102.997	279.303	102.137	-8191	255	
586.606	1	1	0	0	0.35843	0.099426	0.15926	0.14097	0.055886	0.30219	0.14857	0.16824	0.22683	0.12586	0.34999	0.29826	0.029707	0.25571	0.14005	0.25924	-4.8792	-4.5563	-5.0458	-5.2458	-4.5188	-5.1937	-5.0542	-5.0542	-5.2292	-4.6708	-5.1021	-5.1792	-4.5687	-5.1917	-4.8104	-4.775	283.869	367.722	327.900	395.677	202.061	144.895	408.008	433.340	125.873	303.551	409.684	421.546	346.956	414.269	392.552	335.422	0.00053152	0.00053762	0.00012206	1485.5	3.9885e-06	4.7e-06	1481	401.66	7.2161e-06	6.3898e-06	454.65	152.59	134.4	45.768	5.8247e-06	55.644	0.00063093	0.00063975	0.00017903	1512	6.9578e-06	7.0169e-06	1502	410.62	7.0265e-06	6.9102e-06	464.93	156.04	137.58	47.065	6.9095e-06	57.304	241.082	135.100	162.317	89.453	215.084	223.740	89.342	94.345	267.022	253.133	93.667	98.212	98.954	102.913	240.131	102.134	-8191	255	
586.724	1	1	0	0	0.26923	0.26158	0.14772	0.37632	0.15723	0.13524	0.2769	0.13107	0.17056	0.16191	0.11755	0.21329	0.17807	0.081361	0.20654	0.011221	-4.9104	-4.7208	-4.8875	-5.35	-4.6396	-5.1479	-5.1854	-4.7021	-5.2958	-4.6854	-4.9521	-5.2146	-4.7292	-5.0312	-4.8896	-4.9021	196.498	324.789	216.226	378.246	297.678	409.401	427.430	414.495	372.581	257.488	174.062	360.426	397.443	342.328	144.096	237.745	0.00054244	0.00072068	0.00010681	1488.2	6.1304e-06	8.1463e-06	1478.4	401.6	5.5854e-06	1.2481e-06	454.96	152.92	133.87	45.625	4.553e-06	55.723	0.0006316	0.00063431	0.00017876	1512.2	6.8905e-06	6.9611e-06	1500.3	410.58	6.7332e-06	6.7918e-06	464.1	156.1	137.37	47.097	6.7547e-06	57.373	236.677	149.164	182.386	89.719	223.723	244.742	89.393	94.313	259.187	259.230	93.639	98.355	98.847	103.243	248.124	102.200	-8191	255	
586.821	1	1	0	0	0.2324	0.13176	0.18894	0.11323	0.14502	0.41536	0.21569	0.23906	0.18119	0.069729	0.40997	0.23268	0.20313	0.25397	0.18278	0.23336	-4.9229	-4.7083	-4.7958	-5.1625	-4.6833	-4.8833	-5.1271	-4.7688	-5.2292	-4.9667	-4.8125	-5.3187	-4.8146	-5.2063	-5.0479	-4.7729	342.028	379.465	213.611	109.757	207.498	87.247	397.267	422.592	271.669	102.934	382.621	428.586	82.875	402.195	356.484	337.331	0.00060865	0.00076077	0.00017708	1488.5	5.2458e-06	5.627e-06	1479.6	402.81	7.3263e-06	8.7159e-06	452.61	152.85	133.75	45.616	6.9527e-06	55.736	0.00063029	0.00063298	0.00017784	1512.6	6.9992e-06	6.9702e-06	1500.4	411.17	6.9727e-06	6.8687e-06	463.8	156.13	137.15	47.073	6.8776e-06	57.344	239.179	149.849	161.639	89.753	234.658	225.753	89.305	94.230	264.298	225.246	93.673	98.236	98.710	103.069	258.432	102.227	-8191	255	
586.917	1	1	0	0	0.084817	0.03297	0.094699	0.30915	0.13771	0.2163	0.213	0.1466	0.15524	0.1214	0.2747	0.26001	0.22891	0.24294	0.10971	0.14765	-4.8125	-4.9208	-4.6479	-5.3313	-4.6833	-4.9771	-5.3604	-4.7667	-5.1979	-4.7646	-4.8917	-5.3812	-4.7604	-5.0375	-5.075	-4.65	126.847	132.327	155.508	79.221	186.838	367.109	292.502	89.055	287.207	420.013	352.770	238.583	417.276	428.413	197.313	345.072	0.00057631	0.00058563	0.00017019	1483.7	4.9279e-06	5.923e-06	1480.1	402.01	4.6856e-06	6.8663e-06	455.53	153.18	134.3	45.845	2.5453e-06	55.688	0.00062653	0.00062882	0.00017103	1511	6.8152e-06	6.8613e-06	1502	410.8	6.8736e-06	6.846e-06	464.64	156.32	137.47	47.141	6.7675e-06	57.351	242.531	137.351	175.844	89.612	233.888	225.789	89.222	94.346	235.654	215.656	93.611	98.354	98.788	102.946	280.224	102.325	-8191	255	
587.037	1	1	0	0	0.17913	0.099367	0.025115	0.13551	0.10247	0.13306	0.20871	0.21718	0.038631	0.154	0.1942	0.098561	0.13334	0.2218	0.074855	0.19192	-4.8542	-4.9396	-4.5813	-5.375	-4.7417	-4.8396	-5.4167	-4.6917	-5.1479	-5.0458	-4.8292	-5.2146	-4.8625	-4.9854	-5.0104	-4.8	340.683	431.538	296.883	118.519	107.641	347.884	305.510	159.628	161.896	317.943	381.730	415.626	82.581	129.943	357.056	126.923	0.00060669	0.00034474	0.00023929	1488.3	1.1137e-05	2.1564e-06	1479.1	401.76	5.0389e-06	5.4905e-06	455.58	152.79	134.04	45.732	7.5601e-06	55.857	0.00063037	0.00061513	0.00017211	1511.6	6.8206e-06	6.791e-06	1500.8	410.76	6.8833e-06	6.8151e-06	464.51	156.16	137.31	47.175	6.858e-06	57.43	240.958	161.303	150.426	89.549	244.799	319.288	89.442	94.439	254.470	214.576	93.497	98.234	98.668	103.077	239.521	102.025	-8191	255	
587.109	1	1	0	0	0.19958	0.20302	0.078581	0.21408	0.020733	0.091766	0.25356	0.16828	0.15399	0.16223	0.088592	0.02945	0.10928	0.2502	0.13426	0.12979	-4.7875	-5.0146	-4.7375	-5.3958	-4.7792	-4.8667	-5.3729	-4.6833	-4.8417	-4.9833	-4.6042	-5.1708	-5.0333	-4.9042	-5.2646	-4.6062	427.542	171.936	397.012	418.965	327.981	140.621	387.823	93.025	384.625	369.761	346.129	323.079	90.694	349.166	122.593	332.284	0.00056606	0.00041126	0.00027967	1487.7	8.593e-06	8.4049e-06	1479.3	401.21	5.1932e-06	4.2201e-06	455.84	152.63	134.48	45.728	3.7572e-06	55.726	0.00062673	0.00062123	0.00017454	1513.3	6.7892e-06	6.802e-06	1502	410.04	6.8668e-06	6.7626e-06	465.19	156.15	137.62	47.17	6.8466e-06	57.337	241.376	165.484	164.860	89.698	236.303	257.072	89.415	94.202	245.377	210.587	93.614	98.415	98.857	103.005	219.299	102.317	-8191	255	
587.205	1	1	0	0	0.20272	0.069868	0.1687	0.031424	0.14406	0.21325	0.1409	0.23753	0.17327	0.11864	0.06862	0.28196	0.27831	0.20038	0.099641	0.259	-4.6021	-5.1062	-4.4229	-5.2792	-4.8729	-4.7042	-5.3375	-4.7979	-4.775	-5.1292	-4.5208	-5.0917	-4.9083	-4.6813	-5.2521	-4.8167	268.216	393.549	384.943	157.329	195.021	329.306	319.993	409.488	362.873	396.344	402.177	433.358	431.829	397.258	426.895	418.314	0.00057435	0.00048392	0.00017463	1488.2	8.6577e-06	6.0167e-06	1477.6	402.15	4.4409e-06	7.5367e-06	454.31	152.51	134.55	45.804	4.1322e-06	55.648	0.00062845	0.00063132	0.00017681	1512.3	6.8808e-06	6.9159e-06	1501.1	410.69	6.9397e-06	6.7992e-06	464.12	156.23	137.17	47.135	6.9455e-06	57.353	241.568	189.083	193.809	89.620	252.910	246.679	89.530	94.389	264.491	227.082	93.645	98.446	98.889	103.251	249.451	102.258	-8191	255	
587.326	1	1	0	0	0.13738	0.11764	0.11283	0.26937	0.065211	0.22987	0.17468	0.22967	0.023662	0.072444	0.21383	0.35277	0.11401	0.20464	0.14031	0.16422	-4.4	-5.1229	-4.6042	-5.1396	-4.8792	-4.6958	-5.2708	-4.9479	-4.6292	-5.1062	-4.7771	-5.0896	-5.1625	-4.7229	-5.0792	-4.7042	118.470	389.000	388.339	408.605	368.676	334.024	358.921	396.746	131.539	331.101	380.719	372.506	421.112	427.095	165.002	404.113	0.00061945	0.00044695	9.6852e-05	1486.6	7.1087e-06	9.8578e-06	1483.5	401.56	4.9397e-06	5.4114e-06	456.88	152.08	134.24	45.687	6.2918e-06	55.684	0.00063078	0.00063997	0.00017568	1511.5	6.8978e-06	6.9108e-06	1503.6	410.81	6.7838e-06	6.8769e-06	465.19	156.03	137.41	47.15	6.8504e-06	57.383	240.058	183.461	162.112	89.571	213.487	242.294	89.370	94.496	235.485	249.232	93.623	98.590	98.924	103.026	221.917	102.164	-8191	255	
587.420	1	1	0	0	0.30536	0.0094731	0.094267	0.31903	0.079358	0.29745	0.12179	0.027803	0.10617	0.12628	0.27246	0.21993	0.20054	0.15396	0.10822	0.21249	-4.4521	-5.3187	-4.6104	-5.1208	-5.1188	-4.5729	-5.3604	-4.8625	-4.7146	-5.3104	-4.775	-5.0021	-5.1771	-4.6333	-5.0062	-4.925	225.837	292.007	112.348	361.651	368.207	420.561	372.524	406.741	102.306	115.279	417.904	87.647	392.242	420.996	227.284	355.611	0.00053183	0.00048642	0.00016799	1490.3	5.2226e-06	9.934e-06	1482.5	403.3	5.2388e-06	5.9272e-06	454.14	152.07	134.58	45.823	6.2903e-06	55.814	0.00061773	0.00062826	0.00017395	1513.5	6.8089e-06	6.7594e-06	1500.9	410.51	6.8197e-06	6.8945e-06	464.35	155.78	137.49	47.141	6.7877e-06	57.279	240.220	181.871	189.789	89.691	274.198	240.541	89.521	94.297	221.673	227.404	93.580	98.497	98.735	102.929	235.964	102.461	-8191	255	
587.516	1	1	0	0	0.14755	0.077097	0.078218	0.34599	0.09217	0.1385	0.26722	0.14585	0.10546	0.298	0.12913	0.33874	0.10004	0.37272	0.059858	0.10075	-4.3896	-5.1625	-4.7375	-5.2208	-5.1125	-4.5542	-5.1813	-5.0625	-4.6333	-5.4083	-4.9667	-4.8146	-5.2167	-4.5583	-5.0458	-5.0125	412.376	321.961	328.385	405.755	325.396	367.187	373.677	323.910	225.937	262.438	292.326	404.239	350.858	129.715	383.869	79.322	0.00057161	0.00068338	7.9873e-05	1486.5	5.6188e-06	4.5263e-06	1480.1	401.1	5.9684e-06	5.5076e-06	453.7	152.48	134.42	45.578	6.7635e-06	55.773	0.00062386	0.0006315	0.00017438	1512.3	6.7834e-06	6.7289e-06	1502.7	410.16	6.7235e-06	6.8327e-06	463.96	155.95	137.39	47.103	6.8317e-06	57.358	243.534	128.392	134.268	89.653	211.221	251.460	89.600	94.534	254.593	230.298	93.663	98.265	98.891	103.034	246.032	102.358	-8191	255	
587.637	1	1	0	0	0.07008	0.07431	0.1834	0.31056	0.20189	0.074679	0.20774	0.18466	0.27068	0.46575	0.15656	0.11201	0.068915	0.1441	0.19303	0.067497	-4.1813	-5.1375	-4.6312	-4.9917	-5.0917	-4.4625	-5.1833	-5.1896	-4.5687	-5.1708	-4.9417	-5.025	-5.2542	-4.6792	-5.0437	-5.2063	279.591	279.307	399.479	312.238	435.178	94.366	409.283	394.993	81.260	290.675	392.456	116.736	396.400	115.912	95.278	385.448	0.000567	0.0005567	0.0002349	1487.3	5.5714e-06	6.9913e-06	1480.8	402.7	7.1533e-06	5.7584e-06	454.6	152.96	134.2	45.83	4.755e-06	55.488	0.00062829	0.00063162	0.0001733	1512.1	6.8302e-06	6.7723e-06	1502.4	410.82	6.8144e-06	6.7926e-06	464.11	156.21	137.52	47.107	6.7901e-06	57.294	239.397	166.935	164.310	89.546	248.061	256.188	89.488	94.401	248.038	230.853	93.441	98.411	98.793	102.989	252.191	102.198	-8191	255	
587.709	1	1	0	0	0.083806	0.23136	0.23323	0.10647	0.34765	0.14839	0.31775	0.05429	0.055029	0.050393	0.12367	0.21126	0.29832	0.025164	0.20996	0.18156	-4.3104	-5.1521	-4.8063	-4.8562	-5.0583	-4.6771	-5.0875	-5.025	-4.4938	-5.2479	-4.9333	-4.6583	-5.2562	-4.7354	-4.7188	-5.1021	153.801	87.482	347.661	120.485	421.393	220.768	405.017	369.184	290.331	431.895	354.996	401.750	213.337	328.243	130.810	152.747	0.00054214	0.00049326	0.00011803	1490.4	8.9491e-06	8.3031e-06	1478.2	402.29	5.9392e-06	5.2876e-06	455.7	152.29	134.09	45.699	5.6043e-06	55.439	0.00062297	0.00063023	0.00017518	1512.1	6.8498e-06	6.8955e-06	1500.4	410.51	6.8188e-06	6.8961e-06	464.46	155.86	137.32	47.098	6.8852e-06	57.251	242.100	171.840	146.227	89.635	243.065	247.569	89.431	94.233	272.811	254.990	93.529	98.455	98.787	103.054	233.626	102.229	-8191	255	
587.805	1	1	0	0	0.070817	0.16835	0.30988	0.24074	0.078201	0.22717	0.16269	0.22302	0.19221	0.17081	0.26702	0.10886	0.22369	0.25145	0.082252	0.14013	-4.3333	-5.1021	-4.9083	-4.8729	-5.2792	-4.5917	-5.0062	-5.3187	-4.6479	-4.9667	-4.9396	-4.6042	-5.2583	-4.8812	-4.8187	-5.1667	365.922	337.944	210.733	380.511	81.717	400.547	345.210	353.125	347.552	101.651	396.919	335.325	435.369	394.207	276.880	86.540	0.00056713	0.00044825	0.00020692	1484.7	8.5094e-06	6.2066e-06	1479.5	402.49	6.4716e-06	4.1928e-06	455.79	152.56	134.14	45.805	5.2206e-06	55.666	0.00062793	0.00063946	0.00017416	1510.1	6.8522e-06	6.6996e-06	1502.2	410.65	6.7519e-06	6.835e-06	464.81	156.05	137.22	47.066	6.7736e-06	57.305	242.453	159.803	156.845	89.535	241.417	229.902	89.550	94.392	270.462	240.693	93.581	98.484	98.956	103.119	241.150	102.221	-8191	255	
587.901	1	1	0	0	0.1098	0.20031	0.093255	0.32367	0.036143	0.33559	0.46058	0.20742	0.14918	0.15104	0.12864	0.086288	0.031107	0.19387	0.11276	0.1495	-4.1813	-4.9792	-4.8938	-4.7417	-5.2312	-4.95	-5.0563	-5.1646	-4.7583	-5.0563	-5.0771	-4.5813	-5.2875	-4.9458	-4.7104	-5.2854	418.837	368.755	193.613	345.422	272.958	229.342	366.600	418.379	345.735	97.956	374.918	92.769	320.508	101.219	315.074	77.835	0.0005421	0.00049303	0.00016401	1488.2	9.4663e-06	6.0599e-06	1480.5	402.29	4.0602e-06	9.8445e-06	454.26	152.47	133.99	45.571	7.1337e-06	55.932	0.00062423	0.00063312	0.00017498	1513.5	6.9259e-06	6.8342e-06	1502.5	410.43	6.7681e-06	7.0171e-06	464.32	156.08	137.16	47.071	6.8194e-06	57.469	240.922	167.246	173.043	89.509	242.692	228.455	89.575	94.233	262.418	197.051	93.553	98.271	98.822	103.003	249.156	102.361	-8191	255	
588.022	1	1	0	0	0.18132	0.16404	0.11683	0.017394	0.079935	0.18957	0.11641	0.11858	0.065461	0.13641	0.15067	0.13449	0.25212	0.16084	0.11519	0.31012	-4.3833	-4.9625	-4.9958	-4.725	-5.1292	-5.0604	-4.8292	-5.3729	-4.6167	-4.8896	-5.1542	-4.6792	-5.1188	-5.1188	-4.5813	-5.1521	206.504	276.197	311.716	402.221	149.069	84.424	362.005	395.818	163.888	271.564	131.468	376.453	395.664	318.906	142.346	402.306	0.00058893	0.00084247	0.00014792	1484.8	8.621e-06	6.864e-06	1478.5	402.07	8.2806e-06	4.6573e-06	456.92	153.18	134.04	45.557	7.4553e-06	55.624	0.00061932	0.00063175	0.00017473	1510.9	6.8672e-06	6.7414e-06	1501	410.54	6.7787e-06	6.8515e-06	465.82	156.25	137.51	47.048	6.96e-06	57.298	240.267	159.800	142.314	89.600	241.125	221.670	89.404	94.395	269.248	228.450	93.633	98.510	98.835	103.179	240.919	102.159	-8191	255	
588.118	1	1	0	0	0.14959	0.057219	0.028403	0.13646	0.10671	0.028908	0.33587	0.24381	0.092405	0.20794	0.11326	0.23135	0.068735	0.089676	0.1553	0.093251	-4.4333	-4.8417	-5.2896	-4.8042	-5.1	-4.9917	-4.9083	-5.4042	-4.7	-4.6979	-5.3896	-4.8292	-5.0687	-5.2042	-4.7958	-5.3	166.007	235.106	197.222	409.830	123.650	131.353	373.015	297.135	394.145	344.201	435.838	329.811	98.029	353.429	229.978	350.368	0.00057914	0.00026875	0.00011118	1486.4	6.6358e-06	8.8191e-06	1478.4	401.43	3.9586e-06	5.2749e-06	454.61	152.12	134.76	45.731	5.7806e-06	55.757	0.00062258	0.00064224	0.00017368	1511.6	6.8429e-06	6.7968e-06	1501	410.53	6.812e-06	6.9102e-06	465.02	155.92	137.49	47.125	6.8257e-06	57.401	239.065	158.010	141.982	89.534	231.623	231.490	89.401	94.276	231.762	227.920	93.486	98.453	98.885	103.037	242.587	102.172	-8191	255	
588.214	1	1	0	0	0.12506	0.034389	0.2066	0.28478	0.20526	0.23484	0.1443	0.27953	0.13913	0.13735	0.40385	0.16608	0.1559	0.091596	0.17164	0.034521	-4.5875	-4.7	-5.0708	-4.8521	-4.9563	-5.1479	-4.8125	-5.3063	-4.9833	-4.7312	-5.3625	-4.7208	-4.8938	-5.35	-4.6687	-5.2063	131.718	212.359	387.823	433.380	163.084	208.919	378.653	409.828	227.499	146.594	395.086	414.913	385.286	245.144	282.991	134.552	0.00056018	0.0006762	0.0002111	1486.4	7.2604e-06	6.4464e-06	1479.8	401.84	5.8976e-06	5.1312e-06	455.13	152.74	134.19	45.674	3.7265e-06	55.67	0.00062512	0.00064496	0.00017581	1511.2	6.9033e-06	6.8514e-06	1502	410.19	6.8165e-06	6.9004e-06	464.74	156	137.38	47.129	6.7865e-06	57.285	243.075	211.229	183.612	89.500	248.111	225.504	89.441	94.375	266.724	232.517	93.722	98.410	98.715	103.110	247.861	102.227	-8191	255	
588.310	1	1	0	0	0.15927	0.11442	0.19703	0.28907	0.072289	0.1153	0.31468	0.24256	0.12491	0.10804	0.20646	0.18871	0.18524	0.14967	0.1046	0.14393	-4.4292	-4.5479	-5.175	-4.9479	-4.9958	-5.0479	-4.6687	-5.2479	-4.8313	-4.7167	-5.2812	-4.7667	-4.8771	-5.2937	-4.6833	-5.1042	282.238	222.080	213.752	384.619	102.745	430.266	367.284	345.799	122.884	139.003	101.420	356.066	375.345	410.773	181.547	423.705	0.00055008	0.00060287	0.00017326	1485	6.6509e-06	5.2066e-06	1480.9	402.07	4.86e-06	2.3811e-06	454.09	152.9	134.07	45.608	6.4695e-06	55.893	0.00062164	0.00063401	0.00017506	1509.5	7.0116e-06	6.7892e-06	1501.2	410.98	6.7974e-06	6.8569e-06	464.26	155.88	137.26	47.124	6.7949e-06	57.348	240.132	148.555	169.663	89.518	236.159	238.764	89.484	94.200	257.029	263.760	93.627	98.291	98.773	103.220	249.248	102.132	-8191	255	
588.406	1	1	0	0	0.24247	0.076736	0.079971	0.13967	0.10369	0.076552	0.29784	0.079017	0.07736	0.27323	0.18538	0.091466	0.25347	0.38209	0.10438	0.10945	-4.5646	-4.6479	-5.1062	-4.9417	-4.7937	-5.2583	-4.7792	-5.275	-5.1667	-4.6833	-5.3042	-4.8896	-4.8187	-5.2729	-4.5229	-5.1188	427.931	345.657	369.925	378.726	186.850	270.129	309.563	337.241	121.752	281.335	305.992	155.433	435.089	89.518	169.687	141.020	0.00052405	0.0004694	0.0002611	1488.4	5.06e-06	3.161e-06	1483.1	402.16	5.9819e-06	4.6423e-06	455.95	152.32	133.79	45.738	6.1744e-06	55.584	0.00061921	0.00063392	0.00017595	1512	6.8677e-06	6.8695e-06	1501.8	411.11	6.7819e-06	6.8755e-06	465.52	155.8	137.32	47.145	6.711e-06	57.313	242.548	148.158	179.853	89.635	236.178	258.065	89.437	94.286	239.168	207.725	93.700	98.374	98.985	102.924	241.529	102.209	-8191	255	
588.501	1	1	0	0	0.091116	0.074358	0.1752	0.26798	0.037309	0.088334	0.35267	0.091601	0.074933	0.34459	0.14768	0.077497	0.24919	0.33533	0.064123	0.084045	-4.8479	-4.5708	-5.0667	-4.9354	-4.7771	-5.2083	-4.7833	-5.0375	-4.9896	-4.6104	-5.25	-5.0042	-4.6958	-5.2812	-4.4437	-4.8396	210.264	198.919	311.277	431.246	237.861	320.627	122.124	361.632	100.078	237.047	330.668	338.628	120.326	311.206	241.410	435.612	0.00056489	0.00056859	0.00025859	1485.3	5.2723e-06	2.0399e-06	1483.5	401.94	5.1914e-06	6.7804e-06	455.31	152.09	133.99	45.579	5.499e-06	55.677	0.00062255	0.00062693	0.00017744	1510.5	6.8764e-06	6.8478e-06	1501.6	410.28	6.8028e-06	6.9363e-06	464.64	155.85	137.21	47.038	6.8101e-06	57.309	240.849	179.316	163.917	89.735	215.073	236.181	89.596	94.250	264.801	181.630	93.758	98.376	98.743	103.094	249.755	102.140	-8191	255	
588.599	1	1	0	0	0.043509	0.062488	0.081724	0.43039	0.076256	0.13178	0.12881	0.11789	0.071409	0.24162	0.19833	0.18172	0.26387	0.0012777	0.16979	0.18889	-4.9	-4.4646	-4.8438	-5.2458	-4.5687	-5.2667	-5.0396	-4.9396	-5.1062	-4.5979	-5.1271	-5.1708	-4.6021	-5.2729	-4.9208	-4.8938	216.687	114.084	102.129	420.061	162.322	132.276	363.862	298.125	359.943	204.346	430.610	339.513	78.807	180.000	158.064	410.432	0.00051926	0.00057248	0.00017688	1486.6	7.1279e-06	6.1892e-06	1479.9	401.9	5.1044e-06	6.0375e-06	455.04	152.14	134.52	45.645	5.9116e-06	55.524	0.00062629	0.0006311	0.00017626	1511.2	6.9393e-06	6.9508e-06	1500.6	410.58	6.7956e-06	6.6833e-06	464.66	155.99	137.44	47.07	6.6608e-06	57.295	242.388	170.118	158.417	89.749	216.084	232.878	89.506	94.480	248.487	224.109	93.410	98.552	98.928	103.088	240.400	102.167	-8191	255	
588.717	1	1	0	0	0.043076	0.19306	0.16869	0.26863	0.058009	0.2208	0.10723	0.09257	0.049879	0.093522	0.18132	0.29072	0.11888	0.3795	0.22869	0.12325	-4.8354	-4.6229	-4.8979	-5.1625	-4.5375	-5.1583	-5.1042	-4.8	-5.1833	-4.65	-5.0479	-5.0833	-4.7583	-5.425	-4.85	-4.7562	95.467	130.173	354.963	89.727	331.556	340.861	418.997	350.251	252.454	191.734	421.724	411.956	95.493	155.671	404.662	317.062	0.00056108	0.00043456	0.00024783	1487.3	1.0732e-05	9.6477e-06	1483.7	402.96	5.0906e-06	5.5276e-06	455.25	152.16	133.92	45.7	6.8105e-06	55.738	0.00061097	0.00060897	0.00017163	1511.1	6.687e-06	6.7369e-06	1501.9	410.81	6.6718e-06	6.7482e-06	464.6	155.75	137.21	47.083	6.7197e-06	57.42	243.291	172.881	179.235	89.725	227.096	219.847	89.391	94.463	264.439	221.168	93.767	98.573	99.132	102.855	248.652	102.100	-8191	255	
588.814	1	1	0	0	0.088606	0.12084	0.15653	0.18822	0.14104	0.15986	0.12374	0.10725	0.16229	0.20482	0.17192	0.24961	0.33436	0.14912	0.25976	0.014015	-5.0229	-4.6854	-4.9271	-5.3	-4.5125	-5.1562	-5.1521	-4.6188	-5.1271	-4.8896	-5.0375	-5.2479	-4.6937	-5.1312	-4.8313	-4.8125	248.487	376.292	417.223	424.834	354.756	301.109	81.688	131.858	362.517	138.793	221.286	409.522	424.026	326.999	178.937	382.985	0.00055426	0.00047759	0.00020034	1486.3	6.0934e-06	6.882e-06	1479.5	401.9	5.0865e-06	5.0863e-06	455.14	152.5	134.17	45.601	4.3061e-06	55.655	0.00062063	0.00061549	0.00017268	1510.3	6.657e-06	6.7705e-06	1499.4	410.5	6.7928e-06	6.5947e-06	464.41	155.65	137.33	47.047	6.7083e-06	57.214	240.013	169.443	195.754	89.622	225.587	245.107	89.542	94.431	244.071	207.155	93.551	98.322	98.770	103.123	245.994	102.154	-8191	255	
588.910	1	1	0	0	0.059524	0.22891	0.091961	0.12912	0.21544	0.16994	0.31308	0.34252	0.34029	0.28697	0.12823	0.072639	0.14109	0.11873	0.14947	0.14463	-4.8083	-4.7083	-4.7104	-5.4854	-4.575	-5.2583	-5.2083	-4.6396	-5.3354	-4.7833	-4.8063	-5.3583	-4.6854	-5.0542	-5.1	-4.7271	112.523	347.008	280.530	379.494	86.707	362.370	386.848	76.911	174.490	378.936	366.633	386.506	431.270	406.924	170.906	309.735	0.00057289	0.00054607	5.7891e-05	1486.4	1.0655e-05	2.4778e-06	1475.4	401.15	2.9488e-06	3.3073e-06	455.05	152.47	133.96	45.655	6.3159e-06	55.769	0.00061699	0.00060722	0.0001726	1506.5	6.669e-06	6.6501e-06	1497.3	410.51	6.6179e-06	6.6781e-06	464.45	155.92	137.19	47.092	6.6331e-06	57.26	237.594	143.825	214.852	89.583	246.406	191.450	89.376	94.238	221.494	238.817	93.644	98.351	98.991	103.111	215.833	102.126	-8191	255	
589.006	1	1	0	0	0.20036	0.072937	0.17857	0.37492	0.15124	0.24087	0.31523	0.11443	0.14594	0.23089	0.18402	0.13297	0.065065	0.034459	0.16814	0.15754	-4.9354	-4.9292	-4.6562	-5.3646	-4.5146	-4.8917	-5.2229	-4.7042	-5.1417	-4.9062	-4.8354	-5.3229	-4.7396	-4.9187	-5.0917	-4.7396	373.275	341.983	160.291	395.234	384.563	226.003	370.202	372.040	395.022	431.271	361.984	145.440	148.871	112.801	170.703	381.078	0.0005453	0.00057975	0.00015727	1486.6	7.4719e-06	8.2037e-06	1478.1	401.89	5.8654e-06	5.9081e-06	454.85	152.25	133.94	45.544	6.0603e-06	55.606	0.00061525	0.00061433	0.00017466	1508.5	6.7002e-06	6.8163e-06	1498.3	410.75	6.6927e-06	6.6664e-06	464.22	155.73	137.15	47.024	6.6342e-06	57.254	243.708	145.965	149.504	89.524	249.206	235.441	89.557	94.536	259.390	181.524	93.561	98.500	98.897	102.923	243.340	102.206	-8191	255	
589.102	1	1	0	0	0.19554	0.1539	0.052869	0.17408	0.18264	0.18662	0.22725	0.197	0.1436	0.071661	0.10503	0.092794	0.096469	0.39926	0.13699	0.19956	-4.875	-4.9583	-4.6479	-5.3646	-4.7646	-4.9729	-5.3063	-4.7292	-5.1125	-4.8792	-4.8458	-5.3479	-4.8521	-4.9542	-5.0875	-4.6813	216.480	195.872	276.781	385.273	158.267	226.548	292.579	388.335	289.296	393.288	336.460	344.941	432.788	402.653	291.058	400.458	0.00058598	0.00085063	0.0001913	1481.2	6.8881e-06	5.1029e-06	1476.7	402.63	6.2859e-06	7.1157e-06	453.86	152.14	133.88	45.622	6.6176e-06	55.894	0.00062293	0.00061136	0.00016991	1505.4	6.7255e-06	6.6759e-06	1498	410.55	6.7162e-06	6.6449e-06	464.31	155.86	137.13	47.068	6.6449e-06	57.279	242.140	163.139	163.843	89.582	252.178	228.033	89.565	94.343	257.809	207.657	93.624	98.759	98.949	102.898	229.471	102.433	-8191	255	
589.198	1	1	0	0	0.21596	0.1231	0.03906	0.2597	0.027746	0.20689	0.30528	0.27238	0.14568	0.2334	0.12468	0.20894	0.17827	0.06411	0.24945	0.13965	-4.6687	-4.9708	-4.5583	-5.4333	-4.7375	-4.8625	-5.3729	-4.6	-5.1708	-5.0333	-4.5167	-5.2875	-5.0479	-4.8333	-5.1583	-4.6292	339.197	106.428	222.440	403.237	124.517	407.174	329.016	381.212	244.571	412.973	348.954	410.594	380.385	397.506	277.409	396.260	0.00056789	0.00079253	0.00013445	1481.9	6.3861e-06	7.1932e-06	1477.6	402.4	4.8392e-06	7.5529e-06	455.68	152.51	133.99	45.653	3.5371e-06	55.731	0.00061512	0.00060665	0.00017016	1507.9	6.6907e-06	6.732e-06	1498.7	410.51	6.6645e-06	6.6916e-06	464.75	156.06	137.39	47.114	6.6801e-06	57.26	240.424	166.094	143.833	89.567	263.125	226.185	89.606	94.364	251.817	242.188	93.514	98.366	98.771	103.263	247.626	102.405	-8191	255	
#DATA ENDS
