BOXY.EXE: ISS Imagent and Oximeter Data Acquisition Program Version 0.80
Ascii Record File

#ACQ INFORMATION
2  Detector Channels 
16  External MUX Channels 
1  Auxiliary Channels 
5000  Waveform (CCF) Frequency (Hz)
1  Waveforms Skipped 
30  Waveforms Averaged 
1  Cycles Averaged 
16  Acquisitions per Waveform 
10.0806  Updata Rate (Hz) 

#FILE INFORMATION
TRUE -- External MUX Channel results are PARSED.
FALSE -- AC DC and Phase are NOT grouped.
TRUE -- Companion Program Settings File CREATED.
FALSE -- AC data not excluded
FALSE -- DC data not excluded
FALSE -- Phase data not excluded
FALSE -- Auxillary Chn. data not excluded
Tab delimiters

#CALIBRATION STATE
TRUE -- Waveform Calibration Values APPLIED.


#AUX CALIBRATION VALUES
Val Type	aux-1	

Term	1.0000e+00	
Factor	0.0000e+00	


#WF CALIBRATION VALUES
A = Detector Channel
Val Type	A-AC1	A-AC2	A-AC3	A-AC4	A-AC5	A-AC6	A-AC7	A-AC8	A-AC9	A-AC10	A-AC11	A-AC12	A-AC13	A-AC14	A-AC15	A-AC16	A-DC1	A-DC2	A-DC3	A-DC4	A-DC5	A-DC6	A-DC7	A-DC8	A-DC9	A-DC10	A-DC11	A-DC12	A-DC13	A-DC14	A-DC15	A-DC16	A-Ph1	A-Ph2	A-Ph3	A-Ph4	A-Ph5	A-Ph6	A-Ph7	A-Ph8	A-Ph9	A-Ph10	A-Ph11	A-Ph12	A-Ph13	A-Ph14	A-Ph15	A-Ph16	

Term	0.00000e+00	0.00000e+00	0.00000e+00	0.00000e+00	0.00000e+00	0.00000e+00	0.00000e+00	0.00000e+00	0.00000e+00	0.00000e+00	0.00000e+00	0.00000e+00	0.00000e+00	0.00000e+00	0.00000e+00	0.00000e+00	0.00000e+00	0.00000e+00	0.00000e+00	0.00000e+00	0.00000e+00	0.00000e+00	0.00000e+00	0.00000e+00	0.00000e+00	0.00000e+00	0.00000e+00	0.00000e+00	0.00000e+00	0.00000e+00	0.00000e+00	0.00000e+00	0.00000e+00	0.00000e+00	0.00000e+00	0.00000e+00	0.00000e+00	0.00000e+00	0.00000e+00	0.00000e+00	0.00000e+00	0.00000e+00	0.00000e+00	0.00000e+00	0.00000e+00	0.00000e+00	0.00000e+00	0.00000e+00	
Factor	1.00000e+00	1.00000e+00	1.00000e+00	1.00000e+00	1.00000e+00	1.00000e+00	1.00000e+00	1.00000e+00	1.00000e+00	1.00000e+00	1.00000e+00	1.00000e+00	1.00000e+00	1.00000e+00	1.00000e+00	1.00000e+00	1.00000e+00	1.00000e+00	1.00000e+00	1.00000e+00	1.00000e+00	1.00000e+00	1.00000e+00	1.00000e+00	1.00000e+00	1.00000e+00	1.00000e+00	1.00000e+00	1.00000e+00	1.00000e+00	1.00000e+00	1.00000e+00	X	X	X	X	X	X	X	X	X	X	X	X	X	X	X	X	

B = Detector Channel
Val Type	B-AC1	B-AC2	B-AC3	B-AC4	B-AC5	B-AC6	B-AC7	B-AC8	B-AC9	B-AC10	B-AC11	B-AC12	B-AC13	B-AC14	B-AC15	B-AC16	B-DC1	B-DC2	B-DC3	B-DC4	B-DC5	B-DC6	B-DC7	B-DC8	B-DC9	B-DC10	B-DC11	B-DC12	B-DC13	B-DC14	B-DC15	B-DC16	B-Ph1	B-Ph2	B-Ph3	B-Ph4	B-Ph5	B-Ph6	B-Ph7	B-Ph8	B-Ph9	B-Ph10	B-Ph11	B-Ph12	B-Ph13	B-Ph14	B-Ph15	B-Ph16	

Term	0.00000e+00	0.00000e+00	0.00000e+00	0.00000e+00	0.00000e+00	0.00000e+00	0.00000e+00	0.00000e+00	0.00000e+00	0.00000e+00	0.00000e+00	0.00000e+00	0.00000e+00	0.00000e+00	0.00000e+00	0.00000e+00	0.00000e+00	0.00000e+00	0.00000e+00	0.00000e+00	0.00000e+00	0.00000e+00	0.00000e+00	0.00000e+00	0.00000e+00	0.00000e+00	0.00000e+00	0.00000e+00	0.00000e+00	0.00000e+00	0.00000e+00	0.00000e+00	3.03170e+01	-1.34724e+02	-1.27932e+02	-1.82266e+02	-4.76488e+01	-6.90094e+01	-1.59596e+02	-1.62015e+02	-4.82662e+01	-6.52017e+01	-1.73491e+02	-1.72470e+02	-1.88213e+02	-1.78020e+02	-6.30940e+01	-1.50683e+02	
Factor	5.14188e-05	1.87168e-04	5.65238e-05	1.57734e-01	3.11148e-06	2.16949e-06	1.91180e-01	6.53815e-02	2.92785e-06	2.20569e-06	1.20884e-01	3.37897e-02	4.17484e-02	1.00664e-02	2.34221e-06	1.47298e-02	1.45362e-05	2.14116e-05	5.95745e-06	7.83540e-02	2.10188e-07	2.34979e-07	8.82937e-02	3.25466e-02	2.14543e-07	2.37778e-07	5.83855e-02	1.62649e-02	2.06882e-02	5.06822e-03	2.22241e-07	7.17577e-03	X	X	X	X	X	X	X	X	X	X	X	X	X	X	X	X	



#DISTANCE SETTINGS
A = Detector Channel
A-1	A-2	A-3	A-4	A-5	A-6	A-7	A-8	A-9	A-10	A-11	A-12	A-13	A-14	A-15	A-16	

2.5000e+00	3.0000e+00	2.5000e+00	3.0000e+00	2.0000e+00	3.0000e+00	1.5000e+00	3.0000e+00	3.0000e+00	3.0000e+00	3.0000e+00	3.0000e+00	3.0000e+00	3.0000e+00	1.5000e+00	3.0000e+00	

B = Detector Channel
B-1	B-2	B-3	B-4	B-5	B-6	B-7	B-8	B-9	B-10	B-11	B-12	B-13	B-14	B-15	B-16	

1.0000e+01	1.0000e+01	1.0000e+01	1.4400e+00	1.0000e+01	1.0000e+01	1.5100e+00	1.9400e+00	1.0000e+01	1.0000e+01	1.9900e+00	2.4900e+00	2.4100e+00	2.9000e+00	1.0000e+01	2.9800e+00	




#DATA BEGINS
time	group	step	mark	flag	A-AC1	A-AC2	A-AC3	A-AC4	A-AC5	A-AC6	A-AC7	A-AC8	A-AC9	A-AC10	A-AC11	A-AC12	A-AC13	A-AC14	A-AC15	A-AC16	A-DC1	A-DC2	A-DC3	A-DC4	A-DC5	A-DC6	A-DC7	A-DC8	A-DC9	A-DC10	A-DC11	A-DC12	A-DC13	A-DC14	A-DC15	A-DC16	A-Ph1	A-Ph2	A-Ph3	A-Ph4	A-Ph5	A-Ph6	A-Ph7	A-Ph8	A-Ph9	A-Ph10	A-Ph11	A-Ph12	A-Ph13	A-Ph14	A-Ph15	A-Ph16	B-AC1	B-AC2	B-AC3	B-AC4	B-AC5	B-AC6	B-AC7	B-AC8	B-AC9	B-AC10	B-AC11	B-AC12	B-AC13	B-AC14	B-AC15	B-AC16	B-DC1	B-DC2	B-DC3	B-DC4	B-DC5	B-DC6	B-DC7	B-DC8	B-DC9	B-DC10	B-DC11	B-DC12	B-DC13	B-DC14	B-DC15	B-DC16	B-Ph1	B-Ph2	B-Ph3	B-Ph4	B-Ph5	B-Ph6	B-Ph7	B-Ph8	B-Ph9	B-Ph10	B-Ph11	B-Ph12	B-Ph13	B-Ph14	B-Ph15	B-Ph16	aux-1	digaux	

2157.919	1	1	0	256	0.36758	0.12179	0.016678	0.26215	0.15826	0.25239	0.21873	0.1765	0.043775	0.24176	0.082447	0.32654	0.15653	0.14512	0.080485	0.079221	-2.2625	-2.4854	-2.7021	-2.7375	-2.525	-2.8104	-2.6479	-2.8479	-2.6708	-2.2938	-2.8479	-2.6813	-2.4333	-2.9646	-2.4958	-2.6937	186.228	182.864	395.281	435.872	368.741	109.616	360.201	83.029	83.830	333.678	338.152	158.372	393.944	208.778	283.822	234.388	0.00044525	0.00049631	0.00014345	850.05	1.6578e-05	8.6711e-06	602.91	243.22	1.0945e-05	7.1164e-06	177.38	60.994	80.328	24.067	6.1134e-06	19.281	0.005073	0.0072869	0.0020201	861.02	6.666e-05	6.9551e-05	614.92	247.72	5.679e-05	6.0362e-05	189.25	63.728	83.54	25.189	5.4418e-05	20.802	341.214	167.466	312.820	96.791	207.781	164.079	95.199	100.906	191.593	325.707	98.683	103.059	105.947	109.764	200.561	106.771	-8191	255	
2158.015	1	1	0	0	0.13114	0.1459	0.12046	0.13683	0.24459	0.18043	0.20025	0.083036	0.070717	0.17648	0.087966	0.19791	0.10177	0.14616	0.048858	0.133	-2.1583	-2.3563	-2.7042	-2.7396	-2.5042	-2.8146	-2.6521	-3.0167	-2.6729	-2.5042	-2.8167	-2.7292	-2.5979	-2.8125	-2.5458	-2.7687	320.160	98.080	164.762	416.572	176.961	326.975	348.179	323.194	184.987	321.354	320.632	399.148	194.421	324.308	116.870	136.847	0.00042755	0.00019871	0.00012648	803.53	1.1789e-05	2.8095e-06	585.89	224.75	5.5229e-06	7.9129e-06	170.69	57.178	73.484	22.703	7.1324e-06	18.764	0.0036505	0.0052453	0.0014745	808.67	5.3162e-05	5.9031e-05	594.04	229.18	5.6899e-05	6.361e-05	182.57	60.288	78.119	24.141	6.8785e-05	21.082	322.575	179.196	195.669	96.812	293.919	106.589	94.921	101.355	213.373	129.731	98.817	103.213	106.353	109.475	216.812	106.171	-8191	255	
2158.134	1	1	0	0	0.11272	0.09382	0.18593	0.20636	0.16049	0.13679	0.25077	0.29997	0.15927	0.12728	0.15218	0.22718	0.0069982	0.23814	0.19119	0.097975	-2.2812	-2.3458	-2.7833	-2.7104	-2.5312	-2.8083	-2.5792	-2.6958	-2.7562	-2.4583	-2.6583	-2.6583	-2.4479	-2.8833	-2.7562	-2.525	250.304	347.457	110.824	304.049	291.857	418.740	331.222	389.606	254.942	90.464	175.959	411.538	375.129	403.901	202.343	363.033	0.00037544	0.00057368	0.00011731	792.88	2.6737e-05	4.707e-06	589.22	224.33	5.1448e-06	9.073e-06	172.18	54.708	68.606	22.149	1.2608e-06	19.647	0.0049526	0.0075359	0.0022488	812.72	9.6585e-05	0.00010912	616.69	233.42	7.4801e-05	7.3182e-05	184.99	58.145	73.347	23.359	5.9975e-05	21.429	330.422	139.875	314.056	96.355	278.689	206.011	95.031	101.437	258.085	287.786	98.708	103.003	106.026	109.916	265.464	106.006	-8191	255	
2158.230	1	1	0	0	0.10669	0.1293	0.1855	0.2046	0.064532	0.1056	0.079658	0.14728	0.15442	0.11851	0.13387	0.28429	0.29113	0.15961	0.13915	0.1336	-2.5	-2.4458	-2.6771	-2.7542	-2.5812	-2.9604	-2.7375	-2.5396	-2.7979	-2.3542	-2.75	-3.0083	-2.5	-2.6958	-2.6063	-2.525	352.287	420.512	337.626	393.200	91.404	160.413	442.489	409.977	358.889	144.554	316.249	105.063	442.654	86.226	389.920	85.713	0.00047399	0.00017116	0.00012219	773.84	6.855e-06	7.4142e-06	595.01	234.03	5.731e-06	6.4542e-06	186.16	58.891	73.214	24.656	2.8632e-06	21.947	0.0041472	0.0061242	0.0017174	785.52	6.3136e-05	7.2002e-05	612.53	239.64	7.1095e-05	7.9728e-05	203.06	63.649	79.296	26.398	8.8715e-05	24.701	351.145	144.070	441.880	96.535	206.413	124.837	95.206	101.552	209.194	224.590	98.617	102.848	106.212	109.578	434.839	106.390	-8191	255	
2158.304	1	1	0	0	0.042419	0.024644	0.17071	0.25452	0.20084	0.12986	0.13275	0.12111	0.16446	0.2367	0.076251	0.088702	0.15926	0.15854	0.22735	0.061305	-2.3771	-2.5896	-2.7667	-2.8396	-2.5	-2.9875	-2.8208	-2.4958	-2.9146	-2.3583	-2.5687	-2.8625	-2.525	-2.9313	-2.575	-2.5771	296.848	164.416	326.100	428.606	432.156	84.637	377.222	432.626	319.763	313.951	162.597	95.309	420.086	306.527	436.251	372.214	0.00053854	0.00016	0.000161	765.79	7.2797e-06	1.0094e-05	597.4	234.9	6.6962e-06	5.4791e-06	194.33	60.575	73.33	25.7	1.9562e-06	23.514	0.0064123	0.0095672	0.0027458	790.42	0.00010581	0.00012305	635.23	251.37	0.0001364	0.00015814	230.93	71.091	86.833	29.143	0.00016552	28.945	316.273	167.846	108.359	96.590	157.784	149.277	95.190	101.486	362.774	112.975	98.798	103.557	106.678	109.608	238.704	105.835	-8191	255	
2158.422	1	1	0	0	0.24844	0.14801	0.19644	0.14002	0.039717	0.29231	0.32186	0.18111	0.17397	0.17019	0.23898	0.14793	0.1802	0.11616	0.054537	0.19613	-2.3854	-2.3688	-2.4771	-3.0479	-2.4021	-3.0021	-2.7792	-2.5125	-2.9146	-2.5542	-2.5625	-2.8125	-2.4062	-2.8521	-2.9167	-2.6167	258.307	388.025	279.572	270.108	121.589	141.481	122.125	183.114	395.828	385.078	313.358	170.126	168.431	301.020	427.387	330.232	0.00084276	0.00097073	0.00021661	782.46	5.059e-07	1.4077e-05	612.12	227.35	5.4161e-06	8.481e-06	185.09	57.916	65.698	23.183	1.6395e-05	23.006	0.011456	0.0171	0.0049003	835.55	0.00018658	0.00021577	684.44	255.71	0.00021644	0.00024604	244.03	73.996	86.194	28.599	0.0002369	30.284	340.745	267.562	435.141	96.545	189.529	202.144	95.411	101.632	223.038	150.036	99.202	103.639	106.515	110.068	148.960	106.655	-8191	255	
2158.519	1	1	0	0	0.16884	0.094919	0.13162	0.14044	0.058537	0.32081	0.11629	0.25697	0.015053	0.28276	0.21778	0.019979	0.16497	0.09362	0.19582	0.095513	-2.4771	-2.65	-2.6083	-2.9917	-2.5938	-2.7521	-2.7708	-2.4542	-2.8187	-2.4833	-2.6104	-2.8771	-2.4688	-2.7562	-2.8167	-2.6292	175.906	442.152	210.510	378.032	439.384	118.525	296.427	436.397	150.462	346.259	276.839	305.682	379.707	439.683	395.855	293.052	0.00074333	0.00104	0.0001619	736.51	1.8487e-05	6.3162e-06	581.6	212.53	1.7119e-05	8.3034e-06	179.34	56.02	62.538	22.814	1.6481e-05	23.297	0.015521	0.022668	0.0063558	809.26	0.000226	0.00025302	663.45	244.47	0.00022716	0.00024713	234.64	71.21	81.034	27.512	0.00020603	29.693	296.172	397.124	172.492	96.868	165.486	171.228	95.076	101.915	140.323	202.411	99.105	103.807	106.741	109.716	218.272	106.673	-8191	255	
2158.615	1	1	0	0	0.14339	0.11008	0.20749	0.19868	0.097021	0.051553	0.070954	0.095845	0.088544	0.19722	0.22374	0.076689	0.22067	0.14448	0.08805	0.20872	-2.5042	-2.6792	-2.4208	-2.9604	-2.5146	-2.7229	-2.5479	-2.375	-2.8708	-2.6437	-2.6104	-2.8021	-2.6292	-2.775	-2.9062	-2.4979	329.085	95.899	358.450	242.097	280.608	434.605	292.993	121.796	327.444	223.472	171.513	251.234	378.966	418.287	156.861	387.488	0.00057556	0.0010575	0.00047671	708.39	3.4299e-05	9.3427e-06	573.98	207.25	2.2577e-05	4.5163e-06	177.85	57.981	62.762	23.655	1.1555e-05	24.781	0.013188	0.018852	0.0051558	762.33	0.00017476	0.00018972	629.8	228.61	0.00016072	0.00017362	218.19	68.281	75.322	26.859	0.0001463	29.073	330.230	113.216	166.255	96.662	234.064	172.450	95.663	101.773	283.015	141.195	98.915	103.326	106.548	109.572	185.421	106.175	-8191	255	
2158.735	1	1	0	0	0.15003	0.081839	0.095005	0.25822	0.29695	0.094613	0.14565	0.12194	0.21254	0.19489	0.13731	0.34315	0.27606	0.16805	0.082039	0.18226	-2.2708	-2.7167	-2.4271	-2.8646	-2.675	-2.6917	-2.7167	-2.7083	-2.6312	-2.6792	-2.5792	-2.7333	-2.7021	-2.6583	-2.7479	-2.5333	142.748	138.896	167.578	99.574	272.979	85.339	381.255	102.905	438.317	178.622	150.857	371.565	193.003	386.981	128.086	265.938	0.00081912	0.0014367	0.00029987	708.4	1.2608e-05	1.4301e-05	575.24	214.24	1.2625e-05	3.8888e-06	186.39	60.035	67.19	25.429	1.0017e-05	26.483	0.0093283	0.01357	0.0037845	747.8	0.00012948	0.00014317	614.89	229.52	0.0001267	0.00014054	216.35	68.102	77.991	28.358	0.00013167	30.497	318.295	134.402	207.866	96.633	392.798	256.689	95.209	101.355	227.719	236.426	98.922	103.495	106.352	109.494	338.888	106.253	-8191	255	
2158.832	1	1	0	0	0.24031	0.23952	0.14969	0.21553	0.09619	0.27189	0.26527	0.33303	0.06966	0.11107	0.31301	0.025996	0.16265	0.12931	0.15035	0.076281	-2.3083	-2.7271	-2.3479	-2.9188	-2.575	-2.5208	-2.7104	-2.6417	-2.8208	-2.8042	-2.3958	-2.7062	-2.7729	-2.6458	-2.9	-2.4875	435.749	252.299	157.388	406.713	122.661	228.330	373.772	350.512	280.513	202.718	363.509	318.841	334.451	214.173	397.982	231.712	0.00097372	0.00068931	0.00022018	725.65	7.5369e-06	1.532e-05	582.02	230.35	2.3578e-06	7.6751e-06	195.44	63.813	75.26	27.418	1.5544e-05	25.377	0.0087393	0.012691	0.0035325	759.56	0.00012201	0.00013641	619.58	245.55	0.0001229	0.00013542	223.65	71.448	84.848	29.936	0.00011403	28.908	312.707	208.445	425.630	96.778	315.890	209.965	95.198	101.450	219.720	234.223	99.084	103.350	105.994	109.319	224.863	105.885	-8191	255	
2158.903	1	1	0	0	0.088195	0.053596	0.25522	0.14702	0.085204	0.0594	0.12814	0.056239	0.22119	0.10745	0.15973	0.2211	0.078176	0.16308	0.32229	0.091187	-2.2396	-2.8646	-2.3583	-2.8625	-2.6021	-2.3854	-2.9229	-2.4979	-2.5083	-2.8312	-2.4313	-2.9708	-2.7667	-2.4042	-2.8958	-2.5396	124.688	432.032	172.066	361.158	372.956	417.352	258.284	344.939	315.355	419.991	359.900	83.782	225.335	426.254	269.831	269.099	0.00059321	0.00026608	0.00010429	785.79	1.2948e-05	7.0475e-06	612.18	242.39	3.9628e-06	5.6386e-06	194.34	61.2	75.975	26.612	7.1615e-06	22.792	0.0072638	0.010316	0.0028285	807.27	9.5613e-05	0.00010498	637.75	252.21	9.139e-05	0.00010052	216.38	66.804	83.138	28.525	9.5783e-05	25.694	340.203	329.922	282.459	96.780	258.684	216.098	95.471	101.215	240.041	418.039	98.604	102.924	106.170	109.299	188.622	106.130	-8191	255	
2159.024	1	1	0	0	0.10558	0.094343	0.032767	0.15433	0.050815	0.18701	0.088007	0.24345	0.14705	0.095323	0.25199	0.18607	0.2956	0.1943	0.22983	0.23236	-2.1354	-2.7146	-2.5187	-2.8583	-2.725	-2.5146	-2.8229	-2.6875	-2.6063	-3.0354	-2.5479	-2.7958	-2.8375	-2.3521	-2.7917	-2.6792	417.352	105.508	409.182	371.393	245.262	361.211	101.042	396.922	223.626	257.666	385.323	266.946	430.234	386.421	328.041	293.424	0.00045218	0.00010387	0.00028024	813.44	3.8833e-06	1.1775e-05	621.19	250.85	1.2965e-05	6.3258e-06	193.25	60.729	77.872	26.179	1.4357e-05	21.87	0.0064585	0.0093955	0.0026318	835.96	9.5388e-05	0.00010882	651.52	262.24	0.00010723	0.0001213	219.12	68.096	87.573	28.795	0.00012777	25.796	327.150	135.328	88.276	96.509	279.647	182.028	95.283	101.251	301.725	300.040	98.148	103.217	106.215	109.139	264.318	105.791	-8191	255	
2159.118	1	1	0	0	0.17829	0.28023	0.17046	0.10381	0.089523	0.22549	0.15738	0.19294	0.21347	0.11776	0.20776	0.25706	0.133	0.1144	0.19892	0.20891	-2.05	-2.7167	-2.6958	-2.7667	-2.6604	-2.3729	-2.9854	-2.7042	-2.5062	-2.8417	-2.6708	-2.75	-2.8312	-2.5333	-2.6417	-2.4792	217.004	148.360	338.025	190.822	266.453	275.539	372.064	407.920	92.406	253.290	138.655	149.752	305.232	425.454	413.854	305.368	0.00060134	0.0012065	0.00021946	840.12	1.3021e-05	1.907e-06	628.71	251.52	9.858e-06	6.5608e-06	189.09	58.308	75.825	24.862	7.0597e-06	20.808	0.0087416	0.012827	0.0035227	868.13	0.00012612	0.00014257	669.96	266.59	0.00013158	0.00014355	221.29	66.696	86.684	27.8	0.00013368	24.982	345.238	96.028	175.327	96.545	245.690	95.508	95.282	101.153	186.941	238.353	98.340	102.625	106.277	109.430	290.375	105.849	-8191	255	
2159.214	1	1	0	0	0.16986	0.13897	0.18641	0.21191	0.14246	0.23748	0.17777	0.071975	0.13247	0.092355	0.22184	0.26482	0.093918	0.18204	0.1573	0.29314	-2.1958	-2.8792	-2.5187	-2.9167	-2.9167	-2.525	-2.8167	-2.9125	-2.5333	-2.8708	-2.7292	-2.6292	-2.7938	-2.6958	-2.7917	-2.6521	156.479	217.358	242.151	84.681	223.947	205.086	367.618	407.142	321.016	384.562	243.302	437.779	137.643	408.363	283.335	392.996	0.00080513	0.00023636	0.00010458	860.58	1.181e-05	2.5105e-06	651.1	252.96	1.2184e-05	1.204e-06	188.13	57.983	76.553	26.569	5.5955e-06	23.056	0.0088801	0.01167	0.0031386	890.96	0.00011317	0.0001317	685.79	267.63	0.00012475	0.00013867	220.1	66.38	87.865	29.453	0.00012712	26.842	320.987	417.683	216.040	96.761	247.534	358.738	95.277	101.316	247.118	401.032	98.544	103.156	106.405	109.349	204.604	106.882	-8191	255	
2159.311	1	1	0	0	0.2324	0.14786	0.11	0.093843	0.10291	0.099633	0.032417	0.023298	0.34612	0.01706	0.11719	0.22875	0.19922	0.20616	0.11662	0.14686	-2.0833	-2.8854	-2.6208	-2.7229	-2.8021	-2.8021	-2.9042	-2.9083	-2.6104	-3.0021	-2.7229	-2.5708	-2.9354	-2.6021	-2.8458	-2.8979	404.742	239.413	324.733	104.415	338.000	309.158	429.590	380.226	150.119	361.576	423.757	420.646	139.602	84.202	149.823	235.818	0.00043456	0.00091795	0.00027152	894.78	3.2196e-06	8.4518e-06	634.19	243.2	1.4508e-05	2.6344e-06	180.47	58.253	75.452	27.417	1.0207e-05	24.813	0.0077266	0.010683	0.0028583	916.01	9.7194e-05	0.00010573	658.25	252.96	8.5695e-05	8.2535e-05	194.73	61.883	80.503	28.93	7.1796e-05	26.995	319.878	123.467	228.470	96.940	273.432	264.113	95.487	101.431	194.528	291.268	99.094	103.695	106.361	109.680	287.922	106.028	-8191	255	
2159.431	1	1	0	0	0.35392	0.062412	0.1263	0.17376	0.13052	0.12004	0.089131	0.14881	0.095813	0.045495	0.17884	0.092102	0.10225	0.10762	0.09132	0.35833	-2.0896	-2.9188	-2.6688	-2.6958	-2.9667	-2.5333	-2.7333	-2.8979	-2.4625	-2.7021	-2.7562	-2.5896	-2.9833	-2.6188	-2.75	-3.0938	274.111	99.709	293.343	365.469	158.388	177.120	437.468	365.470	222.917	118.093	399.645	285.152	205.346	158.286	243.352	412.068	0.00062442	0.00018111	9.0823e-05	853.81	1.6296e-05	3.3193e-06	612.6	235.38	2.6927e-06	2.7826e-06	181.51	59.527	73.474	27.234	2.1942e-06	25.67	0.0049238	0.0067429	0.0017845	863.49	5.7573e-05	6.0881e-05	621.53	240.23	4.8697e-05	5.06e-05	189.97	61.579	76.223	28.035	4.6684e-05	26.948	330.169	90.155	182.105	97.174	270.732	249.601	95.444	101.867	248.018	352.656	99.407	102.988	106.526	109.734	241.796	106.182	-8191	255	
2159.527	1	1	0	0	0.15371	0.10254	0.095843	0.21325	0.075057	0.21055	0.23048	0.19805	0.061861	0.19626	0.12509	0.22188	0.28208	0.20863	0.24108	0.1077	-1.9062	-2.6208	-2.7	-2.5208	-2.8875	-2.5417	-2.8333	-2.8187	-2.3667	-2.7271	-2.7917	-2.525	-2.8833	-2.6063	-2.6458	-2.775	186.630	256.250	403.869	393.981	106.810	209.678	384.190	436.790	169.526	335.618	365.537	83.992	349.188	382.848	331.123	110.310	0.00062571	0.00021612	0.00016644	800.9	8.5742e-06	6.6552e-06	605.41	234.45	5.0065e-06	7.8524e-06	194.75	66.059	79.916	29.973	5.8727e-06	28.591	0.0031468	0.0045173	0.0012542	803.41	4.3696e-05	4.806e-05	609.66	237.29	4.5428e-05	5.1579e-05	204.65	68.634	83.231	31.249	6.4385e-05	30.491	338.589	208.626	214.076	97.237	254.944	243.666	95.181	101.555	316.676	204.162	99.122	103.369	106.362	109.744	206.842	106.089	-8191	255	
2159.599	1	1	0	0	0.2489	0.11347	0.27873	0.16534	0.23407	0.23882	0.11375	0.11693	0.047013	0.20253	0.12117	0.15949	0.2095	0.16084	0.062585	0.15853	-2.1333	-2.7125	-2.6333	-2.5583	-2.8083	-2.5875	-2.45	-2.9396	-2.5271	-2.6562	-2.9667	-2.5729	-2.8583	-2.8167	-2.6083	-2.9771	251.436	234.154	108.777	313.424	233.714	156.922	344.889	344.768	249.350	107.041	423.269	416.731	296.079	364.608	214.846	429.989	0.00081983	0.00017849	0.00010441	871.14	1.6946e-05	2.9581e-06	659.42	253.9	7.1787e-06	1.659e-06	206.03	70.677	85.535	29.685	7.833e-06	26.733	0.0048595	0.0066852	0.0018	880.1	5.4518e-05	5.6092e-05	664.09	256.37	4.7418e-05	5.1308e-05	213.96	72.477	88.471	30.699	5.248e-05	27.966	339.978	436.486	89.402	97.042	259.622	325.244	95.615	101.647	229.391	160.773	99.065	103.559	106.178	109.301	199.987	105.964	-8191	255	
2159.695	1	1	0	0	0.13482	0.20682	0.08974	0.19586	0.083457	0.080971	0.079429	0.11761	0.13661	0.38874	0.14117	0.37975	0.137	0.15332	0.15896	0.18081	-2.1167	-2.7208	-2.6271	-2.6854	-2.7021	-2.6979	-2.5021	-2.95	-2.6312	-2.6125	-2.9	-2.6333	-2.7417	-2.8729	-2.5167	-2.8646	224.035	247.699	280.262	405.253	98.210	398.515	419.253	328.258	125.411	320.300	120.812	83.643	95.683	331.962	245.932	177.285	0.00089272	0.00014842	0.00028711	877.27	8.7536e-06	6.5518e-06	655.92	253	2.8577e-06	3.2767e-06	201.64	67.814	84.777	28.992	2.6149e-06	25.789	0.0035207	0.0050059	0.0013991	879.18	4.7581e-05	5.2977e-05	662.45	255.69	4.7549e-05	5.2621e-05	210.82	70.067	87.343	29.84	4.9295e-05	26.969	334.328	99.687	256.442	96.968	255.057	186.955	95.179	101.550	148.789	196.814	98.757	103.269	106.126	109.446	264.707	105.938	-8191	255	
2159.816	1	1	0	0	0.11571	0.15604	0.15793	0.15345	0.15459	0.30706	0.082964	0.21937	0.25044	0.23074	0.10359	0.11753	0.25877	0.31469	0.50951	0.22051	-2.0375	-2.5792	-2.8375	-2.5958	-2.85	-2.7729	-2.4833	-2.9167	-2.6604	-2.5354	-2.9062	-2.4229	-2.7292	-2.8042	-2.3854	-2.9042	306.289	336.364	89.478	374.901	415.336	353.982	243.636	326.139	205.574	164.078	390.374	341.760	347.116	121.294	340.433	111.309	0.00064606	0.00064735	0.00010807	869.73	1.1338e-05	5.0037e-06	652.63	255.15	8.7594e-06	1.049e-05	203.57	69.146	87.29	29.714	6.974e-06	25.835	0.0033122	0.0046962	0.0013104	872.06	4.5845e-05	5.0718e-05	655.66	258.33	4.4996e-05	5.0008e-05	211.61	70.623	89.4	30.444	4.3987e-05	26.919	331.363	216.110	118.878	97.073	284.502	202.420	95.729	101.552	252.518	291.678	99.085	103.407	105.933	109.271	254.316	105.941	-8191	255	
2159.912	1	1	0	0	0.23782	0.080587	0.051142	0.18748	0.28598	0.2233	0.15307	0.20978	0.11835	0.098613	0.15825	0.10084	0.3364	0.18711	0.30884	0.061535	-2.1875	-2.5958	-2.9229	-2.6792	-2.7271	-2.8167	-2.5479	-2.8688	-2.5292	-2.75	-2.8896	-2.6625	-2.7458	-2.8417	-2.5187	-2.6917	94.157	283.358	98.667	402.620	106.893	375.008	90.505	339.075	231.923	169.507	377.638	356.647	237.740	343.384	333.579	402.444	0.0006169	0.00042624	7.5245e-05	890.09	1.9082e-05	8.315e-06	656.63	264.19	6.8365e-06	4.532e-06	205.26	69.348	88.896	29.812	7.3474e-06	25.282	0.0029058	0.0040547	0.0011199	890.27	3.8456e-05	4.2313e-05	658.26	265.92	3.7829e-05	4.1399e-05	210.62	71.023	90.497	30.384	3.7721e-05	26.122	335.979	262.690	150.582	96.929	253.934	257.895	94.965	101.389	256.585	298.519	98.325	103.079	106.000	109.174	277.835	106.148	-8191	255	
2160.006	1	1	0	0	0.045098	0.11345	0.17508	0.19663	0.22233	0.16584	0.08608	0.13487	0.22096	0.10822	0.17139	0.30074	0.35317	0.1437	0.067171	0.10612	-2.1667	-2.4708	-2.8604	-2.4271	-2.6646	-2.7708	-2.6875	-2.8583	-2.7104	-2.4646	-2.9125	-2.7979	-2.6688	-2.9208	-2.5	-2.6479	115.654	187.253	425.261	428.986	191.084	412.502	162.200	419.212	353.136	120.126	353.747	148.608	342.709	339.492	318.873	309.608	0.00060772	0.00032441	9.3311e-05	891.49	7.35e-06	6.2672e-06	658.08	266.14	9.6034e-06	3.0527e-06	203.02	70.541	90.327	29.384	8.8949e-06	24.587	0.0025314	0.0035894	0.00097096	889.33	3.4574e-05	3.8208e-05	656.21	267.2	3.4598e-05	3.8208e-05	208.81	71.555	91.429	30.005	3.4768e-05	25.434	325.096	85.945	185.820	96.816	249.803	269.272	95.325	101.336	308.966	331.371	98.275	103.001	105.790	109.007	194.936	105.743	-8191	255	
2160.104	1	1	0	0	0.097436	0.12841	0.063723	0.26763	0.28924	0.22907	0.14002	0.13536	0.12902	0.12264	0.17214	0.30838	0.072296	0.079056	0.23642	0.077486	-2.3521	-2.3021	-2.7833	-2.6854	-2.4125	-2.8896	-2.5917	-2.7792	-2.7188	-2.3146	-2.7938	-2.6354	-2.5667	-3.0042	-2.3479	-2.8979	399.108	442.513	392.260	431.284	404.152	272.600	99.621	229.768	207.894	112.474	237.478	209.236	414.436	332.871	372.791	313.460	0.0005972	0.00041135	0.00013666	890.07	1.2698e-05	4.5781e-06	650.09	266.49	7.6448e-06	3.0746e-06	201.23	69.841	89.926	28.569	7.6469e-06	23.747	0.0024176	0.0033703	0.0009211	886.79	3.3394e-05	3.6581e-05	647.67	266.67	3.2382e-05	3.5528e-05	205.49	70.748	90.821	29.082	3.2782e-05	24.421	328.475	206.433	209.572	96.803	257.471	175.525	95.127	101.335	221.628	257.758	99.181	103.047	106.062	109.380	270.765	106.207	-8191	255	
2160.199	1	1	0	0	0.25553	0.1455	0.17431	0.25123	0.12983	0.34062	0.29736	0.16978	0.17174	0.16865	0.034685	0.2683	0.24575	0.076004	0.25102	0.21898	-2.4417	-2.5333	-2.7854	-2.7771	-2.4771	-2.9292	-2.5875	-2.7188	-2.8042	-2.2417	-2.8479	-2.5729	-2.3812	-2.825	-2.5958	-2.5396	273.589	314.694	192.447	402.116	373.133	146.404	94.255	396.392	259.188	335.582	266.843	88.697	182.777	328.383	147.455	337.030	0.00063057	0.00027459	0.00013683	880.56	6.0768e-06	3.3885e-06	631.99	262.15	1.0403e-05	3.9208e-06	192.34	66.443	87.128	26.632	3.301e-06	21.884	0.0022252	0.0031548	0.00087793	877.34	3.206e-05	3.5269e-05	631.54	262.47	3.085e-05	3.3631e-05	196.95	67.546	87.77	27.148	2.9619e-05	22.568	336.926	90.818	135.184	96.535	267.152	252.521	95.230	101.367	203.402	257.271	98.504	102.885	106.082	109.361	185.531	106.236	-8191	255	
2160.295	1	1	0	0	0.22512	0.16919	0.083928	0.1945	0.18368	0.31073	0.097187	0.12842	0.31567	0.26204	0.097426	0.10145	0.28246	0.18635	0.21735	0.15393	-2.2667	-2.4062	-2.7917	-2.8021	-2.3958	-2.8979	-2.7104	-2.5646	-2.7313	-2.5604	-2.9542	-2.7458	-2.5271	-2.7687	-2.7458	-2.4938	292.604	304.444	211.133	179.755	118.581	364.687	138.411	273.011	217.539	274.643	254.860	299.152	386.672	89.471	229.335	371.850	0.00058032	0.00026633	7.3293e-05	853.69	8.9116e-06	4.2028e-06	619.27	255.23	8.0633e-06	4.2393e-06	191.65	68.687	88.733	28.086	4.9596e-06	23.121	0.0020357	0.0029038	0.0008114	849.9	3.0027e-05	3.3886e-05	616.06	255.25	3.0851e-05	3.3141e-05	197.22	69.314	89.915	28.446	3.0879e-05	23.657	328.008	133.168	351.883	96.827	284.371	237.158	95.357	101.229	219.608	252.457	98.515	103.085	105.683	109.494	141.561	106.076	-8191	255	
2160.415	1	1	0	0	0.089723	0.16756	0.27337	0.082838	0.072359	0.068468	0.11607	0.15761	0.22539	0.20245	0.12685	0.19259	0.33156	0.15893	0.18472	0.16345	-2.4604	-2.4354	-2.8125	-3.0583	-2.5667	-2.825	-2.6542	-2.6083	-2.9292	-2.5792	-2.7146	-2.6917	-2.5	-2.8542	-2.8021	-2.5229	430.719	427.309	361.574	269.384	252.462	347.934	341.416	168.066	204.148	187.876	213.299	353.935	155.637	96.347	166.132	231.227	0.00054444	0.00032738	2.6882e-05	867.75	1.0461e-05	6.9117e-06	636.92	271.47	1.1776e-05	3.2937e-06	197.01	70.985	95.17	29.701	5.63e-06	23.809	0.0021982	0.0032394	0.00098505	868.1	4.881e-05	6.1859e-05	646.73	275.57	6.0972e-05	6.4694e-05	209.87	73.938	98.953	30.952	6.8234e-05	25.821	333.702	246.076	318.772	96.708	239.286	236.146	95.431	101.379	278.907	258.845	98.682	102.606	105.467	108.876	142.635	105.660	-8191	255	
2160.512	1	1	0	0	0.2212	0.17603	0.28034	0.094003	0.24027	0.14681	0.12488	0.035514	0.048764	0.11024	0.10332	0.11738	0.17731	0.045612	0.044811	0.22103	-2.4708	-2.4792	-2.5396	-2.7854	-2.5854	-2.6937	-2.7687	-2.625	-2.9167	-2.7729	-2.6083	-2.8125	-2.4396	-2.8479	-2.6771	-2.6729	325.755	438.274	195.442	111.707	141.870	112.707	404.042	427.358	400.516	203.318	362.508	164.893	398.883	184.743	93.062	381.227	0.00054783	0.00054893	0.00010868	910.23	1.2609e-05	7.3041e-06	636.3	274.11	3.0907e-06	1.1524e-05	196.53	71.964	98.467	29.996	1.2815e-05	23.51	0.0049694	0.0072211	0.0020216	923.1	7.2189e-05	7.9094e-05	650.96	280.11	7.5208e-05	8.4039e-05	214.56	76.443	104.5	31.832	8.7428e-05	26.197	309.615	146.882	114.186	96.682	306.477	238.468	95.407	101.130	83.397	268.692	98.713	102.533	105.698	108.774	205.748	105.369	-8191	255	
2160.608	1	1	0	0	0.23346	0.12093	0.093832	0.26299	0.31607	0.15969	0.21413	0.21812	0.11252	0.077548	0.35062	0.28531	0.35363	0.35617	0.15058	0.27007	-2.4375	-2.6229	-2.5917	-3.1562	-2.5646	-2.7896	-2.8812	-2.6292	-2.9313	-2.6042	-2.6562	-2.9479	-2.5354	-2.6813	-2.6792	-2.4479	424.161	429.735	88.580	93.622	392.610	181.614	159.848	353.858	214.852	384.551	420.460	357.566	428.964	389.920	405.552	397.418	0.00070595	0.00096072	0.00032848	931.23	8.1034e-06	3.4891e-06	635.27	280.21	9.7865e-06	4.9857e-06	193.47	67.709	95.033	28.197	5.7481e-06	21.183	0.0065113	0.0099049	0.002872	953.91	9.66e-05	0.00010142	658.54	288.01	7.7795e-05	8.1142e-05	209.98	71.687	99.518	29.447	6.2443e-05	22.801	332.245	207.068	214.829	96.560	232.774	333.815	95.011	101.109	124.422	167.976	98.560	102.154	105.267	108.251	279.948	104.974	-8191	255	
2160.704	1	1	0	0	0.15149	0.38332	0.18915	0.25041	0.20262	0.14855	0.21437	0.14944	0.17913	0.050558	0.15864	0.15169	0.3624	0.067757	0.23652	0.051411	-2.275	-2.5479	-2.3458	-3.0938	-2.6333	-2.6375	-2.8625	-2.5187	-2.7812	-2.7042	-2.4625	-2.9688	-2.5021	-2.5312	-2.6771	-2.4083	213.311	106.142	410.257	85.065	283.035	439.190	375.603	312.767	108.027	292.486	441.146	318.253	114.326	245.626	200.780	310.184	0.00071417	0.0007583	6.8181e-05	888.19	8.8552e-06	4.9102e-06	596.63	255.55	1.2607e-05	7.8282e-06	175.86	56.061	78.859	22.956	4.1681e-06	18.126	0.0036754	0.0048195	0.001237	884.69	3.955e-05	4.1757e-05	597.92	255.74	3.6703e-05	4.1482e-05	182.84	57.961	80.842	23.828	3.8724e-05	19.095	327.526	126.275	362.174	96.683	253.628	273.563	95.281	100.991	253.793	196.069	98.276	102.335	105.723	108.920	127.797	105.771	-8191	255	
2160.824	1	1	0	0	0.084973	0.2176	0.23837	0.17924	0.19645	0.043726	0.10927	0.28111	0.2022	0.12043	0.22892	0.22788	0.28451	0.084436	0.17914	0.27563	-2.2396	-2.5833	-2.4729	-2.9854	-2.5104	-2.6479	-2.9167	-2.5521	-2.6458	-2.7542	-2.325	-3.0187	-2.75	-2.8771	-2.7292	-2.5646	167.607	400.521	436.555	171.848	437.775	376.754	127.224	425.376	98.731	225.626	129.083	266.885	136.259	140.869	332.840	123.958	0.00054502	0.00055787	8.7351e-05	782.67	6.5639e-06	1.5267e-06	534.79	215.07	6.9818e-06	3.5359e-06	158.65	50.358	67.571	21.964	3.2394e-06	18.747	0.0024771	0.0034836	0.00097146	780.51	3.435e-05	3.8521e-05	536.26	217.44	3.5459e-05	3.9759e-05	164.5	51.762	69.456	22.534	3.4222e-05	19.664	316.667	165.897	213.113	96.595	273.163	329.733	95.214	101.369	337.118	234.742	97.912	102.618	105.743	109.464	156.641	105.838	-8191	255	
2160.896	1	1	0	0	0.12498	0.07739	0.15991	0.18556	0.066826	0.052516	0.36929	0.034433	0.25473	0.081468	0.27648	0.32207	0.24528	0.085821	0.22713	0.16965	-2.3812	-2.7188	-2.5	-2.9208	-2.6479	-2.5687	-2.9188	-2.5458	-2.6063	-2.8521	-2.5604	-2.9896	-2.7396	-2.4979	-2.9729	-2.6208	265.589	397.490	422.056	91.802	310.741	188.706	382.814	175.445	112.203	152.516	383.050	108.872	190.945	93.083	156.841	164.556	0.00048885	9.8778e-05	0.00022013	758.94	5.9691e-06	3.6189e-06	534.76	219.17	3.4102e-06	3.2056e-06	164.19	51.719	68.19	23.144	1.5727e-05	20.356	0.0022361	0.0031668	0.00090206	757.65	3.3216e-05	3.785e-05	539.95	220.51	3.6982e-05	4.2223e-05	170.78	53.769	71.149	24.058	4.9212e-05	21.818	343.703	282.006	146.859	96.513	195.511	242.145	95.171	101.272	256.209	197.829	98.739	103.169	105.542	109.133	222.126	105.652	-8191	255	
2160.992	1	1	0	0	0.041684	0.090687	0.25979	0.10521	0.10639	0.11627	0.079158	0.12668	0.07025	0.16662	0.11348	0.1914	0.15642	0.22891	0.18126	0.20903	-2.3771	-2.7083	-2.4646	-3.0792	-2.725	-2.5708	-2.8833	-2.5938	-2.7188	-2.9375	-2.3479	-2.8688	-2.7625	-2.5771	-2.7896	-2.6146	370.436	147.169	184.215	302.433	218.303	230.173	403.838	331.877	172.992	206.970	153.798	351.116	405.570	395.575	358.621	390.999	0.00053108	0.00070762	0.00011674	760.76	3.8396e-06	7.8163e-06	537.29	217.43	1.0712e-05	3.4165e-06	162.13	50.37	67.048	22.895	1.2172e-05	20.162	0.0036333	0.0055439	0.0016013	770.3	6.2581e-05	7.3797e-05	554.88	224.55	7.5943e-05	8.6015e-05	180.4	55.194	73.398	24.686	8.9084e-05	22.79	338.424	191.759	166.727	96.665	435.958	137.324	95.390	101.321	200.682	260.945	98.379	103.422	105.781	109.274	241.461	105.387	-8191	255	
2161.088	1	1	0	0	0.11979	0.31931	0.15927	0.36986	0.20888	0.13991	0.14386	0.17226	0.29908	0.10339	0.054445	0.18432	0.16619	0.028106	0.12962	0.014857	-2.0396	-2.6625	-2.5271	-2.9437	-2.8792	-2.5354	-2.9729	-2.7313	-2.625	-2.7958	-2.6417	-2.8438	-2.8792	-2.3146	-2.825	-2.65	281.244	399.818	133.228	404.034	432.315	118.002	317.265	275.771	437.438	143.937	202.506	367.893	361.500	359.553	90.944	370.907	0.00047202	0.001129	0.00010219	751.52	6.9432e-06	7.8834e-06	530.25	215.76	7.6103e-06	6.6307e-06	164.05	50.938	67.846	22.843	1.5366e-05	19.832	0.0061378	0.0090125	0.002531	768.59	8.4667e-05	9.2062e-05	551.45	224.29	7.7208e-05	8.5047e-05	183.72	55.879	73.888	24.735	9.1311e-05	22.514	331.859	442.752	421.231	96.526	348.540	258.788	95.069	101.502	221.495	105.167	98.302	103.254	106.271	109.151	308.002	105.566	-8191	255	
2161.207	1	1	0	0	0.056682	0.23445	0.11611	0.12998	0.092948	0.23086	0.072486	0.0879	0.10133	0.15113	0.1085	0.30919	0.06434	0.24743	0.26682	0.076569	-2.1188	-2.9813	-2.4917	-2.8333	-2.8958	-2.5042	-2.9021	-2.9146	-2.5208	-2.9146	-2.6896	-2.7917	-2.9625	-2.5167	-2.8479	-2.7167	224.548	289.861	237.045	366.380	303.220	323.851	135.074	380.860	146.197	179.513	381.745	374.400	335.964	413.086	423.593	173.677	0.00060381	0.00059517	0.00019164	768.2	1.1336e-05	1.1042e-05	534.8	224.36	1.0518e-05	6.2911e-06	166.75	52.44	72.141	24.834	8.3467e-06	21.281	0.0065426	0.0094819	0.0026292	787.15	9.1936e-05	0.00010181	560.2	235.08	9.6773e-05	0.00010999	193.18	59.242	81.254	27.379	0.00011785	24.886	304.110	430.360	247.823	96.455	250.691	229.183	94.746	101.248	299.120	270.045	98.311	103.168	105.624	109.054	249.318	105.108	-8191	255	
2161.303	1	1	0	0	0.088213	0.1481	0.094051	0.094449	0.10226	0.034114	0.23982	0.24525	0.0642	0.12914	0.16909	0.16857	0.25631	0.049424	0.03359	0.14653	-2.1937	-2.9021	-2.6542	-2.8438	-2.8771	-2.5771	-2.8125	-2.7625	-2.5167	-2.8688	-2.5958	-2.6688	-2.8438	-2.4646	-2.9479	-2.9896	417.517	252.800	236.224	104.602	218.045	398.979	391.981	422.381	331.178	192.698	401.129	139.235	132.562	298.839	279.707	371.622	0.00044109	0.001291	0.00022343	806.74	1.0912e-05	3.065e-06	552.62	240.79	5.4243e-06	2.9047e-06	172.23	53.629	77.656	26.928	3.3738e-06	22.225	0.008243	0.012319	0.0034849	839.63	0.00013155	0.00014898	597.31	258.2	0.00014578	0.0001611	208.37	63.74	89.535	30.05	0.00014239	26.447	317.182	126.121	218.448	96.706	282.370	188.374	95.217	101.190	207.135	233.008	98.975	103.067	105.583	109.212	317.462	105.427	-8191	255	
2161.400	1	1	0	0	0.091485	0.1782	0.16751	0.29084	0.18174	0.088783	0.23663	0.25236	0.18005	0.15379	0.19045	0.04516	0.34795	0.13025	0.11249	0.11566	-1.9875	-2.8458	-2.6333	-2.7188	-2.8229	-2.4062	-2.7938	-2.9062	-2.55	-2.75	-2.7604	-2.4437	-2.7833	-2.5687	-2.8979	-2.8479	99.848	320.682	346.529	94.050	340.103	264.784	415.174	243.547	263.186	324.000	120.272	104.734	387.283	212.198	286.281	376.441	0.00061184	0.00061149	0.00020999	826.42	1.2499e-05	3.9041e-06	558.02	251.4	7.0078e-06	9.6493e-06	182.72	58.869	81.088	29.123	4.6413e-06	24.866	0.0090777	0.012958	0.0035474	857.73	0.00012317	0.00013341	593.81	264.89	0.00011265	0.00012036	209.25	65.412	89.296	31.355	0.00010431	27.816	352.918	437.057	169.423	96.770	113.650	163.482	95.570	101.776	321.823	293.309	98.331	103.475	105.931	108.551	307.003	105.322	-8191	255	
2161.496	1	1	0	0	0.2648	0.16639	0.21365	0.20355	0.091181	0.14382	0.095427	0.060677	0.15405	0.24262	0.39356	0.30009	0.074036	0.076396	0.088081	0.12988	-2.2292	-2.9	-2.4792	-2.5979	-2.9333	-2.7271	-2.9313	-2.9167	-2.475	-2.8187	-2.7458	-2.5312	-2.8625	-2.6396	-2.6854	-2.9375	149.723	311.751	275.060	110.163	162.523	287.930	89.945	416.419	405.669	212.329	408.924	118.325	339.113	409.899	363.427	424.036	0.00057485	0.0005685	0.00016996	818.98	1.836e-06	4.1592e-06	561.7	251.88	1.394e-05	6.8885e-06	185.55	58.625	79.645	28.692	1.0193e-05	24.262	0.0069224	0.0099535	0.0027822	844.48	9.7759e-05	0.00010584	589.11	262.81	9.4387e-05	0.00010171	206.57	64.25	87.426	30.668	9.2827e-05	27.139	322.688	282.059	191.318	96.794	315.993	228.557	95.337	101.303	126.036	366.568	98.350	103.001	105.745	108.765	232.191	105.269	-8191	255	
2161.592	1	1	0	0	0.051685	0.17733	0.30539	0.19658	0.15337	0.23713	0.053224	0.057473	0.093845	0.3166	0.10632	0.25227	0.14085	0.14383	0.23732	0.023452	-2.125	-2.8292	-2.7625	-2.4667	-2.7229	-2.7125	-2.6979	-3.025	-2.7188	-2.8104	-2.7708	-2.5604	-2.975	-2.6292	-2.5563	-2.9146	330.566	103.930	92.929	437.742	262.095	435.640	358.496	440.894	191.671	258.075	241.008	110.769	201.202	172.699	338.239	211.956	0.00063327	0.00086712	0.00018684	812.24	9.0061e-07	6.2168e-06	564.47	253.67	9.0815e-06	5.1709e-06	187.34	60.405	82.43	29.748	1.2381e-05	25.452	0.0060278	0.008488	0.0023131	829.32	8.0373e-05	8.848e-05	583.48	261.47	8.0397e-05	8.9043e-05	206.22	65.222	88.641	31.568	8.559e-05	27.955	345.419	372.442	140.565	96.866	381.123	141.288	95.259	101.218	195.514	429.325	98.686	102.857	105.670	108.685	226.339	105.568	-8191	255	
2161.688	1	1	0	0	0.18627	0.081377	0.16727	0.23397	0.10257	0.090386	0.08706	0.25215	0.13019	0.14786	0.076384	0.19181	0.16178	0.14264	0.017015	0.13588	-2.0812	-2.5979	-2.8375	-2.4688	-2.9042	-2.5812	-2.6312	-3.0229	-2.3771	-2.8375	-2.9021	-2.4083	-2.7979	-2.5938	-2.575	-3.0167	252.423	138.118	270.373	401.468	441.556	193.787	244.169	430.125	83.714	189.366	141.590	379.882	95.467	299.064	165.470	189.996	0.00079732	0.0011477	0.00024872	824.89	1.0309e-05	5.6688e-06	569.15	259.91	1.6195e-05	3.9683e-06	191.97	63.846	92.125	32.342	1.4268e-05	26.25	0.0056929	0.0082094	0.0023077	841.77	8.1861e-05	9.0013e-05	590.48	269.19	8.4316e-05	9.5614e-05	214.12	69.542	99.083	34.681	0.0001076	29.697	328.059	114.804	162.228	96.826	219.924	233.664	95.424	101.316	230.092	305.464	98.853	102.095	105.432	108.165	370.418	105.113	-8191	255	
2161.784	1	1	0	0	0.21442	0.055569	0.19989	0.16232	0.22809	0.15082	0.09337	0.2411	0.085444	0.23357	0.15044	0.33595	0.28391	0.29889	0.047437	0.293	-2.1542	-2.7375	-2.8125	-2.4958	-2.7771	-2.7333	-2.55	-2.8708	-2.5375	-2.6437	-2.9771	-2.4437	-2.7687	-2.7333	-2.5104	-2.8729	396.398	296.165	96.707	187.106	208.360	390.828	337.131	421.849	298.096	390.692	91.144	388.440	154.836	337.584	289.993	373.060	0.00072685	0.00020758	0.00018568	960.4	8.8557e-06	3.6358e-06	639.55	325.37	9.3042e-06	6.5763e-06	217.98	69.061	99.675	34.186	1.224e-05	27.35	0.0078121	0.01181	0.0034153	993.44	0.00012637	0.00014523	683.09	341.16	0.00014238	0.00016101	255.02	77.958	108.82	36.259	9.428e-05	30.02	318.068	138.176	193.779	96.540	238.651	223.204	94.794	100.780	113.480	370.255	97.835	102.017	105.208	108.360	238.742	104.879	-8191	255	
2161.905	1	1	0	0	0.18115	0.20407	0.074652	0.14121	0.25746	0.11702	0.096925	0.15572	0.13768	0.18372	0.12298	0.16659	0.075516	0.15083	0.10998	0.36301	-2.0896	-2.5854	-2.9208	-2.5708	-2.6771	-2.7458	-2.5896	-2.9021	-2.6375	-2.6437	-2.9979	-2.4708	-2.7625	-2.8667	-2.5521	-2.8708	431.092	193.690	203.719	373.887	274.902	278.856	121.245	400.369	203.522	170.017	420.778	109.403	401.801	128.950	394.098	404.997	0.00066869	0.00093918	6.4335e-05	938.73	8.5897e-06	2.8523e-06	630.67	316.92	1.0753e-05	1.5528e-05	210.62	68.617	102.28	34.779	1.2744e-05	25.814	0.0059839	0.0090155	0.0026334	960.1	0.0001003	0.00011666	662.97	331.12	0.00013576	0.00015565	247	77.728	113.97	37.981	0.00015404	30.455	320.508	254.107	107.732	96.635	192.181	339.452	95.242	100.721	265.562	125.647	98.461	102.160	105.142	107.964	140.047	104.621	-8191	255	
2161.999	1	1	0	0	0.11414	0.047821	0.24593	0.21013	0.13068	0.29882	0.21448	0.19508	0.1558	0.19729	0.088063	0.075278	0.38706	0.087603	0.23187	0.40646	-2.3521	-2.5417	-2.6292	-2.6667	-2.6125	-2.7875	-2.5354	-3.0563	-2.7562	-2.5083	-2.9875	-2.7021	-2.7125	-2.7646	-2.6604	-2.8625	117.078	264.982	106.530	385.224	320.866	230.662	351.060	402.979	300.461	88.679	418.120	242.969	333.866	105.922	83.036	366.253	0.00074407	0.00068761	0.00027281	974.7	1.8276e-05	3.5199e-06	626.06	317.82	1.5719e-05	1.5203e-05	207.47	66.59	100.37	34.082	1.2595e-05	25.774	0.010286	0.014929	0.0041052	1012.1	0.00014293	0.00015513	666.99	333.13	0.0001255	0.00013202	234.56	73.514	108.55	36.272	0.00010264	28.701	333.509	87.961	201.994	96.619	249.178	132.600	94.965	100.778	202.609	315.967	98.053	102.120	105.146	108.093	261.046	105.104	-8191	255	
2162.097	1	1	0	0	0.19823	0.36542	0.022512	0.31038	0.082871	0.21201	0.16931	0.21078	0.1695	0.088146	0.047186	0.074064	0.28159	0.096508	0.28181	0.024608	-2.1167	-2.45	-2.875	-2.5563	-2.7271	-2.8063	-2.6667	-2.7438	-2.7875	-2.5521	-2.8604	-2.4396	-2.4792	-2.7271	-2.4938	-2.775	315.084	418.334	192.994	346.019	148.712	191.001	369.335	376.697	320.482	367.295	311.510	83.327	372.669	375.179	156.760	364.838	0.00065723	0.0011075	0.00015487	945.73	1.0754e-05	1.0944e-06	606.21	302.59	1.9605e-06	1.2327e-05	197.88	64.695	96.505	33.385	7.947e-06	25.772	0.0067331	0.0095849	0.0027024	967.58	9.3586e-05	0.00010167	629.89	310.12	8.3221e-05	8.9988e-05	214.81	69.394	101.83	34.983	7.2835e-05	27.749	326.190	263.096	220.672	96.610	345.440	142.137	95.015	100.831	353.081	241.769	98.212	102.199	104.876	108.006	317.896	104.568	-8191	255	
2162.192	1	1	0	0	0.17309	0.034368	0.20687	0.20361	0.022154	0.072195	0.19416	0.26209	0.07853	0.23661	0.12033	0.27697	0.13022	0.17365	0.28603	0.49204	-2.2458	-2.3937	-2.7667	-2.6875	-2.5042	-2.8417	-2.5	-2.5271	-2.5708	-2.5062	-2.7417	-2.6979	-2.4646	-2.9229	-2.4896	-2.6146	260.914	100.542	94.042	155.745	384.614	439.313	285.088	402.768	421.134	239.044	279.755	385.859	312.107	161.645	336.528	408.473	0.00073484	0.00028405	0.00023995	882.29	5.0838e-06	1.8825e-06	575.56	269.98	1.2057e-05	6.0102e-06	186.26	61.587	86.467	31.549	5.2569e-06	27.639	0.0045002	0.0062025	0.001676	888.2	5.7679e-05	6.2664e-05	585.36	273.6	5.243e-05	5.7065e-05	196.99	64.312	89.431	32.41	5.0478e-05	28.965	327.246	319.005	117.445	96.563	305.563	235.810	94.922	100.972	261.260	295.353	98.530	102.612	105.339	108.386	164.846	105.023	-8191	255	
2162.288	1	1	0	0	0.11981	0.20782	0.096138	0.13987	0.26919	0.14082	0.089987	0.25608	0.12098	0.23807	0.056416	0.021708	0.020084	0.19014	0.069447	0.06002	-2.2812	-2.2917	-2.6979	-2.7562	-2.6125	-2.9562	-2.5833	-2.8021	-2.6958	-2.4208	-2.8792	-2.7438	-2.5875	-2.8896	-2.6542	-2.6604	292.230	387.033	440.833	113.458	322.315	300.451	390.557	347.957	366.352	295.046	272.943	270.227	428.379	231.146	217.502	174.437	0.00064097	0.00018637	7.6108e-05	798.24	7.7161e-06	4.6935e-06	553.27	251.77	6.6729e-06	6.1926e-06	189.3	63.324	81.713	30.696	4.7735e-06	28.468	0.0034453	0.0048006	0.0013502	805	5.0389e-05	5.7597e-05	564.01	256.26	5.902e-05	6.664e-05	201.72	66.699	86.353	32.208	7.3692e-05	30.812	327.772	437.644	160.308	96.813	212.717	222.360	95.155	101.153	222.647	234.834	98.694	102.511	105.684	108.432	125.083	105.091	-8191	255	
2162.384	1	1	0	0	0.23285	0.20796	0.12873	0.27369	0.027263	0.14712	0.11099	0.30548	0.10026	0.17452	0.13427	0.16522	0.055235	0.075741	0.19763	0.071351	-2.2833	-2.4729	-2.6771	-2.75	-2.5208	-2.8021	-2.6708	-2.6229	-2.8896	-2.475	-2.7229	-2.8063	-2.4562	-2.9979	-2.7062	-2.4479	222.217	313.499	122.422	163.459	174.628	321.956	87.729	367.287	285.230	281.386	196.455	207.554	321.720	411.211	196.386	333.299	0.00072337	0.00045483	9.4897e-05	768.52	1.6712e-05	9.1782e-06	546.53	246.3	6.3113e-06	1.1012e-05	191.18	65.219	81.671	31.101	5.2502e-06	29.679	0.0052035	0.007542	0.0021082	786.1	7.6899e-05	8.5148e-05	565.56	253.7	7.9298e-05	8.619e-05	208.48	69.793	87.644	32.814	7.8471e-05	31.884	319.495	94.081	268.503	96.525	211.587	258.827	95.273	100.999	215.919	275.719	98.247	102.900	105.584	108.325	209.700	104.662	-8191	255	
2162.504	1	1	0	0	0.36547	0.15728	0.20239	0.10572	0.26779	0.1229	0.14907	0.098536	0.2702	0.091989	0.23678	0.11568	0.21202	0.22915	0.35332	0.11384	-2.4021	-2.4562	-2.7875	-2.8563	-2.5312	-2.8396	-2.6542	-2.7833	-2.9667	-2.5479	-2.7396	-2.7708	-2.5563	-2.6375	-2.6979	-2.7146	280.004	155.404	331.905	104.782	347.251	167.372	279.854	141.545	294.457	336.997	327.194	338.201	348.768	180.571	391.814	229.127	0.0006465	0.00055396	6.3265e-05	766.19	9.894e-06	7.7462e-06	554.35	254	2.7699e-06	1.5716e-05	197.4	69.096	85.673	33.063	9.6853e-06	32.571	0.0052866	0.0075344	0.0021176	781.4	7.616e-05	8.6188e-05	573.33	261.01	8.0154e-05	8.8957e-05	215.76	73.562	91.566	34.778	7.9855e-05	34.657	341.586	132.364	172.164	96.687	309.886	89.903	94.905	100.875	118.258	268.225	98.704	102.696	105.217	108.364	226.721	105.026	-8191	255	
2162.601	1	1	0	0	0.1572	0.18177	0.16551	0.20054	0.098056	0.16308	0.17056	0.17451	0.18785	0.21086	0.043801	0.27515	0.18782	0.23825	0.13788	0.17769	-2.5854	-2.5979	-2.7125	-2.8875	-2.3104	-2.7229	-2.5938	-2.6125	-3.1271	-2.6354	-2.6958	-2.8521	-2.4625	-2.6063	-2.625	-2.6312	109.588	95.336	335.591	414.027	295.542	433.457	298.945	298.637	316.225	257.014	183.679	395.485	105.590	296.025	99.536	428.067	0.00083056	0.00012	0.00010531	777.5	2.0354e-06	4.8695e-06	572.38	265.2	1.2795e-05	7.7684e-06	210.08	74.034	91.049	35.211	3.668e-06	34.039	0.0052892	0.0074411	0.0020684	791.99	7.1039e-05	7.8138e-05	589.05	271.06	6.7871e-05	7.4584e-05	224.44	77.508	95.691	36.369	6.6592e-05	35.905	328.911	228.236	209.907	96.508	269.276	239.039	95.157	100.953	223.390	184.222	98.151	102.630	105.026	108.087	146.979	104.712	-8191	255	
2162.697	1	1	0	0	0.18417	0.082094	0.016847	0.17295	0.18201	0.068405	0.15632	0.32698	0.23166	0.1922	0.16873	0.25588	0.23333	0.034055	0.23726	0.2398	-2.4938	-2.6271	-2.6667	-3.0354	-2.5021	-2.9646	-2.9188	-2.5896	-2.6042	-2.6021	-2.7458	-2.8208	-2.5292	-2.8417	-2.7812	-2.5708	88.458	304.974	171.094	395.164	371.378	255.035	427.925	340.434	191.527	130.051	231.771	97.798	141.317	423.824	414.772	422.832	0.00073822	0.00079647	0.00017696	803.12	1.0293e-05	7.1946e-06	580.99	271.41	4.1624e-06	5.1346e-06	208.51	72.985	91.677	34.742	3.1784e-06	32.87	0.0043713	0.0061689	0.0017102	810.82	5.8191e-05	6.3972e-05	593.55	275.73	5.5875e-05	6.1801e-05	219.42	75.477	94.849	35.681	5.6008e-05	34.409	333.705	179.430	185.975	96.486	261.764	196.012	95.096	100.850	394.426	267.790	98.163	102.118	105.289	107.978	228.951	104.866	-8191	255	
2162.793	1	1	0	0	0.30312	0.26816	0.32562	0.13906	0.063107	0.09523	0.11376	0.15688	0.10135	0.0027271	0.18082	0.078387	0.17765	0.15748	0.17047	0.21353	-2.3375	-2.4729	-2.3625	-2.8292	-2.4083	-2.625	-2.7625	-2.5521	-2.6125	-2.6708	-2.3021	-2.8604	-2.4833	-2.6813	-2.625	-2.5458	273.102	441.189	213.942	409.058	385.316	425.937	131.888	90.945	388.146	415.446	105.258	415.528	188.362	124.340	247.692	379.252	0.00087783	0.00083103	0.00039296	791.21	6.7898e-06	4.2685e-06	560.72	257.01	1.0188e-05	3.8416e-06	196	66.819	83.374	31.419	7.1361e-06	30.053	0.003786	0.0053309	0.0015114	799.38	5.2934e-05	5.8937e-05	569.61	260.69	5.242e-05	5.8313e-05	205.83	69.071	87.144	32.578	5.6336e-05	31.483	340.196	152.159	214.011	96.350	203.441	293.070	95.095	100.865	215.510	261.129	98.673	102.026	104.913	108.091	252.110	104.538	-8191	255	
2162.889	1	1	0	0	0.21647	0.18722	0.084808	0.17916	0.12796	0.20968	0.13632	0.061334	0.12349	0.090958	0.15938	0.10597	0.2414	0.16067	0.22242	0.21872	-2.2896	-2.6729	-2.5583	-2.9833	-2.6042	-2.7042	-2.8667	-2.6958	-2.7333	-2.7396	-2.5354	-2.9583	-2.5563	-2.7313	-2.6521	-2.4562	274.216	91.095	131.002	88.832	237.977	312.357	171.504	421.197	391.025	312.720	140.491	259.088	230.936	183.345	379.826	246.666	0.00081383	0.00045382	8.8689e-05	749	2.3389e-06	4.0899e-06	537.08	241.29	1.0129e-05	4.3172e-06	190.16	64.844	78.402	30.143	9.4951e-06	30.664	0.0039312	0.005626	0.0016095	760.4	5.8684e-05	6.6441e-05	548.81	246.68	6.4655e-05	7.2996e-05	204.73	68.98	83.767	31.799	7.5992e-05	32.769	321.641	176.555	278.964	96.476	425.369	193.632	95.212	100.858	185.795	276.339	98.394	102.670	105.423	108.185	217.793	104.854	-8191	255	
2162.983	1	1	0	0	0.1808	0.11031	0.22463	0.29209	0.19834	0.2281	0.2243	0.086845	0.25021	0.086626	0.22594	0.072779	0.2681	0.26471	0.088674	0.29851	-2.2979	-2.675	-2.5333	-2.9729	-2.6271	-2.6437	-2.9396	-2.5771	-2.7208	-2.9021	-2.6375	-2.8396	-2.7646	-2.6125	-2.7917	-2.6083	148.318	427.078	424.469	121.382	227.889	114.783	374.234	340.549	355.895	186.660	412.375	125.235	179.429	123.958	336.080	380.795	0.00082928	0.00027143	0.00010781	721.25	7.3432e-06	4.0752e-06	538.33	228.19	1.992e-05	7.3428e-06	186.95	63.995	73.168	28.155	1.1272e-05	29.221	0.0051873	0.0075284	0.002104	736.05	7.4838e-05	8.4957e-05	556.76	236.37	7.9295e-05	8.8405e-05	205.42	69.134	79.716	29.995	8.8572e-05	31.748	341.658	226.002	314.935	96.275	309.651	270.466	94.650	101.096	200.722	365.083	98.179	102.724	105.796	108.569	235.438	104.686	-8191	255	
2163.080	1	1	0	0	0.082861	0.22732	0.43388	0.19588	0.13419	0.28669	0.18726	0.017545	0.1602	0.12448	0.066261	0.051814	0.13981	0.17827	0.23291	0.078642	-2.1479	-2.6562	-2.4125	-2.7896	-2.7313	-2.4458	-2.9958	-2.5479	-2.725	-2.8854	-2.675	-2.7625	-2.8438	-2.3979	-2.8583	-2.5958	149.649	254.382	201.479	149.337	234.858	129.431	341.592	292.668	298.335	200.942	197.781	156.002	279.805	117.711	327.968	418.771	0.0007059	0.00061977	0.00015768	691.47	2.4939e-05	1.9706e-06	525.3	218.41	1.341e-05	4.3516e-06	183.49	63.115	70.71	26.733	8.3757e-06	27.48	0.0061786	0.0088715	0.0024938	715.16	8.9528e-05	0.0001002	555.48	229.4	9.292e-05	0.00010311	205.91	69.14	78.569	28.936	9.974e-05	30.5	337.835	365.637	263.853	96.339	269.402	139.050	94.663	100.922	274.735	243.865	98.415	102.648	105.522	108.695	242.103	105.161	-8191	255	
2163.177	1	1	0	0	0.20341	0.17165	0.10806	0.098854	0.31875	0.10371	0.11962	0.2611	0.21831	0.33072	0.3042	0.20626	0.15009	0.049961	0.074797	0.39132	-2.0875	-2.8583	-2.5583	-2.9021	-2.7208	-2.4771	-2.9771	-2.5958	-2.4729	-2.9	-2.4979	-2.5771	-2.6479	-2.5542	-2.9062	-2.7167	245.789	371.812	126.730	170.811	352.366	283.446	347.158	346.595	411.871	283.923	115.495	158.557	301.448	422.754	431.458	159.174	0.0008834	0.00054332	0.00018551	681.37	1.4973e-05	1.4103e-05	525.42	219	1.0802e-06	8.7914e-06	183.79	63.015	70.757	26.671	4.4406e-06	27.087	0.0066979	0.0096335	0.002657	705.44	9.2003e-05	0.00010218	554.9	228.35	9.1156e-05	0.00010029	204.82	69.059	77.912	28.609	9.1247e-05	29.773	328.818	134.382	330.880	96.354	208.778	209.009	94.873	100.746	234.210	324.056	98.647	102.727	105.629	108.093	230.196	105.651	-8191	255	
2163.295	1	1	0	0	0.32651	0.087922	0.15558	0.052221	0.35383	0.11716	0.26987	0.2282	0.04211	0.080459	0.23686	0.010061	0.32103	0.29804	0.074118	0.26273	-2.1583	-2.9208	-2.4062	-2.7708	-2.725	-2.4229	-2.8396	-2.7083	-2.7083	-3.0375	-2.8125	-2.7062	-2.8396	-2.4313	-2.6375	-2.7917	367.619	150.246	435.500	438.712	139.719	88.810	93.420	96.732	280.322	412.010	371.155	310.885	429.232	132.699	376.201	244.940	0.0006438	0.00041793	9.3835e-05	681.25	6.5013e-06	1.2462e-05	525.41	216.67	5.4334e-06	8.813e-06	183.58	63.818	71.591	27.574	2.3743e-06	29.278	0.0059889	0.0085109	0.0023386	701.08	8.1783e-05	9.0369e-05	548.6	224.88	8.1056e-05	8.7921e-05	202.07	68.335	77.635	29.206	8.0705e-05	31.201	335.500	264.316	209.534	96.144	292.505	168.693	94.688	100.777	318.772	294.120	98.530	102.736	105.459	108.333	189.325	105.064	-8191	255	
2163.368	1	1	0	0	0.13748	0.32079	0.25321	0.40931	0.084659	0.34447	0.34222	0.20703	0.26835	0.0288	0.071755	0.16907	0.18697	0.37738	0.1499	0.05858	-1.9896	-2.7625	-2.4458	-2.7979	-2.775	-2.5083	-2.95	-2.6729	-2.4979	-2.9354	-2.6479	-2.6542	-2.7896	-2.4417	-2.8958	-2.7896	279.189	93.316	358.981	424.790	424.323	172.430	341.968	137.082	136.332	235.864	270.152	122.330	200.252	94.964	151.502	416.205	0.00078781	0.000604	0.00026425	699.79	3.3158e-06	5.9525e-06	543.58	228.15	9.4432e-06	3.5938e-06	192.11	68.349	76.854	30.147	7.4426e-06	31.345	0.0052596	0.0073911	0.0020119	712.63	7.0784e-05	7.6652e-05	557.26	234.54	6.8389e-05	7.4431e-05	206.98	71.521	81.721	31.493	6.7106e-05	33.174	331.379	203.607	103.409	96.607	338.940	360.191	95.055	100.664	238.194	403.762	98.501	102.783	105.292	108.239	209.469	104.957	-8191	255	
2163.464	1	1	0	0	0.10563	0.16745	0.090809	0.10498	0.1931	0.20869	0.17043	0.30457	0.02344	0.20956	0.3339	0.058622	0.25315	0.11281	0.10046	0.22669	-2.1188	-2.8187	-2.6854	-2.6333	-2.8958	-2.6167	-2.7687	-2.7896	-2.4938	-3.0521	-2.5854	-2.6583	-3.0021	-2.4833	-2.9146	-2.7938	229.642	438.980	198.937	133.148	323.739	361.519	103.135	384.670	297.019	408.160	110.129	288.337	115.589	121.397	409.784	415.619	0.00063881	0.00010322	4.1596e-05	714.84	7.3464e-06	7.8335e-06	546.32	234.51	1.1846e-05	9.9766e-07	194.89	69.528	80.202	30.938	5.2227e-06	31.961	0.0045044	0.00632	0.001736	724.45	6.0184e-05	6.7315e-05	558.88	239.38	6.1339e-05	6.6337e-05	207.83	72.452	83.851	32.12	6.0538e-05	33.449	345.589	217.117	421.895	96.329	219.737	274.330	94.787	101.008	193.578	225.811	98.252	102.684	105.454	108.450	282.051	105.376	-8191	255	
2163.583	1	1	0	0	0.33697	0.11277	0.11335	0.45383	0.23664	0.19413	0.17739	0.12663	0.08678	0.23731	0.11928	0.1774	0.19217	0.042582	0.17559	0.11018	-2.0458	-2.8875	-2.6937	-2.5187	-2.9	-2.5167	-2.6104	-2.7313	-2.6104	-2.8833	-2.6583	-2.5	-2.9979	-2.6833	-2.7458	-2.9667	276.119	139.204	179.266	126.777	328.005	284.119	367.801	145.738	437.672	352.826	299.866	101.362	402.414	116.512	87.690	207.462	0.00087004	0.0010009	0.00014573	720.78	1.2976e-05	6.4746e-06	544.37	235.71	6.015e-06	4.7177e-06	192.1	67.373	79.195	30.483	1.8926e-06	30.21	0.0040665	0.0057152	0.0015885	730.61	5.5168e-05	6.0252e-05	554.58	240.45	5.4263e-05	6.0211e-05	202.53	69.961	82.964	31.617	5.5057e-05	31.682	329.260	114.504	152.910	96.685	195.018	345.602	94.706	100.761	218.557	195.625	98.249	102.321	105.644	108.316	169.331	104.731	-8191	255	
2163.679	1	1	0	0	0.15906	0.18536	0.20276	0.059826	0.074289	0.14759	0.056779	0.10317	0.065001	0.20594	0.49709	0.20439	0.13639	0.2141	0.24433	0.14713	-1.7437	-2.7646	-2.6854	-2.7375	-2.8854	-2.7146	-2.775	-2.9021	-2.6396	-3.0104	-2.8083	-2.575	-2.8958	-2.6813	-2.5875	-2.7438	267.377	370.748	396.344	95.305	371.130	168.852	330.443	334.349	295.388	365.676	368.374	121.575	382.322	141.020	268.780	304.118	0.00064852	0.00020515	0.00033956	721.19	4.6668e-06	2.8533e-06	536.43	235.77	5.0356e-06	3.4954e-06	189.07	65.866	79.103	30.414	5.0013e-06	29.982	0.0037278	0.0051352	0.0014407	728.91	5.0021e-05	5.5431e-05	542.63	239.07	5.0584e-05	5.5453e-05	197.83	68.184	82.297	31.395	4.588e-05	30.965	327.813	96.613	182.156	96.384	317.699	257.321	95.179	100.709	120.996	161.954	98.127	102.422	105.070	108.091	279.385	105.228	-8191	255	
2163.775	1	1	0	0	0.12998	0.02796	0.13147	0.06991	0.31375	0.21067	0.055342	0.10157	0.070221	0.055802	0.12718	0.094394	0.20062	0.25653	0.096252	0.18535	-2.1792	-2.6813	-2.9625	-2.6063	-2.9521	-2.6708	-2.7812	-3.0812	-2.7167	-2.7292	-3.05	-2.5187	-2.7125	-2.7958	-2.6312	-2.8292	166.954	211.070	387.744	275.863	332.367	271.639	212.854	182.313	97.136	85.645	292.676	360.329	427.079	84.483	248.041	243.394	0.00084948	0.0003726	3.6211e-05	724.62	9.6515e-06	2.222e-06	531.35	236.36	7.9686e-06	3.7782e-06	185.8	65.954	79.725	30.535	2.0057e-06	30.119	0.0028054	0.0037746	0.0010077	724.22	3.3594e-05	3.639e-05	535.2	236.9	3.3167e-05	3.6753e-05	192.02	67.059	81.27	31.211	3.59e-05	30.981	334.819	164.979	85.598	96.390	266.222	239.216	94.827	101.012	273.929	232.332	98.071	102.445	105.312	108.090	319.399	105.255	-8191	255	
2163.896	1	1	0	0	0.098589	0.40836	0.20565	0.28886	0.11272	0.12204	0.21877	0.14711	0.081569	0.26786	0.15996	0.19549	0.15427	0.091773	0.35531	0.22234	-2.0146	-2.5583	-2.8146	-2.5583	-2.8688	-2.6354	-2.6146	-2.9708	-2.3917	-2.6729	-2.7833	-2.6	-2.7812	-2.6792	-2.4271	-2.8479	376.475	263.859	198.552	411.718	341.954	172.972	395.187	285.323	235.436	93.520	416.652	216.095	254.288	298.997	119.463	424.285	0.00069067	0.0001417	0.00015724	720.81	8.9767e-06	3.1804e-06	532.01	235.7	9.168e-06	5.491e-06	189.19	65.992	79.089	30.579	6.1519e-06	30.457	0.002548	0.0036477	0.0010145	723.5	3.7228e-05	4.2721e-05	538.64	237.42	4.2011e-05	4.7358e-05	195.9	68.045	81.994	31.54	4.7524e-05	31.671	337.432	227.189	101.968	96.193	168.694	212.093	94.770	101.033	291.229	344.045	98.127	102.845	105.356	108.507	279.150	105.170	-8191	255	
2163.992	1	1	0	0	0.11321	0.28824	0.25705	0.36779	0.21819	0.18228	0.13477	0.27046	0.19547	0.12969	0.1388	0.22014	0.2154	0.11197	0.43095	0.0594	-2.2542	-2.7604	-2.8854	-2.6042	-2.7708	-2.7438	-2.5542	-3.0083	-2.6354	-2.6813	-2.9604	-2.4583	-2.5917	-2.8333	-2.4146	-3.0208	124.564	373.478	442.454	417.841	200.757	357.314	396.857	83.370	269.497	103.629	298.392	398.312	289.884	185.371	284.889	183.187	0.00076047	0.0001468	0.00019469	725.95	8.1812e-06	2.118e-06	538.02	234.67	1.1525e-05	6.0599e-06	189.03	66.705	79.626	30.609	3.4862e-06	29.885	0.003255	0.0045997	0.0012914	727.32	4.5417e-05	5.1671e-05	544.52	238.06	4.6367e-05	5.1477e-05	197.99	68.776	82.113	31.491	4.8215e-05	31.188	331.289	194.058	186.682	96.276	317.875	200.452	94.837	101.143	214.714	193.939	98.240	102.409	105.372	108.237	234.023	105.119	-8191	255	
2164.064	1	1	0	0	0.23906	0.082173	0.22408	0.2456	0.21706	0.090253	0.073448	0.048969	0.058858	0.14714	0.20279	0.2077	0.077719	0.19833	0.20939	0.28043	-2.3625	-2.4896	-2.7792	-2.5958	-2.7562	-2.9208	-2.525	-2.825	-2.5792	-2.4708	-2.875	-2.5354	-2.575	-2.8104	-2.4917	-2.7458	376.005	184.755	244.087	171.213	198.325	432.670	200.994	278.518	311.952	213.851	420.250	125.666	403.319	430.976	189.155	205.039	0.00085913	0.00022444	0.00023127	718.1	1.546e-05	5.4834e-06	529.22	231.86	1.0879e-05	6.0759e-06	185.04	65.406	78.382	29.922	7.1872e-06	29.193	0.0032731	0.0046107	0.0012781	721.62	4.5151e-05	5.0435e-05	536.32	235.07	4.5864e-05	5.075e-05	193.38	67.355	81.153	30.862	4.6874e-05	30.419	328.122	235.925	131.431	96.420	269.141	365.658	94.644	100.860	262.757	374.626	98.362	102.697	105.612	108.120	231.618	104.788	-8191	255	
2164.184	1	1	0	0	0.23447	0.16574	0.21597	0.19429	0.12554	0.10214	0.12404	0.060649	0.076417	0.12315	0.27022	0.12012	0.17991	0.27614	0.19382	0.069005	-2.1521	-2.4271	-2.8958	-2.5208	-2.6458	-2.8563	-2.5396	-2.75	-2.575	-2.6833	-2.8312	-2.5271	-2.5479	-2.8646	-2.4188	-2.7438	111.843	109.357	239.114	121.153	212.944	153.072	438.279	325.871	329.763	184.576	175.018	100.531	122.122	434.660	84.513	107.801	0.0008338	0.00035952	0.00014771	715.37	4.6081e-06	3.4291e-06	525.85	231.5	1.0899e-05	6.7008e-06	185.48	65.794	78.497	30.154	3.4842e-06	29.87	0.0031997	0.0044795	0.0012317	717.78	4.4012e-05	4.8663e-05	534.14	234.52	4.4623e-05	4.8908e-05	193.64	67.575	81.303	31.054	4.5678e-05	30.843	316.175	173.132	216.710	96.063	348.142	266.875	94.929	100.862	278.980	111.193	98.721	102.566	104.990	108.309	153.168	105.019	-8191	255	
2164.281	1	1	0	0	0.15755	0.20696	0.16692	0.0795	0.43336	0.36212	0.050102	0.30281	0.20021	0.22169	0.16788	0.10392	0.29375	0.024772	0.22631	0.03058	-2.2375	-2.4375	-2.7687	-2.8146	-2.5812	-2.8688	-2.375	-2.8771	-2.7104	-2.3688	-2.6271	-2.5687	-2.6437	-2.6771	-2.5896	-2.6688	108.660	122.367	428.814	83.930	280.828	393.478	418.286	368.484	273.058	338.511	118.130	351.815	247.528	352.876	109.728	96.949	0.00066887	0.00031748	0.00024723	712.92	1.5301e-05	6.8929e-06	527.77	233.18	1.4313e-06	5.8484e-06	185.04	66.007	79.722	30.474	1.4575e-05	29.861	0.0030935	0.0043227	0.001194	716.76	4.2584e-05	4.6912e-05	533.82	235.32	4.2685e-05	4.6585e-05	194.39	68.124	81.735	31.114	4.357e-05	30.892	318.957	117.299	195.007	96.352	269.991	235.687	94.888	100.906	218.349	171.202	98.459	102.431	105.541	108.584	223.037	104.901	-8191	255	
2164.375	1	1	0	0	0.22656	0.13685	0.19065	0.08284	0.23704	0.19352	0.25099	0.27162	0.085443	0.27241	0.087777	0.25367	0.31555	0.20185	0.35717	0.22285	-2.3	-2.4479	-2.7083	-2.8771	-2.5771	-2.7958	-2.5542	-2.625	-2.8625	-2.5062	-2.8646	-2.7	-2.5458	-2.9521	-2.5375	-2.5333	311.720	389.264	192.016	374.385	355.946	277.834	358.424	344.692	163.125	239.964	226.773	340.175	189.174	258.772	329.901	123.491	0.00075348	0.00051073	0.0001645	715.84	1.0903e-06	3.5778e-06	532.98	233.97	7.4049e-06	5.2688e-06	188.6	67.159	79.38	30.784	9.2979e-06	30.295	0.0030001	0.0041555	0.0011485	717.25	4.1456e-05	4.5997e-05	538.29	236.06	4.2757e-05	4.6954e-05	195.64	68.858	82.054	31.499	4.3702e-05	31.294	329.301	110.421	255.486	96.232	91.677	335.678	94.883	100.811	258.410	280.206	98.131	102.623	105.514	108.144	281.528	104.839	-8191	255	
2164.496	1	1	0	0	0.11583	0.15839	0.35933	0.097817	0.044082	0.09206	0.21708	0.25285	0.038167	0.28125	0.20472	0.21089	0.19157	0.25507	0.055096	0.0095154	-2.3187	-2.5729	-2.8396	-2.9896	-2.3896	-2.9813	-2.55	-2.5292	-2.9042	-2.6292	-2.7917	-2.7812	-2.5417	-2.9625	-2.6458	-2.6396	139.089	398.006	307.143	98.454	422.404	359.855	364.973	94.009	147.934	302.546	87.971	344.545	231.140	400.211	143.503	149.096	0.00073123	0.00029756	0.00015164	720.16	1.0209e-05	3.9021e-06	527.86	234.61	7.8385e-06	9.1003e-06	186.51	65.504	79.713	30.642	9.7699e-06	29.436	0.0030167	0.0042269	0.0011501	721.88	4.1784e-05	4.5578e-05	534.14	235.95	4.2062e-05	4.6903e-05	192.81	67.411	82.093	31.262	4.3643e-05	30.501	332.888	272.764	247.377	96.075	235.663	213.379	95.075	100.947	260.463	205.582	98.139	102.734	105.229	108.050	222.723	104.801	-8191	255	
2164.592	1	1	0	0	0.14635	0.079341	0.29159	0.13679	0.15863	0.2749	0.051284	0.045892	0.26115	0.23443	0.17384	0.23509	0.17507	0.092773	0.27082	0.17776	-2.375	-2.3917	-2.6437	-2.6688	-2.4375	-2.675	-2.7604	-2.7208	-2.9167	-2.5854	-2.4813	-2.8271	-2.5083	-2.7313	-2.5646	-2.7458	185.829	175.872	209.214	308.175	255.924	263.765	333.388	397.100	402.943	108.068	382.468	376.067	119.628	434.798	136.780	252.931	0.00065297	0.00075368	3.3241e-05	716.12	5.9018e-06	5.9901e-06	526.42	233.68	1.8124e-05	2.9449e-06	183.99	65.284	80.008	30.945	9.5547e-06	29.925	0.0030124	0.0042489	0.0011699	717.76	4.181e-05	4.6544e-05	530.55	236.08	4.2644e-05	4.6683e-05	192.08	67.372	82.165	31.622	4.4259e-05	30.973	338.785	177.897	367.458	96.376	334.382	226.341	94.822	101.066	271.044	294.075	98.522	102.459	105.589	108.105	232.794	105.102	-8191	255	
2164.663	1	1	0	0	0.040586	0.083575	0.078765	0.078735	0.15633	0.15586	0.2868	0.21351	0.069245	0.33903	0.3122	0.056947	0.062244	0.021047	0.20643	0.25149	-2.6417	-2.6021	-2.6854	-2.9146	-2.5521	-2.6417	-2.5458	-2.4208	-2.8521	-2.4896	-2.7167	-2.8875	-2.6083	-2.6479	-2.6042	-2.4833	220.447	270.372	338.383	146.291	389.990	294.824	247.295	373.084	321.308	226.733	334.384	266.922	170.282	355.792	269.215	401.590	0.0006952	0.00065172	0.00011645	713.56	1.1984e-05	5.1831e-06	525.37	235.41	1.4131e-05	4.1818e-06	186.02	66.643	80.662	31.333	3.9028e-06	30.665	0.0029961	0.0042226	0.0011798	718.71	4.1884e-05	4.59e-05	532.14	237.5	4.2527e-05	4.6403e-05	194.04	68.182	82.944	31.998	4.4189e-05	31.584	342.584	210.645	174.822	96.121	241.882	219.677	95.071	100.799	255.761	299.109	98.297	102.463	105.030	108.113	252.330	104.525	-8191	255	
2164.760	1	1	0	0	0.099161	0.15624	0.13326	0.23877	0.18208	0.041454	0.052259	0.10312	0.27992	0.30638	0.10043	0.10438	0.10737	0.48548	0.055725	0.18463	-2.4125	-2.5229	-2.6521	-2.9583	-2.4437	-3.0042	-2.875	-2.5958	-2.8458	-2.6688	-2.5292	-2.6625	-2.4813	-2.8187	-2.6333	-2.5563	117.396	207.455	260.605	132.191	437.077	385.394	229.502	374.627	341.078	408.989	175.995	298.962	165.793	431.118	301.809	379.141	0.00081143	0.00081024	9.8308e-05	718.66	1.024e-05	2.2862e-06	531.13	236.87	6.287e-06	4.3527e-06	188.11	67.416	81.359	31.693	4.5883e-06	31.117	0.0030014	0.0042095	0.0011882	722.24	4.099e-05	4.568e-05	535.58	239.19	4.176e-05	4.6808e-05	195.83	69.203	83.626	32.421	4.3795e-05	32.105	323.174	136.114	232.787	96.253	231.998	311.465	94.743	100.881	265.140	257.172	98.216	102.287	104.895	108.104	216.089	105.132	-8191	255	
2164.856	1	1	0	0	0.062349	0.3388	0.31402	0.1929	0.21725	0.1062	0.071716	0.10408	0.26053	0.053736	0.2464	0.18272	0.14951	0.19172	0.13312	0.095221	-2.1958	-2.6417	-2.6437	-2.9625	-2.5771	-2.7333	-2.6708	-2.7271	-2.6896	-2.6771	-2.5375	-2.9562	-2.6188	-2.8229	-2.8875	-2.5625	373.125	176.269	116.832	383.967	302.930	320.471	359.064	392.258	402.916	212.805	108.017	303.875	291.740	111.086	375.299	385.226	0.00085806	0.0004585	0.00019171	721.4	5.0243e-06	1.1171e-05	535.38	237	2.2813e-06	3.7994e-06	189.14	67.186	82.332	31.454	1.9003e-06	30.422	0.0030088	0.0041705	0.0011755	723.77	4.1665e-05	4.5641e-05	539.17	240.2	4.2193e-05	4.6068e-05	197.23	69.073	84.185	32.318	4.3176e-05	31.526	328.562	139.218	183.289	96.177	169.727	194.262	94.893	100.926	297.315	201.704	98.504	102.438	105.109	108.137	133.523	105.033	-8191	255	
2164.976	1	1	0	0	0.22065	0.24131	0.10744	0.068454	0.1044	0.19804	0.21933	0.10957	0.15413	0.086122	0.16895	0.076574	0.22776	0.13215	0.219	0.35351	-2.2583	-2.7917	-2.5396	-3.05	-2.4375	-2.6271	-2.8354	-2.6188	-2.7333	-2.7958	-2.4938	-2.9271	-2.8083	-2.625	-2.925	-2.4813	365.557	417.983	368.882	205.980	106.643	142.317	413.145	409.387	211.854	92.279	362.251	150.905	218.157	98.081	396.060	431.417	0.000596	0.00064563	0.0001419	716.15	7.4256e-06	5.5387e-06	531.36	238.46	1.9076e-05	2.5015e-06	187.57	66.986	82.541	31.601	1.0027e-05	30.841	0.002983	0.0041268	0.0011588	721.4	4.0607e-05	4.5511e-05	534.12	240.27	4.1889e-05	4.6045e-05	195.41	68.74	84.496	32.475	4.3639e-05	31.817	339.347	127.423	217.447	96.001	239.745	269.758	94.961	100.980	224.584	296.623	98.926	102.706	105.492	108.565	245.942	104.576	-8191	255	
2165.073	1	1	0	0	0.12632	0.32538	0.15859	0.078733	0.21746	0.065054	0.15694	0.16621	0.059087	0.23066	0.14474	0.26661	0.2237	0.10684	0.13086	0.12746	-2.35	-2.6646	-2.5729	-2.8229	-2.7188	-2.6125	-2.8333	-2.5542	-2.8208	-2.8521	-2.5208	-2.7979	-2.7542	-2.5521	-2.975	-2.3479	174.122	249.616	115.439	132.658	144.553	398.282	313.338	200.672	356.369	310.635	95.936	313.383	397.965	222.834	189.277	383.897	0.00062004	0.00013988	0.00022842	721.1	6.5166e-06	2.5524e-06	529.41	237.72	3.759e-06	2.2983e-06	189.05	67.414	82.133	32.157	8.8278e-06	31.5	0.0029596	0.0042138	0.0011474	722.94	4.0893e-05	4.6174e-05	534.7	240.73	4.2586e-05	4.6713e-05	197.28	69.57	84.755	32.966	4.4878e-05	32.501	337.422	385.295	197.728	96.434	347.516	108.550	94.847	100.845	231.793	265.023	98.619	102.537	105.624	108.217	232.863	104.890	-8191	255	
2165.169	1	1	0	0	0.12464	0.17904	0.37242	0.16386	0.1435	0.23716	0.070042	0.056106	0.24201	0.14457	0.23965	0.096556	0.26417	0.14753	0.16951	0.18308	-2.1896	-2.8854	-2.4938	-2.8458	-2.6125	-2.6979	-3.0729	-2.7708	-2.5271	-2.7208	-2.3583	-2.8354	-2.7104	-2.5438	-2.8104	-2.7042	384.786	386.612	372.993	333.589	420.033	293.421	154.576	387.270	111.927	97.496	146.968	102.158	92.694	401.876	111.699	320.749	0.00072949	0.00056778	9.7959e-05	726.92	5.3571e-06	7.402e-06	534.48	241.91	7.8953e-06	6.9456e-06	190.38	68.531	83.625	32.752	5.8874e-06	31.672	0.0030872	0.0044359	0.0012082	728.01	4.2777e-05	4.8057e-05	539.9	243.81	4.4087e-05	4.8854e-05	199.6	70.318	86.002	33.535	4.5762e-05	32.945	321.547	201.895	169.074	96.268	428.886	224.295	94.810	101.164	295.825	209.090	98.334	102.515	105.268	108.400	165.969	104.894	-8191	255	
2165.265	1	1	0	0	0.067461	0.015891	0.23744	0.24725	0.058943	0.08811	0.087577	0.34731	0.27983	0.1429	0.21725	0.22288	0.10793	0.12635	0.011558	0.1869	-2.2812	-2.8146	-2.7083	-2.8792	-2.8229	-2.6542	-2.9292	-2.8312	-2.5521	-3.0979	-2.7375	-2.7938	-2.7167	-2.3688	-2.9354	-2.55	410.026	380.900	359.316	241.492	315.850	289.156	304.230	397.907	432.899	107.266	350.603	114.926	109.738	124.468	292.453	371.687	0.00080312	0.00051841	7.7984e-05	730.69	1.0271e-05	3.3272e-06	534.01	242.21	8.089e-06	6.5918e-06	191.52	68.719	84.653	32.699	4.927e-06	31.689	0.0031332	0.0043635	0.0012163	735.31	4.2939e-05	4.7593e-05	539.43	245.56	4.3917e-05	4.8148e-05	199.64	70.504	86.628	33.418	4.4744e-05	32.618	325.149	108.969	201.180	96.337	226.196	319.644	94.716	100.756	365.247	276.770	97.773	102.803	105.121	108.334	260.446	105.092	-8191	255	
2165.361	1	1	0	0	0.070956	0.25179	0.18891	0.3164	0.13798	0.24237	0.19255	0.055296	0.22748	0.13754	0.10016	0.10622	0.062486	0.19174	0.20377	0.10355	-2.2479	-2.9021	-2.4667	-2.7313	-2.8667	-2.5563	-2.9021	-2.7313	-2.6896	-2.875	-2.5333	-2.6667	-2.9354	-2.5604	-2.8271	-2.6479	292.819	234.958	419.809	413.163	416.865	264.065	157.376	399.642	236.599	225.473	411.595	321.519	311.458	89.548	134.804	217.818	0.00069924	0.0004449	0.00014368	728.26	9.3165e-06	5.207e-06	531.16	241.65	1.257e-05	1.0634e-05	186.46	66.376	82.792	31.779	8.0696e-06	30.185	0.0030613	0.0042357	0.001183	733.85	4.2863e-05	4.7488e-05	535.4	244.48	4.4553e-05	4.9537e-05	195.7	68.336	85.382	32.664	4.7789e-05	31.316	322.004	173.549	140.704	96.503	256.007	90.855	94.930	100.892	263.116	270.128	98.398	102.497	105.474	108.354	216.930	105.039	-8191	255	
2165.457	1	1	0	0	0.021149	0.12533	0.049517	0.087324	0.15622	0.21032	0.30988	0.30905	0.1801	0.028662	0.16246	0.20114	0.29417	0.12571	0.13436	0.13108	-2.1417	-2.7417	-2.6271	-2.7896	-2.7354	-2.4208	-2.8229	-2.9292	-2.4562	-3.175	-2.5458	-2.5167	-2.9417	-2.7479	-2.8521	-3.0646	318.439	389.736	319.707	270.929	111.910	115.174	415.871	364.407	240.921	177.257	133.259	309.034	115.931	365.492	197.889	268.857	0.0007101	0.0010588	0.00017174	728.8	1.6706e-05	1.0618e-05	524.65	240.4	1.2915e-05	5.1762e-06	186.09	65.328	82.529	31.96	6.8125e-06	30.309	0.0032968	0.0046772	0.0013004	732.89	4.7468e-05	5.2785e-05	531.94	243.65	4.9474e-05	5.4084e-05	196.23	67.948	85.522	32.832	5.1132e-05	31.572	334.422	173.780	164.775	96.307	238.519	228.621	95.007	101.170	279.441	286.374	97.916	102.861	105.431	108.440	266.042	104.984	-8191	255	
2165.576	1	1	0	0	0.17976	0.13087	0.2804	0.15633	0.2583	0.29608	0.17506	0.029267	0.21363	0.19483	0.14554	0.32353	0.10259	0.20846	0.14644	0.15693	-2.325	-2.7021	-2.4896	-2.6979	-2.9354	-2.7542	-3.0563	-2.8438	-2.5729	-2.7354	-2.7438	-2.5979	-2.8292	-2.5125	-2.6708	-2.6625	436.072	290.101	291.294	357.285	435.393	324.131	357.917	303.809	363.295	141.271	252.027	358.290	92.883	121.352	83.189	414.994	0.00071349	0.00012358	0.00024191	734.86	4.9231e-06	4.1121e-06	524.92	240.83	1.004e-05	1.0795e-05	185.89	65.745	83.109	31.874	7.5935e-06	30.42	0.0035201	0.0050019	0.0013692	739.81	4.8992e-05	5.4113e-05	534.21	244.94	5.0234e-05	5.404e-05	195.78	68.224	85.689	32.728	4.9547e-05	31.732	318.440	311.138	208.724	96.395	231.701	261.581	95.143	100.899	362.168	210.856	97.997	102.667	105.388	108.293	302.805	104.943	-8191	255	
2165.672	1	1	0	0	0.21949	0.079428	0.3347	0.044814	0.11644	0.062839	0.16922	0.16342	0.073082	0.11835	0.089883	0.13265	0.37678	0.18206	0.015616	0.34708	-2.0354	-2.7625	-2.6333	-2.6271	-2.7771	-2.6708	-2.85	-2.6792	-2.3958	-2.6979	-2.6937	-2.7062	-2.6604	-2.5396	-2.6667	-3.0604	242.865	284.427	289.630	317.018	171.824	101.630	364.652	88.515	305.764	312.289	274.575	246.131	127.894	432.754	305.218	342.795	0.00076632	0.00029371	7.8241e-05	730.99	7.1586e-06	4.9345e-06	529.74	240.67	3.6973e-06	1.6926e-05	187.7	66.957	83.078	32.201	7.9758e-06	30.874	0.0034077	0.0046773	0.0013056	736.82	4.63e-05	5.1326e-05	535.21	243.98	4.6733e-05	5.1048e-05	197.14	68.987	85.727	33.048	4.7614e-05	32.226	335.183	189.265	109.759	96.434	251.902	253.888	94.997	100.637	255.718	236.266	98.579	102.432	105.044	108.217	293.497	105.118	-8191	255	
2165.768	1	1	0	0	0.11607	0.082537	0.15358	0.10629	0.051569	0.15188	0.080807	0.062911	0.10318	0.21619	0.13524	0.14248	0.1594	0.10486	0.045003	0.14082	-2.1688	-2.7646	-2.7229	-2.6729	-2.8292	-2.7146	-2.6271	-2.9083	-2.5042	-2.6896	-2.8146	-2.6063	-2.9458	-2.7146	-2.5146	-2.9375	186.055	267.540	223.378	440.538	323.893	133.411	119.648	432.624	117.104	155.381	250.361	202.454	362.256	95.320	276.292	90.600	0.00085899	0.00039234	0.00010349	731.3	5.4348e-06	5.4188e-06	527.56	240.33	1.7361e-06	5.6103e-06	186.15	65.775	82.363	31.666	4.5996e-06	29.979	0.0032467	0.0045591	0.0012657	735.84	4.5476e-05	5.0682e-05	532.44	243.72	4.6148e-05	5.0531e-05	195.13	67.856	85.006	32.509	4.8279e-05	31.237	330.997	98.504	244.381	96.368	310.579	258.726	94.955	101.073	381.308	198.570	98.386	102.779	104.981	108.425	159.885	104.824	-8191	255	
2165.864	1	1	0	0	0.18668	0.14358	0.11047	0.21681	0.15796	0.18403	0.15115	0.13323	0.068735	0.12979	0.089017	0.10239	0.33153	0.19172	0.21082	0.077636	-2.1583	-2.8125	-2.8292	-2.3146	-2.8604	-2.6271	-2.4917	-2.8958	-2.5	-2.5917	-2.6333	-2.5104	-2.8521	-2.7979	-2.6854	-2.9083	376.998	398.854	131.206	435.606	394.762	113.767	105.946	391.539	229.008	95.292	329.266	370.231	438.142	358.613	284.709	85.255	0.00077409	0.00062736	1.0501e-05	728.4	8.6492e-06	5.7469e-06	520.63	240.98	1.7981e-05	6.883e-06	185.61	65.597	83.01	32.01	9.5639e-06	30.546	0.0033376	0.0046203	0.0013058	732.79	4.617e-05	5.1657e-05	528.14	244.15	4.6938e-05	5.1379e-05	195.17	67.781	85.583	32.835	4.808e-05	31.597	337.625	209.768	225.009	96.403	284.774	173.714	95.321	101.006	306.385	233.953	98.470	102.570	104.969	108.080	206.572	104.635	-8191	255	
2165.961	1	1	0	0	0.096792	0.11791	0.13704	0.19558	0.098041	0.22104	0.032872	0.18291	0.064158	0.054284	0.10231	0.080543	0.15645	0.051441	0.23722	0.1169	-2.2125	-2.6292	-2.9042	-2.5083	-2.9229	-2.7646	-2.7375	-2.8146	-2.7625	-2.6021	-2.8375	-2.4479	-3.0938	-2.6771	-2.4167	-2.9042	213.102	401.330	286.039	121.979	283.796	152.734	402.862	400.219	309.286	287.245	340.884	440.621	220.333	98.693	192.578	338.238	0.00068387	0.00051967	0.00014211	723.86	4.5842e-06	6.8341e-06	525.78	242.51	8.4753e-06	7.1335e-06	188.28	67.012	83.367	31.944	1.3328e-05	30.837	0.0032798	0.0045176	0.0012795	731.6	4.4836e-05	5.0625e-05	531.43	245	4.5964e-05	5.0082e-05	197.65	68.639	85.731	32.97	4.8037e-05	32.015	336.131	131.455	109.081	96.460	193.238	236.850	95.116	100.837	211.096	188.666	98.179	102.319	105.324	108.208	262.676	105.231	-8191	255	
2166.057	1	1	0	0	0.089179	0.26263	0.023501	0.093212	0.12182	0.078624	0.13576	0.16007	0.1262	0.21488	0.070147	0.19614	0.11295	0.11066	0.11438	0.15037	-2.2917	-2.4833	-2.8438	-2.6458	-2.6833	-2.8125	-2.5875	-2.9125	-2.6688	-2.6125	-2.9813	-2.5979	-2.9083	-2.7854	-2.4854	-2.9667	164.250	221.845	382.297	310.790	275.105	315.180	98.705	419.152	210.484	191.146	94.208	121.835	115.927	269.902	312.160	382.811	0.00076772	0.00030052	0.00011983	729.97	1.4768e-05	9.8537e-06	523.63	244.27	1.7026e-06	1.0556e-05	192.22	67.518	83.595	32.609	5.2704e-06	31.31	0.0032844	0.0046315	0.0012918	733.22	4.5806e-05	5.0808e-05	533.55	246.23	4.6791e-05	5.1261e-05	200	69.598	86.34	33.448	4.9017e-05	32.615	321.912	278.069	212.684	96.281	221.846	242.255	94.942	100.815	299.206	222.038	98.412	102.393	105.104	108.162	327.647	104.962	-8191	255	
2166.153	1	1	0	0	0.27077	0.16219	0.29476	0.088382	0.13367	0.054456	0.038799	0.28338	0.16331	0.024497	0.10194	0.1172	0.085365	0.084249	0.18044	0.086471	-2.2979	-2.5417	-2.8688	-2.5333	-2.7083	-2.8167	-2.6646	-2.9229	-2.7938	-2.4771	-2.9562	-2.5146	-2.7667	-2.7229	-2.3021	-2.7604	364.001	347.643	87.630	415.673	180.486	128.155	95.478	419.264	244.185	166.875	264.086	358.714	99.415	146.906	217.181	301.063	0.00068023	0.00030476	0.00016193	730.19	7.0366e-06	4.1012e-06	529.41	244.16	9.9515e-06	3.1593e-06	189.88	66.16	83.55	31.721	8.5047e-06	29.564	0.003321	0.0047234	0.0013164	735.45	4.5332e-05	5.1065e-05	536.02	246.86	4.7201e-05	5.1822e-05	198.88	68.507	86.223	32.71	4.8238e-05	30.763	328.218	154.023	186.653	96.561	306.349	333.507	94.876	100.875	232.764	321.167	98.434	102.647	105.265	108.285	303.621	104.747	-8191	255	
2166.272	1	1	0	0	0.079603	0.042126	0.11612	0.294	0.12863	0.15206	0.31448	0.059444	0.090451	0.14389	0.18396	0.082044	0.16219	0.15943	0.32876	0.30666	-2.3125	-2.525	-2.7542	-2.7292	-2.5396	-2.9583	-2.4938	-2.6562	-2.7562	-2.5542	-2.8917	-2.5854	-2.6042	-2.8646	-2.6021	-2.7	352.635	247.011	164.523	346.822	259.709	166.931	336.191	353.521	240.463	119.737	380.919	127.768	125.572	397.760	99.086	193.241	0.00079848	7.9115e-05	0.00011794	725.42	5.6635e-06	4.2133e-06	521.1	239.14	1.037e-05	5.6707e-06	184.89	65.147	81.418	30.847	6.3994e-06	28.987	0.0032655	0.0045692	0.0012527	730.4	4.3081e-05	4.7564e-05	525.16	241.47	4.257e-05	4.6623e-05	193.84	67.247	83.815	31.528	4.3483e-05	30.031	329.789	119.889	224.512	96.613	284.585	269.887	95.125	100.791	266.678	316.457	98.336	102.291	105.611	108.445	281.291	105.026	-8191	255	
2166.368	1	1	0	0	0.19665	0.035029	0.079401	0.033017	0.19248	0.14129	0.29471	0.24676	0.083854	0.075938	0.15236	0.066675	0.20994	0.16201	0.25602	0.15967	-2.25	-2.3125	-2.8312	-2.6271	-2.5917	-2.7917	-2.5792	-2.8083	-2.7208	-2.4042	-3.0229	-2.8229	-2.6042	-2.9333	-2.4646	-2.6479	240.801	388.316	367.648	107.244	182.846	190.721	336.966	396.837	197.814	233.829	192.833	379.811	240.253	100.881	160.519	421.352	0.00069748	0.00049768	0.00026133	715.49	1.6271e-05	7.5226e-06	518.08	237.26	1.6024e-05	7.5033e-06	183.89	65.331	82.11	30.732	1.4299e-06	29.194	0.0029538	0.0041994	0.0011574	720.8	4.148e-05	4.6539e-05	523.13	239.09	4.2159e-05	4.6736e-05	192.81	67.256	84.282	31.542	4.4039e-05	30.181	330.097	176.757	184.724	96.408	183.179	211.687	94.808	100.876	212.474	183.368	98.111	102.316	105.665	108.194	239.727	105.337	-8191	255	
2166.464	1	1	0	0	0.33274	0.10638	0.13598	0.25749	0.15984	0.11097	0.10144	0.30048	0.093711	0.0525	0.25905	0.14824	0.068786	0.21091	0.057059	0.09496	-2.1875	-2.3937	-2.6813	-2.7729	-2.6167	-2.9229	-2.5896	-2.7875	-2.7667	-2.375	-2.7333	-2.7708	-2.4083	-2.8688	-2.4021	-2.575	371.529	98.683	259.641	95.038	284.492	315.502	409.687	235.105	174.472	92.683	398.775	290.072	201.296	279.066	382.867	126.690	0.00082985	0.00054577	8.8792e-05	722.21	1.3126e-05	7.4533e-06	520.15	238	9.1775e-06	5.2311e-06	186.56	65.892	82.147	31.074	1.1212e-05	29.383	0.0030024	0.0041975	0.0011545	724.29	4.1133e-05	4.5615e-05	525.5	239.96	4.1764e-05	4.5557e-05	194.53	67.868	84.656	31.749	4.4379e-05	30.376	332.928	199.819	232.610	96.570	240.640	300.434	94.578	100.875	246.214	262.568	98.391	102.658	104.964	108.373	273.432	105.047	-8191	255	
2166.538	1	1	0	0	0.049046	0.20798	0.18138	0.03769	0.12752	0.13776	0.18196	0.18076	0.14407	0.059242	0.075861	0.34313	0.19303	0.10968	0.17655	0.056809	-2.4062	-2.4062	-2.7875	-2.7562	-2.4562	-2.8604	-2.7729	-2.8667	-2.8542	-2.2958	-2.7521	-2.8896	-2.3438	-3.0187	-2.3688	-2.4896	164.279	138.023	275.703	219.280	127.415	284.931	145.920	424.938	322.200	140.327	254.778	300.713	394.211	296.276	211.714	280.952	0.00064834	0.00057041	0.00013223	727.19	1.2628e-05	4.1014e-06	522.08	238.58	6.4304e-07	5.4873e-06	184	65.087	81.822	30.806	6.8982e-06	28.662	0.003075	0.0043079	0.0012035	731.9	4.273e-05	4.6985e-05	527.08	240.19	4.397e-05	4.8105e-05	191.85	67.373	84.784	31.562	4.5622e-05	29.617	328.824	118.094	431.042	96.321	248.078	302.102	94.807	100.962	123.140	129.087	98.564	102.656	105.172	108.357	283.499	105.334	-8191	255	
2166.656	1	1	0	0	0.10774	0.17491	0.22502	0.13677	0.19056	0.078714	0.17465	0.27901	0.17362	0.47717	0.11942	0.058738	0.16206	0.29558	0.18214	0.10037	-2.3417	-2.4146	-2.8312	-2.7729	-2.5625	-2.7646	-2.5771	-2.6396	-3.0187	-2.6312	-2.6375	-2.8146	-2.4167	-2.8167	-2.7042	-2.3854	430.092	313.105	127.454	106.959	362.143	433.771	312.878	136.323	143.697	395.438	333.017	388.523	366.370	107.762	337.615	357.429	0.00080915	0.00034641	0.00017419	728.32	1.016e-05	1.0018e-05	514.54	234.81	4.5319e-06	4.4663e-06	178.25	63.001	81.543	29.568	1.2924e-06	26.471	0.0031043	0.0043921	0.0012165	733.17	4.3182e-05	4.767e-05	521.31	237.22	4.3694e-05	4.7725e-05	186.5	65.152	83.646	30.386	4.5622e-05	27.661	331.901	170.053	137.460	96.584	252.803	244.498	94.839	100.940	251.146	203.579	98.357	102.394	105.113	108.396	114.078	104.962	-8191	255	
2166.753	1	1	0	0	0.22241	0.043273	0.060762	0.31902	0.38799	0.10818	0.24206	0.12726	0.16607	0.26196	0.04843	0.20718	0.082732	0.20777	0.10739	0.21649	-2.2771	-2.5375	-2.6896	-2.7208	-2.5125	-2.8583	-2.6937	-2.4354	-2.9354	-2.7438	-2.6833	-2.9062	-2.5375	-2.7833	-2.6542	-2.4437	399.182	168.370	266.443	90.131	299.026	319.143	95.815	129.762	326.630	167.461	369.269	417.172	421.946	429.079	307.288	114.281	0.00078129	0.00082439	0.00016613	731.92	1.0208e-05	5.7943e-06	506.72	232.7	1.0069e-05	1.2765e-05	174.45	61.835	80.76	29.358	3.2325e-06	26.488	0.0031269	0.0043934	0.0012361	734.24	4.3839e-05	4.8182e-05	513.65	235.72	4.4427e-05	4.965e-05	182.87	64.013	83.069	30.187	4.7204e-05	27.766	348.385	172.717	165.593	96.384	264.543	245.483	94.926	101.039	212.548	252.796	99.028	102.255	105.412	108.599	244.152	105.055	-8191	255	
2166.849	1	1	0	0	0.20284	0.2017	0.17773	0.070795	0.19909	0.15248	0.069642	0.25905	0.26436	0.096012	0.23505	0.17493	0.23721	0.11615	0.11305	0.15255	-2.2333	-2.5833	-2.5396	-2.8771	-2.45	-2.6937	-2.8292	-2.4417	-2.8917	-2.6125	-2.5396	-2.9667	-2.5062	-2.9375	-2.7917	-2.4792	242.202	390.767	220.696	158.074	403.507	277.315	373.933	329.485	423.051	181.378	366.623	84.908	376.448	95.301	363.396	367.498	0.00057719	0.00039817	4.0773e-05	725.02	3.8585e-06	3.0703e-06	509.37	234.53	1.0014e-05	2.3374e-06	174.79	62.311	80.999	30.026	6.7485e-06	27.375	0.0031668	0.0044818	0.0012477	730.5	4.4819e-05	4.9397e-05	514.95	236.52	4.6243e-05	5.0557e-05	184.43	64.397	83.751	30.839	4.8045e-05	28.551	317.527	254.395	203.662	96.392	357.865	192.726	94.980	100.897	226.007	273.172	98.119	102.402	105.282	108.381	252.134	105.342	-8191	255	
2166.945	1	1	0	0	0.054573	0.13866	0.10124	0.24998	0.26588	0.079886	0.19936	0.18681	0.095758	0.267	0.13448	0.1425	0.26907	0.129	0.16314	0.026565	-2.3167	-2.6083	-2.625	-3.0292	-2.5062	-2.7896	-2.6729	-2.4667	-2.9417	-2.6375	-2.5792	-2.9042	-2.4542	-2.8125	-3.0187	-2.4333	302.416	190.432	207.266	433.357	117.500	389.041	343.904	153.575	213.038	91.141	309.271	417.232	365.279	364.396	130.885	425.287	0.00066639	0.00081444	9.1357e-05	728.24	2.8343e-06	5.463e-06	512.39	235.41	8.0893e-06	3.5907e-06	178.19	63.556	82.07	30.231	9.2474e-06	27.485	0.0032348	0.0046243	0.0012639	733.45	4.4592e-05	4.8681e-05	518.04	238.24	4.4579e-05	4.9559e-05	186.9	65.602	84.707	31.052	4.636e-05	28.802	328.607	107.108	114.591	96.238	205.283	265.029	94.908	101.043	228.595	286.695	97.997	102.837	105.060	108.527	260.438	105.376	-8191	255	
2167.065	1	1	0	0	0.087124	0.13801	0.1188	0.21588	0.022123	0.038398	0.24043	0.029097	0.22682	0.13451	0.063446	0.20843	0.10761	0.10936	0.21244	0.063155	-2.3729	-2.7417	-2.3646	-2.9979	-2.7354	-2.5542	-2.8292	-2.6125	-2.7979	-2.8333	-2.5187	-2.85	-2.5875	-2.5292	-2.7188	-2.5875	117.610	179.895	314.133	110.774	377.858	420.061	228.023	105.768	274.646	374.113	108.738	130.761	324.515	118.312	88.099	379.777	0.00069465	0.00023319	0.00015741	730.08	1.5026e-05	2.8907e-06	514.84	234.21	1.5121e-05	4.7486e-06	176.62	62.322	81.113	29.692	4.3286e-06	26.875	0.0031383	0.0043351	0.001229	734.81	4.2578e-05	4.7499e-05	519.4	237.02	4.317e-05	4.7467e-05	184.78	64.438	83.599	30.47	4.4612e-05	27.844	324.288	107.915	207.954	96.436	241.379	358.079	94.819	100.950	257.565	263.332	98.741	102.619	105.451	108.312	154.499	104.990	-8191	255	
2167.162	1	1	0	0	0.04844	0.15062	0.10613	0.34144	0.17901	0.21463	0.12422	0.18204	0.16611	0.029187	0.10875	0.20411	0.016078	0.25711	0.040405	0.13837	-2.2375	-2.6854	-2.4062	-2.9083	-2.5479	-2.5146	-2.9	-2.6042	-2.7833	-2.7583	-2.4333	-2.7	-2.6646	-2.4458	-2.7458	-2.4396	218.111	401.999	159.382	125.459	149.647	225.177	402.176	362.186	217.439	187.881	199.794	82.777	103.111	148.347	419.112	151.085	0.00065401	0.00035623	7.9998e-05	724.82	6.4253e-06	6.1212e-06	505.53	233.08	9.1829e-06	7.3117e-06	176.35	62.235	80.967	29.951	4.9094e-06	26.99	0.0029457	0.0042259	0.0011714	726.8	4.1596e-05	4.639e-05	510.03	235.74	4.1975e-05	4.6575e-05	183.79	64.183	83.241	30.731	4.3326e-05	28.255	304.473	120.195	143.194	96.414	312.364	242.768	95.125	100.537	304.897	254.149	98.330	102.899	105.082	108.586	225.967	105.074	-8191	255	
2167.258	1	1	0	0	0.069428	0.21781	0.1563	0.046764	0.19505	0.039236	0.3767	0.13482	0.28318	0.098924	0.13855	0.15295	0.1704	0.17172	0.22224	0.19549	-2.3	-2.5687	-2.4313	-2.7562	-2.7562	-2.3312	-2.8063	-2.6833	-2.6792	-2.7042	-2.6063	-2.8354	-2.6979	-2.5417	-2.7708	-2.4979	270.481	137.353	196.916	106.214	242.506	427.557	210.267	365.255	132.604	162.590	266.786	366.583	240.724	429.827	140.113	424.733	0.00077953	0.00025961	7.07e-05	722.97	4.9583e-06	9.7843e-07	506.32	235.09	1.2205e-05	2.9453e-06	178.11	62.97	81.466	30.24	1.0691e-05	27.664	0.0029608	0.0041486	0.0011606	727.08	4.0504e-05	4.5912e-05	512.56	237.09	4.1765e-05	4.5799e-05	185.49	64.942	83.837	30.997	4.2737e-05	28.724	336.546	145.503	272.896	96.385	270.912	275.072	95.012	100.599	297.835	244.641	98.730	102.420	105.046	108.120	225.909	105.051	-8191	255	
2167.354	1	1	0	0	0.33912	0.054887	0.055379	0.14458	0.27252	0.25478	0.21061	0.28362	0.29517	0.16382	0.074931	0.22384	0.14077	0.25241	0.1867	0.2481	-2.2396	-2.7958	-2.425	-2.9583	-2.8063	-2.3354	-2.8979	-2.5187	-2.5458	-2.7771	-2.45	-2.8563	-2.8563	-2.5521	-2.5667	-2.5312	192.231	318.320	218.785	104.184	437.242	314.030	89.429	420.909	390.188	285.677	146.889	360.706	421.694	385.164	135.239	311.667	0.00070468	0.00051762	0.00019005	726.59	1.646e-06	3.6954e-06	510.47	235.37	1.261e-05	3.7949e-06	178.2	63.638	82.026	30.604	4.2289e-06	27.951	0.0029576	0.0042077	0.0011872	728.27	4.1206e-05	4.6348e-05	516.76	237.86	4.2813e-05	4.7505e-05	186.94	65.381	84.216	31.286	4.467e-05	29.059	321.517	188.878	94.602	96.540	349.394	178.316	95.012	100.859	231.849	272.722	98.173	102.521	104.789	108.341	285.003	104.610	-8191	255	
2167.448	1	1	0	0	0.05071	0.090745	0.056976	0.21476	0.039637	0.17725	0.19262	0.094739	0.063065	0.18446	0.22593	0.26432	0.15551	0.1264	0.064483	0.18286	-2.1854	-2.7	-2.375	-2.6208	-2.7042	-2.5312	-2.8771	-2.875	-2.675	-2.9354	-2.5854	-2.7687	-2.7875	-2.4938	-2.6188	-2.6771	183.146	437.959	327.191	418.712	338.418	120.350	224.194	409.727	426.683	377.633	165.981	319.585	283.534	226.745	346.181	241.397	0.00062773	0.0009374	0.00015113	730.06	6.893e-06	2.2202e-06	510	236.58	1.3875e-05	7.5004e-06	178.34	62.882	81.142	30.18	6.4237e-06	27.159	0.0031146	0.0043534	0.001196	731.6	4.3305e-05	4.7559e-05	517.75	239.42	4.3937e-05	4.8779e-05	187.16	64.69	83.893	31.017	4.552e-05	28.331	317.318	175.222	150.615	96.422	269.377	149.335	95.154	100.935	205.945	245.288	98.330	102.749	105.001	108.029	233.292	105.009	-8191	255	
2167.546	1	1	0	0	0.10124	0.2786	0.17872	0.21682	0.33378	0.10132	0.23675	0.14037	0.1667	0.1134	0.18966	0.26796	0.21032	0.27931	0.0057027	0.13383	-1.9917	-2.9854	-2.5271	-2.8042	-2.7333	-2.5625	-2.8646	-2.8604	-2.5917	-2.8187	-2.7188	-2.5708	-2.8667	-2.5	-2.7938	-2.6604	227.013	300.948	314.217	100.175	126.340	406.389	253.422	302.157	245.986	404.616	93.300	305.791	346.876	112.746	98.776	322.459	0.00075973	0.00063537	3.434e-05	721.45	8.7719e-06	8.6335e-06	499.8	235.16	7.6632e-06	7.9129e-06	174.15	60.839	80.448	29.975	1.1067e-05	26.868	0.0031567	0.004412	0.0012236	727.14	4.4395e-05	4.9048e-05	506.15	237.57	4.5247e-05	4.875e-05	182.76	63.331	83.241	30.864	4.597e-05	28.076	315.681	107.757	273.150	96.347	267.374	267.476	95.148	100.860	389.809	240.390	98.248	102.501	104.928	108.256	198.556	104.994	-8191	255	
2167.665	1	1	0	0	0.11873	0.1347	0.10141	0.13411	0.18065	0.058995	0.10247	0.16391	0.28922	0.23303	0.059835	0.24316	0.044307	0.2133	0.37374	0.0071267	-2.2812	-2.6875	-2.6063	-2.6188	-2.6521	-2.3604	-2.6562	-2.9625	-2.5354	-2.925	-2.5375	-2.7125	-2.7833	-2.55	-2.725	-2.7521	198.108	392.377	419.309	83.474	301.374	440.640	333.096	427.002	306.786	364.223	152.612	365.233	398.874	399.529	150.668	198.596	0.00060782	0.00038622	0.00020812	723.76	1.0059e-05	8.6306e-06	496.8	235.78	9.1477e-06	6.5761e-06	174.28	61.705	80.934	30.456	7.6749e-06	27.23	0.0031865	0.0044291	0.0012413	725.64	4.3671e-05	4.8923e-05	505.65	238.37	4.4819e-05	4.9277e-05	184.09	63.825	83.682	31.175	4.6231e-05	28.535	323.047	251.509	113.802	96.348	220.822	267.987	95.031	101.083	290.651	227.254	98.403	102.510	105.394	108.341	193.267	104.613	-8191	255	
2167.761	1	1	0	0	0.13902	0.11938	0.14373	0.12013	0.14959	0.23867	0.32658	0.24535	0.20344	0.053955	0.10336	0.11736	0.27154	0.15613	0.21899	0.19798	-1.9375	-3.0042	-2.5875	-2.7771	-2.7438	-2.5771	-2.8083	-2.9188	-2.525	-2.9062	-2.6146	-2.5958	-3.0917	-2.6312	-2.7208	-2.7604	180.858	107.234	441.397	294.588	160.042	303.338	159.252	431.392	358.592	142.512	279.145	385.271	108.397	346.105	360.406	367.313	0.00076855	0.00035294	3.7838e-05	724.84	9.0149e-06	2.727e-06	505.03	237.47	7.5541e-06	6.1212e-06	177.49	62.074	81.349	30.462	4.7476e-06	27.774	0.0031954	0.0044718	0.0012561	728.82	4.4497e-05	4.9197e-05	509.74	239.87	4.5512e-05	4.8972e-05	185.54	64.506	84.045	31.306	4.6066e-05	28.967	330.138	211.614	239.472	96.376	227.592	328.787	94.866	100.832	202.453	245.796	98.358	103.028	104.998	108.330	137.356	104.695	-8191	255	
#DATA ENDS
