BOXY.EXE: ISS Imagent and Oximeter Data Acquisition Program Version 0.80
Ascii Record File

#ACQ INFORMATION
2  Detector Channels 
16  External MUX Channels 
1  Auxiliary Channels 
5000  Waveform (CCF) Frequency (Hz)
1  Waveforms Skipped 
30  Waveforms Averaged 
1  Cycles Averaged 
16  Acquisitions per Waveform 
10.0806  Updata Rate (Hz) 

#FILE INFORMATION
TRUE -- External MUX Channel results are PARSED.
FALSE -- AC DC and Phase are NOT grouped.
TRUE -- Companion Program Settings File CREATED.
FALSE -- AC data not excluded
FALSE -- DC data not excluded
FALSE -- Phase data not excluded
FALSE -- Auxillary Chn. data not excluded
Tab delimiters

#CALIBRATION STATE
TRUE -- Waveform Calibration Values APPLIED.


#AUX CALIBRATION VALUES
Val Type	aux-1	

Term	1.0000e+00	
Factor	0.0000e+00	


#WF CALIBRATION VALUES
A = Detector Channel
Val Type	A-AC1	A-AC2	A-AC3	A-AC4	A-AC5	A-AC6	A-AC7	A-AC8	A-AC9	A-AC10	A-AC11	A-AC12	A-AC13	A-AC14	A-AC15	A-AC16	A-DC1	A-DC2	A-DC3	A-DC4	A-DC5	A-DC6	A-DC7	A-DC8	A-DC9	A-DC10	A-DC11	A-DC12	A-DC13	A-DC14	A-DC15	A-DC16	A-Ph1	A-Ph2	A-Ph3	A-Ph4	A-Ph5	A-Ph6	A-Ph7	A-Ph8	A-Ph9	A-Ph10	A-Ph11	A-Ph12	A-Ph13	A-Ph14	A-Ph15	A-Ph16	

Term	0.00000e+00	0.00000e+00	0.00000e+00	0.00000e+00	0.00000e+00	0.00000e+00	0.00000e+00	0.00000e+00	0.00000e+00	0.00000e+00	0.00000e+00	0.00000e+00	0.00000e+00	0.00000e+00	0.00000e+00	0.00000e+00	0.00000e+00	0.00000e+00	0.00000e+00	0.00000e+00	0.00000e+00	0.00000e+00	0.00000e+00	0.00000e+00	0.00000e+00	0.00000e+00	0.00000e+00	0.00000e+00	0.00000e+00	0.00000e+00	0.00000e+00	0.00000e+00	0.00000e+00	0.00000e+00	0.00000e+00	0.00000e+00	0.00000e+00	0.00000e+00	0.00000e+00	0.00000e+00	0.00000e+00	0.00000e+00	0.00000e+00	0.00000e+00	0.00000e+00	0.00000e+00	0.00000e+00	0.00000e+00	
Factor	1.00000e+00	1.00000e+00	1.00000e+00	1.00000e+00	1.00000e+00	1.00000e+00	1.00000e+00	1.00000e+00	1.00000e+00	1.00000e+00	1.00000e+00	1.00000e+00	1.00000e+00	1.00000e+00	1.00000e+00	1.00000e+00	1.00000e+00	1.00000e+00	1.00000e+00	1.00000e+00	1.00000e+00	1.00000e+00	1.00000e+00	1.00000e+00	1.00000e+00	1.00000e+00	1.00000e+00	1.00000e+00	1.00000e+00	1.00000e+00	1.00000e+00	1.00000e+00	X	X	X	X	X	X	X	X	X	X	X	X	X	X	X	X	

B = Detector Channel
Val Type	B-AC1	B-AC2	B-AC3	B-AC4	B-AC5	B-AC6	B-AC7	B-AC8	B-AC9	B-AC10	B-AC11	B-AC12	B-AC13	B-AC14	B-AC15	B-AC16	B-DC1	B-DC2	B-DC3	B-DC4	B-DC5	B-DC6	B-DC7	B-DC8	B-DC9	B-DC10	B-DC11	B-DC12	B-DC13	B-DC14	B-DC15	B-DC16	B-Ph1	B-Ph2	B-Ph3	B-Ph4	B-Ph5	B-Ph6	B-Ph7	B-Ph8	B-Ph9	B-Ph10	B-Ph11	B-Ph12	B-Ph13	B-Ph14	B-Ph15	B-Ph16	

Term	0.00000e+00	0.00000e+00	0.00000e+00	0.00000e+00	0.00000e+00	0.00000e+00	0.00000e+00	0.00000e+00	0.00000e+00	0.00000e+00	0.00000e+00	0.00000e+00	0.00000e+00	0.00000e+00	0.00000e+00	0.00000e+00	0.00000e+00	0.00000e+00	0.00000e+00	0.00000e+00	0.00000e+00	0.00000e+00	0.00000e+00	0.00000e+00	0.00000e+00	0.00000e+00	0.00000e+00	0.00000e+00	0.00000e+00	0.00000e+00	0.00000e+00	0.00000e+00	-1.12736e+02	-1.32660e+02	-1.57672e+02	-1.83228e+02	-7.36844e+01	-7.41403e+01	-1.57769e+02	-1.62015e+02	-7.39298e+01	-8.15064e+01	-1.72450e+02	-1.71347e+02	-1.84938e+02	-1.78511e+02	-9.10839e+01	-1.50871e+02	
Factor	1.78968e-05	1.04503e-04	4.02729e-05	1.54566e-01	1.05787e-06	1.14884e-06	1.75725e-01	5.77799e-02	9.78682e-07	1.20120e-06	1.01565e-01	3.04267e-02	6.38759e-02	9.98531e-03	1.13885e-06	1.44782e-02	7.43370e-07	7.63276e-07	2.11636e-07	7.61262e-02	8.34935e-09	8.34908e-09	8.12104e-02	2.82388e-02	8.35724e-09	8.35355e-09	4.68643e-02	1.42655e-02	2.82392e-02	4.79310e-03	8.33279e-09	6.65656e-03	X	X	X	X	X	X	X	X	X	X	X	X	X	X	X	X	



#DISTANCE SETTINGS
A = Detector Channel
A-1	A-2	A-3	A-4	A-5	A-6	A-7	A-8	A-9	A-10	A-11	A-12	A-13	A-14	A-15	A-16	

2.5000e+00	3.0000e+00	2.5000e+00	3.0000e+00	2.0000e+00	3.0000e+00	1.5000e+00	3.0000e+00	3.0000e+00	3.0000e+00	3.0000e+00	3.0000e+00	3.0000e+00	3.0000e+00	1.5000e+00	3.0000e+00	

B = Detector Channel
B-1	B-2	B-3	B-4	B-5	B-6	B-7	B-8	B-9	B-10	B-11	B-12	B-13	B-14	B-15	B-16	

1.0000e+01	1.0000e+01	1.0000e+01	1.4400e+00	1.0000e+01	1.0000e+01	1.5100e+00	1.9400e+00	1.0000e+01	1.0000e+01	1.9900e+00	2.4900e+00	2.4100e+00	2.9000e+00	1.0000e+01	2.9800e+00	




#DATA BEGINS
time	group	step	mark	flag	A-AC1	A-AC2	A-AC3	A-AC4	A-AC5	A-AC6	A-AC7	A-AC8	A-AC9	A-AC10	A-AC11	A-AC12	A-AC13	A-AC14	A-AC15	A-AC16	A-DC1	A-DC2	A-DC3	A-DC4	A-DC5	A-DC6	A-DC7	A-DC8	A-DC9	A-DC10	A-DC11	A-DC12	A-DC13	A-DC14	A-DC15	A-DC16	A-Ph1	A-Ph2	A-Ph3	A-Ph4	A-Ph5	A-Ph6	A-Ph7	A-Ph8	A-Ph9	A-Ph10	A-Ph11	A-Ph12	A-Ph13	A-Ph14	A-Ph15	A-Ph16	B-AC1	B-AC2	B-AC3	B-AC4	B-AC5	B-AC6	B-AC7	B-AC8	B-AC9	B-AC10	B-AC11	B-AC12	B-AC13	B-AC14	B-AC15	B-AC16	B-DC1	B-DC2	B-DC3	B-DC4	B-DC5	B-DC6	B-DC7	B-DC8	B-DC9	B-DC10	B-DC11	B-DC12	B-DC13	B-DC14	B-DC15	B-DC16	B-Ph1	B-Ph2	B-Ph3	B-Ph4	B-Ph5	B-Ph6	B-Ph7	B-Ph8	B-Ph9	B-Ph10	B-Ph11	B-Ph12	B-Ph13	B-Ph14	B-Ph15	B-Ph16	aux-1	digaux	

8237.955	1	1	0	768	0.22687	0.22868	0.27415	0.19718	0.17811	0.076986	0.1882	0.27502	0.13823	0.074484	0.14335	0.30862	0.21445	0.18773	0.16233	0.1581	-1.2542	-2.425	-2.6	-1.8521	-2.5583	-2.2792	-2.05	-2.7896	-1.7583	-2.2646	-2.7875	-1.9021	-2.4083	-2.375	-2.0042	-2.7333	393.722	322.153	366.556	89.447	296.242	298.286	309.819	308.583	283.087	155.105	408.157	415.976	296.230	426.451	292.335	316.155	0.00042949	0.00053665	0.00011856	1357.7	3.1466e-06	5.9961e-06	1351.5	365.73	3.7159e-06	3.26e-06	414.93	138.79	120.73	41.394	5.0906e-06	51.383	0.00055455	0.00054465	0.00014587	1371	6.1816e-06	5.9969e-06	1368.5	371.73	6.2011e-06	5.8981e-06	423.79	141.64	124.6	42.71	5.5227e-06	52.618	168.830	294.369	203.822	90.397	237.125	408.269	90.407	95.497	242.937	129.839	94.644	99.344	99.816	103.862	201.173	103.255	-8191	255	
8238.051	1	1	0	0	0.11022	0.15322	0.10822	0.082783	0.15704	0.088461	0.28341	0.23411	0.093884	0.06267	0.2316	0.39432	0.14498	0.13485	0.079824	0.37515	-1.6521	-2.0979	-2.5938	-1.8229	-2.5229	-2.4021	-1.8563	-2.75	-2.1437	-2.0021	-2.8208	-1.9646	-2.4042	-2.5792	-1.7604	-2.525	216.892	148.141	190.504	421.372	193.755	356.787	312.455	398.914	109.603	301.810	431.486	398.743	213.490	319.152	408.302	335.276	0.00038989	0.00067595	0.00019112	1362.6	6.8943e-06	7.3667e-06	1363.4	367.63	5.4049e-06	5.9688e-06	418.08	139.99	121.13	41.736	1.1974e-05	51.537	0.00057098	0.00053301	0.00014228	1374	6.1712e-06	5.917e-06	1369.6	372.4	6.2778e-06	5.7994e-06	423.27	142.53	124.49	42.748	5.3786e-06	52.985	189.529	432.369	247.764	90.476	243.698	243.895	90.421	95.201	183.691	409.001	94.407	98.744	100.270	104.133	182.408	103.232	-8191	255	
8238.147	1	1	0	0	0.27843	0.20527	0.28921	0.24272	0.11581	0.26832	0.15577	0.28214	0.047824	0.1337	0.078232	0.14853	0.086131	0.1466	0.12038	0.18996	-1.7667	-1.85	-2.7146	-1.8458	-2.2042	-2.4792	-1.9396	-2.7771	-2.3604	-1.8771	-2.7854	-2.1083	-2.2458	-2.6646	-1.7625	-2.7562	116.458	185.363	204.314	386.165	372.711	380.816	356.114	257.474	155.473	279.146	152.728	419.981	154.780	340.540	376.587	327.122	0.00042507	0.00015115	6.3092e-05	1362.2	5.9617e-06	2.3768e-06	1353.4	367.41	1.8649e-06	3.9608e-06	418.53	139.43	120.47	41.514	4.5267e-06	51.649	0.00056675	0.00052725	0.00013959	1378.9	6.1011e-06	5.8314e-06	1368.2	373.67	6.0801e-06	5.6766e-06	422.35	142.75	123.79	42.609	5.4005e-06	53.027	183.822	219.687	153.450	90.532	172.918	222.741	90.576	95.276	140.868	328.326	94.676	99.378	99.949	103.859	202.942	103.462	-8191	255	
8238.243	1	1	0	0	0.34435	0.10473	0.051948	0.10093	0.017581	0.14674	0.48139	0.15959	0.27575	0.22492	0.12805	0.20264	0.22198	0.30153	0.23057	0.16276	-1.6688	-1.7354	-2.5812	-2.2729	-2.2167	-2.6375	-1.9062	-2.55	-2.3	-1.6417	-2.8104	-2.1896	-2.2417	-2.7313	-1.9062	-2.5917	86.179	386.413	356.619	410.246	394.471	288.883	390.036	366.711	161.624	212.080	233.966	435.705	109.718	388.309	259.485	104.324	0.00048409	0.00052311	0.00033254	1358.6	3.0021e-06	8.7629e-06	1350.5	365.47	4.6412e-06	6.7314e-06	418.51	139.29	120.03	41.339	6.7589e-06	51.546	0.00054664	0.00050592	0.0001397	1376.8	5.9022e-06	5.6837e-06	1370.2	374.21	5.9413e-06	5.4525e-06	424.41	143.07	123.47	42.488	5.7085e-06	53.108	186.975	201.825	139.884	90.444	390.509	277.552	90.464	95.505	240.548	242.387	94.898	99.491	100.143	104.073	239.644	103.569	-8191	255	
8238.339	1	1	0	0	0.36521	0.19949	0.18813	0.3402	0.27893	0.28909	0.17795	0.075458	0.24907	0.11403	0.037435	0.043165	0.14186	0.27138	0.15247	0.15385	-1.8979	-1.7521	-2.5708	-2.3583	-2.0917	-2.6937	-1.8833	-2.5479	-2.4479	-1.6854	-2.7083	-2.2875	-2.1354	-2.8396	-1.9146	-2.5687	114.409	137.328	139.594	386.783	281.499	103.334	79.983	116.693	94.707	257.297	193.692	287.738	281.682	374.450	119.288	124.720	0.00043945	0.00022075	0.0003932	1371.6	1.3644e-06	3.7265e-06	1360.4	368.62	3.185e-06	6.2562e-06	417.58	138.82	121.58	41.773	1.3031e-05	51.975	0.00053881	0.00049364	0.00014852	1381.3	5.781e-06	5.5051e-06	1374.1	374.25	5.8477e-06	5.416e-06	424.89	142.79	123.3	42.571	6.0925e-06	53.115	181.313	181.421	134.267	90.346	152.732	216.859	90.189	95.277	239.061	213.374	94.800	99.376	100.023	103.764	229.700	103.320	-8191	255	
8238.435	1	1	0	0	0.13499	0.12499	0.1605	0.056226	0.19132	0.30143	0.13273	0.20292	0.24427	0.23732	0.095095	0.32556	0.19848	0.14346	0.24384	0.23942	-2.1063	-1.7292	-2.6958	-2.3563	-1.8875	-2.6813	-1.8167	-2.3083	-2.6875	-1.9146	-2.7604	-2.3917	-1.9542	-2.8417	-1.7854	-2.075	91.344	135.322	194.230	372.140	303.059	82.165	198.847	158.513	292.862	196.236	352.590	401.448	90.678	145.003	314.674	391.461	0.00054082	0.00083871	0.00038599	1372	2.2489e-06	6.1192e-06	1368	370.67	5.316e-06	8.8897e-06	422.21	140.62	121.76	41.757	3.9847e-06	51.935	0.00053368	0.00049702	0.00015681	1380.1	5.737e-06	5.5706e-06	1377.9	374.37	5.8249e-06	5.5612e-06	427.91	143.27	122.94	42.617	6.3087e-06	52.986	190.936	229.767	101.305	90.284	211.793	207.426	89.792	94.685	315.735	213.883	94.154	98.696	99.709	103.997	101.752	103.231	-8191	255	
8238.554	1	1	0	0	0.15782	0.19941	0.16774	0.19006	0.078352	0.024893	0.27809	0.25038	0.061914	0.18211	0.32873	0.2563	0.3529	0.26724	0.12446	0.28014	-2.1021	-1.7354	-2.5146	-2.4792	-1.8604	-2.7979	-2.0646	-2.2438	-2.7062	-1.7208	-2.5896	-2.3104	-1.9875	-2.5687	-2.0146	-2.1562	104.115	243.241	406.084	104.252	368.573	401.323	409.502	396.207	379.887	396.502	79.977	386.145	411.541	383.148	282.382	414.579	0.00046768	0.0001923	8.4081e-05	1375.5	6.6277e-06	7.8427e-06	1372.6	370.42	4.0984e-06	4.8119e-06	422.48	140.53	121.19	42.081	7.2532e-06	52.025	0.00052065	0.00051242	0.00015914	1379.5	5.5544e-06	5.7493e-06	1380.5	373.39	5.6182e-06	5.7735e-06	427.43	142.7	122.36	42.83	6.2226e-06	52.873	179.953	131.060	212.599	89.823	310.935	200.688	89.589	94.558	260.893	180.188	94.059	98.561	99.639	103.325	228.878	102.743	-8191	255	
8238.650	1	1	0	0	0.16843	0.048903	0.05511	0.23046	0.13974	0.13843	0.26937	0.18876	0.10861	0.13091	0.3199	0.27606	0.063647	0.026225	0.086928	0.21559	-2.2896	-1.7896	-2.4042	-2.6188	-1.7646	-2.5312	-2.3063	-2.0958	-2.6958	-1.8563	-2.4771	-2.5042	-1.8687	-2.875	-2.2104	-1.8729	354.314	182.534	314.119	85.565	327.223	108.528	401.197	355.440	299.428	431.089	108.083	364.159	91.223	145.238	220.217	399.913	0.00042419	0.00097904	0.00019572	1376.7	5.5164e-06	1.2255e-05	1366.3	369.49	6.7857e-06	1.1336e-05	422.11	140.41	122.02	42.227	2.2543e-06	52.202	0.00050999	0.00054562	0.00015703	1380.1	5.4651e-06	6.0712e-06	1379	373.07	5.578e-06	6.1464e-06	427.43	142.63	122.38	43.007	6.1537e-06	52.766	183.516	113.772	358.343	89.889	287.366	176.495	89.676	94.657	159.058	245.867	93.965	98.402	99.312	103.762	271.408	102.803	-8191	255	
8238.746	1	1	0	0	0.12446	0.14439	0.20106	0.42376	0.26949	0.11972	0.35933	0.29623	0.36962	0.19559	0.1723	0.10447	0.10675	0.15565	0.051345	0.32778	-2.4417	-2.0042	-2.1625	-2.8104	-1.8438	-2.5979	-2.4062	-1.9333	-2.5229	-1.9688	-2.1312	-2.675	-1.6792	-2.5938	-2.1917	-2.0833	308.084	337.289	358.097	366.767	358.902	308.684	355.317	409.508	364.406	395.767	433.659	399.803	422.545	89.275	156.799	360.920	0.00041402	0.00081484	0.00015683	1370.1	9.5893e-06	7.8352e-06	1373.5	371.21	6.1181e-06	4.8042e-06	421.17	141.03	122.5	42.06	1.8194e-06	51.888	0.00050764	0.0005694	0.00015269	1376.6	5.5189e-06	6.2467e-06	1378.8	372.57	5.6152e-06	6.2536e-06	425.66	142.14	122.66	42.988	5.9592e-06	52.56	178.062	158.057	231.016	89.687	199.359	128.292	89.614	94.496	187.063	271.149	93.757	98.267	98.503	102.968	264.467	102.349	-8191	255	
8238.843	1	1	0	0	0.066299	0.36843	0.16683	0.42341	0.10563	0.11988	0.27655	0.50573	0.17918	0.036904	0.17135	0.12004	0.05462	0.10014	0.33686	0.23419	-2.2604	-1.8687	-2.1667	-2.7854	-1.7563	-2.4979	-2.575	-1.925	-2.7208	-2.1375	-1.9583	-2.9667	-1.8062	-2.4375	-2.4333	-1.8583	192.510	378.120	373.472	388.055	380.944	305.585	397.273	387.952	427.388	273.195	332.632	293.934	245.688	293.545	85.201	285.319	0.00049228	0.00078884	9.9961e-05	1374.5	2.3858e-06	7.7034e-06	1365.8	368.62	9.1057e-06	4.4636e-06	422.28	140.79	121.01	41.969	3.1142e-06	51.834	0.00052332	0.00057011	0.00014646	1374.9	5.7751e-06	6.1538e-06	1374	372.15	5.8739e-06	6.2131e-06	425.15	141.81	123.47	42.905	5.8426e-06	52.455	176.270	140.575	191.197	89.208	273.785	291.390	89.084	94.111	210.387	221.927	93.403	97.881	98.821	103.201	204.239	102.441	-8191	255	
8238.939	1	1	0	0	0.093772	0.11256	0.15087	0.23613	0.11962	0.16684	0.12865	0.40887	0.21769	0.28137	0.1961	0.25592	0.13817	0.24517	0.19615	0.26983	-2.2292	-2.1833	-1.8292	-2.6521	-1.6625	-2.2479	-2.6833	-1.9937	-2.7708	-2.0438	-1.9417	-2.6792	-1.8333	-2.2354	-2.7354	-1.5979	162.883	257.627	106.176	144.714	266.298	97.316	345.014	433.271	140.611	85.414	76.550	387.362	273.815	332.389	247.754	305.313	0.00046578	0.00052873	0.00017166	1370	9.3911e-06	3.5965e-06	1372.9	370.53	7.859e-06	1.2943e-06	423.77	140.7	122.15	42.237	9.1806e-06	51.722	0.00054576	0.00055943	0.00014515	1373.4	6.1075e-06	6.0353e-06	1375.1	371.91	6.1604e-06	6.0819e-06	424.4	141.96	125.01	42.952	5.7473e-06	52.56	185.736	385.012	145.944	89.260	196.046	293.228	89.237	93.676	217.553	247.416	93.415	98.356	98.750	102.863	197.623	102.185	-8191	255	
8239.035	1	1	0	0	0.16692	0.097831	0.11118	0.3937	0.0081649	0.28979	0.43073	0.2854	0.15519	0.12904	0.33319	0.31703	0.036529	0.075389	0.19389	0.46454	-2.1354	-2.3958	-1.7687	-2.8021	-1.8417	-2.1917	-2.7833	-2.0417	-2.5354	-2.4042	-2.0292	-2.9208	-2.0625	-2.1562	-2.6667	-1.7062	238.047	186.923	139.086	426.060	406.596	333.128	340.869	352.920	374.002	338.974	367.877	426.684	126.790	428.767	192.859	371.417	0.00046349	0.00069759	0.00010441	1373.4	3.8791e-06	5.1809e-06	1362.3	370.46	2.047e-06	5.3387e-06	422.52	140.71	121.96	42.097	4.2495e-06	52.143	0.00056764	0.0005514	0.00014153	1375.5	6.2893e-06	5.8778e-06	1371.3	372.37	6.1744e-06	5.9623e-06	423.19	142.34	125	42.748	5.5295e-06	52.787	175.041	241.266	385.689	89.348	226.119	339.332	89.585	94.437	157.389	89.992	93.936	98.081	99.414	103.277	266.423	102.133	-8191	255	
8239.156	1	1	0	0	0.21556	0.27812	0.23494	0.13783	0.16851	0.24694	0.10897	0.3254	0.049237	0.20126	0.21355	0.045557	0.16081	0.17656	0.09208	0.097051	-2.0104	-2.3	-1.7417	-2.8458	-2.0167	-1.9708	-2.9521	-1.9917	-2.35	-2.5875	-1.8854	-2.5271	-2.2042	-2.0021	-2.6208	-1.9521	287.027	259.211	370.519	429.933	119.516	163.236	307.792	381.597	398.394	131.111	336.145	83.400	94.420	399.672	290.318	358.106	0.00041036	0.00035267	0.00013576	1373.8	2.7739e-06	2.0312e-06	1366.9	370.27	3.0472e-06	5.8098e-06	422.42	140.53	123.04	42.02	7.4415e-06	51.974	0.00056207	0.00053819	0.00013712	1377.8	6.2121e-06	5.7363e-06	1370.7	373.34	6.0859e-06	5.8323e-06	422.35	142.79	124.83	42.655	5.4388e-06	52.989	189.841	163.361	386.265	89.800	243.804	81.422	89.459	94.232	286.849	249.654	93.665	98.122	99.161	103.230	208.183	102.372	-8191	255	
8239.250	1	1	0	0	0.12428	0.20649	0.045941	0.16975	0.16266	0.24266	0.15412	0.25145	0.15463	0.1798	0.1788	0.22458	0.048559	0.33812	0.11823	0.095282	-1.7979	-2.5438	-1.6167	-2.7833	-2.2167	-2.0396	-2.725	-1.9625	-2.3083	-2.6667	-1.8646	-2.425	-2.3187	-2.0146	-2.6417	-2.1875	144.325	238.399	108.176	414.214	318.544	163.929	269.145	260.422	387.195	273.412	411.505	364.665	331.564	386.135	378.648	292.957	0.0004292	0.00065194	0.00035247	1376.3	5.5426e-06	7.4608e-07	1366.6	370.31	2.4935e-06	3.5313e-07	422.03	140.42	121.07	41.825	1.2826e-05	51.948	0.00054531	0.00052516	0.00013665	1382.7	6.0641e-06	5.5732e-06	1370.5	374.34	5.9226e-06	5.6756e-06	423.34	142.92	123.87	42.566	5.5947e-06	53.19	178.009	142.051	96.819	89.704	102.455	412.006	89.853	94.273	327.947	405.773	93.760	98.608	98.983	103.204	194.620	102.377	-8191	255	
8239.346	1	1	0	0	0.14361	0.053306	0.23264	0.23958	0.33009	0.39856	0.27033	0.19715	0.39245	0.16673	0.26667	0.11202	0.055657	0.17239	0.077006	0.18817	-1.6417	-2.6375	-1.8167	-2.6708	-2.1833	-2.0521	-2.9167	-2.1208	-2.1542	-2.6292	-1.7708	-2.5208	-2.2354	-1.8875	-2.8583	-2.0333	202.321	383.026	175.705	400.161	237.631	408.251	394.534	112.957	366.542	345.710	294.676	124.996	229.164	81.148	391.426	351.751	0.00047603	0.00077978	0.00044481	1371.4	2.564e-06	4.0708e-06	1363	369.35	3.2119e-06	3.1337e-06	422.78	140.28	121.27	41.841	9.1618e-06	51.866	0.0005306	0.00051041	0.00014064	1380.1	5.8534e-06	5.3839e-06	1372.2	374.07	5.7161e-06	5.4503e-06	423.74	142.68	123.34	42.38	5.7858e-06	53.084	175.602	407.356	93.372	89.674	280.813	295.343	89.379	94.033	339.265	242.051	93.887	98.177	99.049	102.841	148.597	102.280	-8191	255	
8239.442	1	1	0	0	0.11871	0.24763	0.1247	0.35494	0.033589	0.21127	0.23888	0.16736	0.31489	0.087627	0.18986	0.39811	0.12456	0.21587	0.11444	0.19727	-1.6229	-2.6708	-1.8042	-2.3333	-2.3563	-1.7083	-2.725	-2.1937	-1.8146	-2.5979	-1.9667	-2.375	-2.6854	-1.9771	-2.6813	-2.2479	307.725	262.483	203.724	383.396	89.024	360.665	350.294	174.352	256.598	345.350	419.240	355.091	99.104	408.093	341.051	324.229	0.00039492	0.00016554	0.00021418	1376.2	1.219e-05	5.8666e-06	1369.4	368.82	7.3061e-06	6.37e-06	421.64	139.99	121.24	41.973	4.5707e-06	51.844	0.00051794	0.00049368	0.00014861	1378.7	5.7487e-06	5.2833e-06	1375	373.2	5.6683e-06	5.4188e-06	426.69	142.64	123.1	42.444	6.0351e-06	52.991	191.459	169.191	132.524	89.528	191.182	253.610	89.627	94.187	272.889	279.779	93.762	98.227	98.818	103.383	158.702	102.550	-8191	255	
8239.516	1	1	0	0	0.16355	0.32184	0.29401	0.27427	0.15716	0.22436	0.063712	0.074948	0.074185	0.16583	0.20893	0.29315	0.16083	0.36212	0.21314	0.16832	-1.5146	-2.675	-1.7062	-2.3604	-2.5854	-1.7479	-2.875	-2.6063	-2.0167	-2.8083	-2.0896	-2.2292	-2.7083	-1.9208	-2.4688	-2.4271	194.771	130.871	102.972	79.707	199.515	249.018	274.238	115.739	268.092	363.989	117.094	396.043	338.199	382.416	239.115	421.413	0.00038539	0.0001068	0.0001979	1371.4	3.8828e-06	3.0066e-06	1368.5	371.63	6.3903e-06	8.9559e-06	421.56	140.53	121.82	42.075	5.0216e-06	52.288	0.00050825	0.00050335	0.00015582	1377.5	5.6637e-06	5.4956e-06	1379.5	373.92	5.5666e-06	5.6687e-06	427.21	142.47	122.77	42.662	6.2608e-06	52.98	170.115	409.662	82.241	89.673	372.864	196.373	89.575	94.249	207.051	201.962	93.610	98.240	99.385	103.351	148.087	102.699	-8191	255	
8239.635	1	1	0	0	0.21553	0.19514	0.21179	0.35963	0.3093	0.12268	0.19788	0.21973	0.21858	0.059202	0.28295	0.20278	0.22622	0.19929	0.12594	0.12429	-1.3062	-2.5958	-2.0333	-2.3	-2.6104	-1.8188	-2.5563	-2.4625	-1.8125	-2.6437	-2.2042	-2.1437	-2.75	-2.0312	-2.3729	-2.4229	132.144	239.255	215.072	401.933	119.711	192.725	433.477	315.250	336.315	426.710	377.215	421.881	126.124	304.735	298.584	324.491	0.00044343	0.00019801	2.9098e-05	1376.1	5.5951e-06	7.8319e-06	1369.7	371.18	6.4477e-06	7.7412e-06	420.91	140.4	121.48	41.986	8.6089e-06	51.917	0.00050399	0.0005305	0.00015867	1378.2	5.5839e-06	5.863e-06	1380.1	373.56	5.503e-06	6.039e-06	427.76	142.32	122.6	42.837	6.1338e-06	52.77	201.242	170.641	120.648	89.718	258.252	200.896	89.614	94.216	205.732	184.520	93.427	98.134	99.194	103.006	317.466	102.335	-8191	255	
8239.731	1	1	0	0	0.15156	0.02265	0.077752	0.29208	0.16187	0.070263	0.063822	0.22712	0.029918	0.32452	0.2541	0.081025	0.088045	0.0811	0.091163	0.18546	-1.3896	-2.7812	-2.125	-2.1021	-2.6542	-1.9146	-2.3521	-2.8563	-1.9521	-2.7729	-2.3812	-1.8396	-2.5875	-1.9375	-2.1208	-2.6667	197.866	242.070	157.973	350.827	116.050	398.736	355.592	94.236	372.663	323.712	364.124	351.344	436.185	77.466	98.976	158.675	0.0003683	0.00029594	0.00014967	1372.8	4.9957e-06	6.7483e-06	1368.2	370.29	7.6588e-06	4.9621e-06	421.25	140.83	122.39	41.811	1.7573e-06	52.131	0.00049472	0.00055719	0.00015525	1376	5.4726e-06	6.0952e-06	1378	372.62	5.3956e-06	6.1203e-06	426.18	142.03	122.61	42.92	5.8786e-06	52.698	182.005	103.921	246.196	89.704	188.701	219.829	90.005	94.482	220.553	208.071	93.956	98.520	99.629	103.244	116.027	102.829	-8191	255	
8239.827	1	1	0	0	0.1344	0.23477	0.028216	0.06937	0.15098	0.13182	0.17679	0.28483	0.076793	0.33669	0.13961	0.40906	0.048067	0.18746	0.19891	0.11739	-1.2104	-2.3708	-2.3312	-2.1375	-2.8333	-2.0146	-2.3	-2.8625	-1.7229	-2.45	-2.375	-1.9125	-2.5292	-1.9229	-1.8917	-2.9042	250.598	280.246	197.258	175.642	133.079	288.514	336.567	352.635	434.544	258.123	130.049	397.096	237.803	95.864	314.560	326.593	0.00046889	0.00021185	6.4016e-05	1372.7	7.1583e-06	3.1205e-06	1369.3	370.25	8.9225e-06	3.7091e-06	420.51	139.86	121.88	41.746	4.4125e-06	51.865	0.00050498	0.00056635	0.00015118	1372.2	5.6397e-06	6.2846e-06	1374.9	372.49	5.7416e-06	6.2326e-06	425.23	141.66	123.29	42.935	5.7863e-06	52.553	190.685	194.916	149.705	90.226	235.127	157.240	89.857	94.732	181.281	228.200	94.068	98.671	99.348	103.257	204.991	102.776	-8191	255	
8239.947	1	1	0	0	0.38816	0.16576	0.074998	0.26539	0.19899	0.16808	0.23471	0.25984	0.015413	0.061296	0.20651	0.22397	0.22751	0.19859	0.32004	0.17432	-1.4396	-2.4313	-2.3688	-1.9896	-2.6063	-1.9292	-2.2562	-2.7146	-1.8979	-2.5271	-2.5563	-1.8188	-2.6771	-2.2833	-1.8667	-2.8312	174.027	242.577	220.538	431.767	354.465	200.663	331.565	426.443	424.928	129.198	359.488	311.122	158.173	103.348	358.421	97.179	0.00050097	0.00048985	0.0002273	1373.4	9.8361e-06	1.2619e-05	1365.1	369.4	7.6622e-06	8.0045e-06	422.08	140.12	121.01	41.834	2.0061e-06	52.116	0.00053335	0.00056673	0.00014927	1373.9	5.956e-06	6.1977e-06	1374.2	371.74	6.0466e-06	6.1216e-06	426.02	141.7	124.37	42.885	5.7605e-06	52.54	180.685	260.833	133.874	89.913	180.796	249.711	89.560	94.580	203.558	302.333	93.558	98.207	99.383	103.257	261.318	102.457	-8191	255	
8240.044	1	1	0	0	0.15107	0.091164	0.18234	0.16925	0.1798	0.23371	0.22578	0.12616	0.22893	0.10867	0.098114	0.17875	0.3032	0.20069	0.16208	0.203	-1.4771	-2.3021	-2.3792	-1.9479	-2.6354	-2.1646	-2.0187	-2.7479	-2.0708	-2.2604	-2.5458	-2.0896	-2.4938	-2.3563	-1.9354	-2.6896	416.004	330.924	186.118	98.298	361.203	232.252	384.608	390.980	339.518	91.286	420.407	373.919	309.991	88.859	204.289	89.234	0.00061182	0.00050402	0.0002692	1369.8	1.0107e-05	7.0388e-06	1368.5	370.2	8.7283e-06	7.207e-06	420.77	139.76	121.77	42.007	3.3864e-06	51.854	0.0005666	0.00055867	0.00014866	1373.9	6.2552e-06	6.1151e-06	1373.6	372.49	6.2815e-06	5.9464e-06	423.99	141.72	124.76	42.826	5.5491e-06	52.761	181.401	232.537	116.065	89.840	171.944	142.265	89.867	94.592	251.742	359.381	93.801	98.435	99.068	103.101	218.936	102.565	-8191	255	
8240.115	1	1	0	0	0.10752	0.22842	0.32702	0.16775	0.15998	0.10862	0.15641	0.287	0.37898	0.29408	0.01228	0.18235	0.18996	0.17342	0.052828	0.10489	-1.4708	-2.0312	-2.6937	-2.0854	-2.6104	-2.3146	-1.9979	-2.6896	-1.9438	-1.9875	-2.85	-1.8563	-2.3104	-2.5771	-1.675	-2.7083	272.308	393.594	119.307	79.299	271.289	107.082	403.933	414.397	391.327	101.850	93.284	80.756	318.555	397.337	298.916	400.814	0.00049497	0.00021673	6.4103e-05	1370.7	2.6885e-06	1.4482e-06	1366.8	370.95	6.0193e-06	6.4363e-06	421.59	139.85	121.61	41.96	3.0655e-06	51.791	0.00058189	0.00054214	0.00014446	1376.4	6.3403e-06	6.0046e-06	1371.4	373.57	6.2957e-06	5.7987e-06	423.93	142.34	124.72	42.786	5.3694e-06	52.936	183.787	210.490	92.788	89.791	222.307	319.096	89.798	94.541	248.016	244.285	93.943	98.543	99.270	103.035	216.327	102.769	-8191	255	
8240.236	1	1	0	0	0.10167	0.097386	0.19537	0.25768	0.21249	0.21842	0.1581	0.35064	0.15642	0.18908	0.34967	0.13548	0.27801	0.36358	0.31486	0.22104	-1.7792	-1.9458	-2.4604	-2.0208	-2.4542	-2.4042	-1.9583	-2.6979	-2.1542	-1.7833	-2.775	-1.9896	-2.0875	-2.5042	-1.7208	-2.4521	332.115	391.923	246.254	410.528	376.766	333.536	430.189	415.539	85.087	256.003	373.821	347.015	410.508	90.964	171.238	425.408	0.00042326	0.00055352	0.00017541	1369.9	5.2296e-06	3.5075e-06	1364.4	368.91	1.0363e-05	4.383e-06	420.07	140.44	122.06	41.803	1.0439e-05	52.076	0.00056222	0.00052616	0.00013878	1377.4	6.1099e-06	5.8316e-06	1369.6	373.97	6.1222e-06	5.6677e-06	422.55	143.02	124.03	42.697	5.445e-06	53.16	189.756	170.831	198.405	89.815	214.061	331.632	89.557	94.588	208.169	266.095	93.843	98.311	99.397	102.937	228.730	102.592	-8191	255	
8240.330	1	1	0	0	0.2804	0.099433	0.257	0.45581	0.13656	0.087305	0.10356	0.042522	0.080192	0.20602	0.20498	0.28215	0.18257	0.030116	0.10638	0.1014	-1.8438	-1.8417	-2.7625	-2.0687	-2.1458	-2.6083	-2.0542	-2.6125	-2.2333	-1.8917	-2.825	-2.1896	-2.0354	-2.7083	-1.775	-2.4896	429.063	390.568	347.748	415.740	435.025	320.804	268.397	293.068	401.334	358.513	345.038	334.578	252.651	431.167	163.912	104.755	0.00046008	0.00035264	8.4659e-05	1368.1	2.0867e-06	6.4341e-06	1363.8	369.9	7.9064e-06	9.3407e-06	422.55	140.26	121.34	41.894	6.4211e-06	51.924	0.00055508	0.00051562	0.00014199	1380.1	5.987e-06	5.7053e-06	1370.6	375.25	6.0284e-06	5.5804e-06	424.28	143.15	123.68	42.601	5.7138e-06	53.237	192.870	388.935	296.416	89.745	163.946	161.667	89.651	94.560	204.106	265.450	93.972	98.569	99.460	103.278	170.185	102.604	-8191	255	
8240.427	1	1	0	0	0.23742	0.3245	0.18589	0.38058	0.13214	0.22227	0.25686	0.26261	0.13875	0.24506	0.19593	0.52569	0.36377	0.20083	0.059546	0.11288	-2.1667	-1.6771	-2.6854	-2.1292	-2.1	-2.6167	-1.9646	-2.4396	-2.3458	-1.5938	-2.6667	-2.1271	-2.1729	-2.8417	-1.7292	-2.4437	130.770	345.582	264.131	396.981	400.015	101.102	342.269	394.948	309.672	277.569	309.715	406.185	116.430	425.234	91.518	368.195	0.00040998	0.00049241	0.00014736	1368.6	6.0064e-06	2.9477e-06	1369.1	370.19	6.4298e-07	3.2916e-06	421.33	139.92	121.35	41.803	8.8163e-06	51.963	0.00054861	0.00050217	0.0001502	1382	5.8834e-06	5.6026e-06	1375.1	374.71	5.9919e-06	5.4942e-06	426.97	143.11	123.57	42.543	6.1431e-06	53.094	181.648	200.104	104.778	89.647	243.782	232.744	89.828	94.584	265.187	303.647	94.280	98.640	99.718	103.239	183.371	102.601	-8191	255	
8240.547	1	1	0	0	0.11225	0.18518	0.12946	0.14681	0.18367	0.13734	0.18592	0.092041	0.19744	0.078123	0.25517	0.07162	0.18717	0.11601	0.092702	0.2331	-2.1375	-1.8125	-2.4854	-2.3917	-1.8542	-2.7313	-1.9208	-2.4333	-2.4625	-1.8042	-2.6875	-2.4333	-1.9875	-2.7125	-2.0167	-2.3333	284.028	415.892	93.523	178.144	300.012	171.384	322.314	284.873	124.361	255.044	412.849	188.418	102.112	398.360	117.957	424.963	0.00047825	0.00061238	0.00015004	1366.5	5.832e-07	5.2831e-06	1368.2	370.47	5.3932e-06	2.2819e-06	420.3	140.22	121.03	41.795	7.8023e-06	51.953	0.00054078	0.00050311	0.00015637	1379	5.7767e-06	5.5442e-06	1377.6	374.05	5.8298e-06	5.5428e-06	427.07	142.8	122.64	42.536	6.3045e-06	52.948	184.915	123.884	85.626	89.771	275.007	210.690	90.017	94.703	251.858	181.093	94.082	98.570	99.607	103.467	268.153	103.050	-8191	255	
8240.643	1	1	0	0	0.21473	0.058521	0.088265	0.10665	0.21961	0.1933	0.093398	0.29135	0.18853	0.20256	0.12421	0.11051	0.10667	0.10461	0.11844	0.12036	-2.2458	-1.6667	-2.5229	-2.4813	-1.7542	-2.9	-2.3396	-2.3208	-2.6333	-1.7958	-2.7104	-2.5729	-1.7667	-2.75	-2.2188	-2.1063	320.721	304.991	374.721	243.908	336.743	422.360	397.156	114.101	405.875	132.986	221.440	408.388	155.763	430.606	340.306	336.393	0.00032999	0.00050174	0.00010528	1365.3	6.2478e-06	9.1954e-06	1355.7	366.7	3.4242e-06	8.8297e-06	418.64	139.96	121.39	41.783	1.6868e-06	51.929	0.0005248	0.00051439	0.00015922	1376.7	5.5724e-06	5.6862e-06	1376.2	372.59	5.5835e-06	5.7033e-06	427.11	142.35	121.92	42.667	6.2159e-06	52.789	186.320	174.630	397.285	89.832	413.686	233.852	89.752	94.534	225.763	203.493	93.891	98.468	99.485	103.599	303.252	102.903	-8191	255	
8240.739	1	1	0	0	0.14029	0.13048	0.10145	0.054824	0.2144	0.16341	0.17922	0.24561	0.062491	0.13817	0.33979	0.077565	0.1734	0.22505	0.022252	0.097439	-2.3104	-1.8854	-2.4896	-2.5812	-1.8875	-2.6271	-2.325	-2.0896	-2.5938	-1.9625	-2.4667	-2.5938	-1.6437	-2.7167	-2.0625	-1.975	107.809	171.018	434.643	416.542	362.174	399.410	371.732	383.972	338.233	365.952	352.059	77.345	151.277	333.239	432.815	430.621	0.00044481	0.00078972	8.947e-05	1373.1	7.3674e-06	4.4052e-06	1364.8	369.31	5.7962e-06	8.4167e-06	422.33	140.46	121.35	42.043	5.4654e-06	52.04	0.00049839	0.00053601	0.00015469	1378.2	5.3424e-06	5.8952e-06	1375.9	372.24	5.4484e-06	6.0059e-06	426.15	142.27	121.65	42.883	6.095e-06	52.698	181.692	157.342	220.228	89.913	205.156	90.725	89.880	94.685	271.856	138.555	94.178	98.645	99.732	103.559	145.810	102.750	-8191	255	
8240.811	1	1	0	0	0.16006	0.14305	0.089393	0.46674	0.2609	0.071026	0.25795	0.16852	0.19057	0.15898	0.26034	0.072645	0.17338	0.42949	0.23334	0.25744	-2.3292	-1.7396	-2.1542	-2.8417	-1.775	-2.7125	-2.4458	-1.9542	-2.7938	-1.9854	-2.1813	-2.6312	-1.6812	-2.6021	-2.2896	-1.925	185.799	138.475	291.746	429.999	165.590	105.322	418.538	428.661	350.361	227.082	421.491	400.091	138.461	408.432	98.287	334.338	0.0004849	0.00077465	0.0002079	1372.7	9.4987e-06	1.118e-06	1366.2	369.3	7.3539e-06	8.1109e-06	422.23	140.52	121.77	41.945	4.728e-06	51.932	0.00050621	0.00056347	0.00015161	1374.8	5.516e-06	6.1593e-06	1375.7	372.23	5.6159e-06	6.327e-06	425.05	142.01	122.82	42.976	6.0282e-06	52.667	194.310	172.743	261.818	90.038	275.326	193.103	90.266	95.327	232.505	216.769	94.319	98.920	99.822	104.022	129.002	103.032	-8191	255	
8240.932	1	1	0	0	0.06283	0.1186	0.38172	0.25989	0.041876	0.1674	0.17298	0.21289	0.066915	0.2748	0.27179	0.35533	0.21674	0.22887	0.15201	0.17688	-2.2667	-1.75	-2.0812	-2.7542	-1.6708	-2.5146	-2.5083	-1.8479	-2.525	-2.0312	-2.0854	-2.7896	-1.8417	-2.3812	-2.5792	-1.85	316.362	428.488	257.822	388.466	395.641	195.003	372.482	405.842	349.044	145.532	81.057	428.454	326.174	348.827	245.839	418.335	0.00047456	0.00050096	9.4239e-05	1377.6	1.0997e-05	8.3648e-06	1365.5	369.55	8.8962e-06	5.1038e-06	419.86	140.7	122.08	41.81	7.0862e-06	51.663	0.00052551	0.00058723	0.00015156	1374.8	5.9099e-06	6.2713e-06	1375.1	372.2	5.8767e-06	6.3294e-06	425.22	141.94	124.22	42.986	5.9224e-06	52.483	183.089	105.914	147.780	90.139	216.673	245.783	89.490	94.159	205.168	271.680	93.833	98.411	98.776	103.258	247.036	102.753	-8191	255	
8241.028	1	1	0	0	0.10746	0.21039	0.16991	0.089476	0.097697	0.13266	0.066513	0.13488	0.33373	0.15826	0.26816	0.16967	0.24503	0.17596	0.073686	0.23377	-2.4417	-2.1167	-1.8771	-2.8187	-1.8563	-2.4479	-2.7042	-1.9958	-2.6458	-2.1	-1.9562	-2.7333	-1.8771	-2.3875	-2.6708	-1.8563	402.696	183.989	409.001	303.079	344.095	273.346	392.690	369.604	125.660	399.134	110.839	433.742	103.275	173.694	435.480	310.252	0.00044127	0.00059658	0.00010841	1371.4	1.1013e-05	5.7493e-06	1368.5	369.97	4.5319e-06	4.7529e-06	420.49	140.56	122.56	41.962	3.9943e-06	51.951	0.00055267	0.00057073	0.00014709	1373.9	6.1271e-06	6.0995e-06	1372.6	371.68	6.1293e-06	6.0978e-06	423.49	141.62	124.45	42.753	5.7508e-06	52.477	180.031	258.527	346.550	90.173	247.826	164.666	89.930	94.697	203.494	92.262	94.303	98.695	99.177	103.770	140.542	102.812	-8191	255	
8241.124	1	1	0	0	0.24899	0.14006	0.12213	0.27931	0.217	0.24537	0.18322	0.39373	0.25822	0.047163	0.13801	0.059551	0.21153	0.35137	0.041819	0.044899	-2.2667	-2.1208	-1.8604	-2.9542	-1.9771	-2.2667	-2.8896	-1.8979	-2.5187	-2.3271	-2.0563	-2.7458	-2.125	-2.0146	-2.6167	-1.8625	345.638	431.873	352.252	411.008	158.961	182.230	300.669	364.728	240.795	427.832	77.955	109.444	277.971	109.149	255.695	184.235	0.00048005	0.00015003	0.00013159	1376	6.611e-06	1.905e-06	1365.9	370.47	3.1486e-06	5.2494e-06	422.75	140.34	121.94	41.894	4.4402e-06	51.773	0.00056678	0.00055418	0.00014352	1375.2	6.3171e-06	5.9593e-06	1372.6	372.9	6.2606e-06	5.9408e-06	423.13	142.06	124.66	42.666	5.5788e-06	52.692	189.084	92.181	426.526	90.049	169.019	276.064	90.279	95.026	108.573	170.707	94.533	98.943	99.161	103.497	266.243	103.088	-8191	255	
8241.220	1	1	0	0	0.12336	0.066656	0.1077	0.18673	0.17103	0.10543	0.32299	0.33361	0.12238	0.18961	0.17989	0.069813	0.084215	0.13239	0.037018	0.31622	-2.1271	-2.2333	-1.6812	-2.8312	-2.1937	-1.9854	-2.9417	-2.0146	-2.3688	-2.4708	-1.7521	-2.8292	-2.1375	-1.9271	-2.9021	-1.7417	253.171	79.276	232.044	420.792	258.397	166.562	407.587	357.635	309.997	186.759	225.735	372.317	162.611	373.030	347.455	288.075	0.00044653	0.00023482	4.4806e-05	1372.2	6.1289e-06	8.493e-06	1369.2	370.05	7.7326e-07	6.7051e-06	422.18	140.68	121.46	42.076	6.2343e-06	51.934	0.00056145	0.00053907	0.00013735	1376.1	6.2001e-06	5.7586e-06	1371.9	373.22	6.0836e-06	5.7603e-06	422.18	142.47	124	42.565	5.366e-06	52.858	191.696	191.799	190.605	89.984	223.691	300.023	89.960	94.782	250.453	158.848	94.035	98.927	99.534	103.444	251.641	102.927	-8191	255	
8241.339	1	1	0	0	0.0088271	0.24804	0.10775	0.20642	0.1705	0.047785	0.24162	0.029027	0.23624	0.16418	0.28615	0.29007	0.13322	0.053654	0.27861	0.20701	-1.9167	-2.6354	-1.6771	-2.7354	-2.0062	-1.7687	-2.8646	-1.9542	-2.1854	-2.6604	-1.8833	-2.5604	-2.2479	-1.9042	-2.6562	-2.1396	197.817	88.823	289.090	357.082	129.442	123.267	85.925	413.384	219.373	220.860	423.849	372.855	90.257	427.176	306.791	105.995	0.00044	0.00070407	0.0001292	1374.2	4.7691e-06	4.5363e-06	1368.2	369.97	1.7803e-06	5.765e-06	421.13	140.73	122.27	42.046	1.015e-05	51.776	0.00053593	0.00052039	0.00013318	1379.5	5.94e-06	5.5083e-06	1368.3	373.55	5.8056e-06	5.5485e-06	421.4	142.57	123.49	42.417	5.4224e-06	52.917	186.352	182.474	208.621	90.195	260.211	370.239	90.233	94.848	191.590	179.531	94.474	98.834	99.238	103.488	198.677	102.648	-8191	255	
8241.412	1	1	0	0	0.20742	0.18627	0.039715	0.036855	0.16783	0.17127	0.042803	0.17256	0.243	0.18202	0.32221	0.063272	0.22617	0.22696	0.24807	0.29586	-1.7812	-2.5792	-1.8146	-2.7771	-2.2333	-1.7583	-3.0417	-2.2146	-2.1854	-2.6937	-2.0438	-2.6104	-2.4167	-1.9167	-2.7021	-2.1708	431.881	157.384	152.667	429.498	407.547	196.368	350.153	359.317	253.624	233.774	100.883	403.230	88.375	109.380	412.234	384.344	0.00039878	0.00051796	0.00018669	1375.7	6.8816e-06	3.6891e-06	1370.4	368.76	2.2839e-06	4.3772e-06	421.23	140.51	122.06	41.96	7.1178e-06	52.195	0.0005199	0.00050403	0.00013823	1380.4	5.8415e-06	5.358e-06	1371	374	5.6956e-06	5.4565e-06	423.21	142.81	123.33	42.429	5.754e-06	53.104	185.694	172.364	149.467	89.887	284.441	148.124	90.063	94.728	246.784	252.778	94.261	98.735	99.563	103.754	228.589	103.046	-8191	255	
8241.509	1	1	0	0	0.04844	0.14197	0.10181	0.4447	0.096864	0.14682	0.10463	0.14371	0.17087	0.1594	0.24863	0.14941	0.21959	0.31078	0.17617	0.10559	-1.5458	-2.5625	-1.8083	-2.5583	-2.6083	-1.8167	-2.9417	-2.2146	-1.7417	-2.7083	-1.8	-2.5417	-2.4104	-1.8375	-2.5167	-2.3146	310.084	296.385	140.593	369.317	105.625	387.994	285.013	340.321	177.619	288.071	370.831	303.239	157.736	411.142	365.500	242.119	0.00036297	0.00061094	0.00025241	1372.8	5.2147e-06	4.9547e-06	1368.5	369.34	4.4665e-06	8.7193e-06	422.37	140.51	121.32	42.07	1.4175e-05	51.783	0.00052113	0.00049737	0.00014945	1379.1	5.8387e-06	5.2967e-06	1376	373.69	5.6799e-06	5.4388e-06	425.74	142.41	123.12	42.355	6.001e-06	52.861	182.178	316.134	132.719	90.331	138.321	138.448	90.067	94.718	209.465	140.327	94.140	98.838	100.188	103.610	214.707	102.775	-8191	255	
8241.628	1	1	0	0	0.11359	0.096099	0.27631	0.039781	0.2761	0.060102	0.28841	0.06107	0.18344	0.099354	0.12794	0.28172	0.059754	0.14087	0.078962	0.096461	-1.6187	-2.6917	-1.8292	-2.4771	-2.4792	-1.7667	-2.8417	-2.4708	-1.7563	-2.6813	-1.9229	-2.3396	-2.6271	-1.7771	-2.3375	-2.3854	417.814	350.377	239.947	430.669	207.899	188.491	338.729	429.457	117.149	111.851	314.156	359.239	102.351	153.891	100.496	375.154	0.00037688	0.00080642	0.0001788	1372.7	5.3771e-06	4.7042e-06	1370.5	370.09	6.6841e-06	7.8696e-06	419.96	140	121.62	42.066	3.434e-06	51.593	0.0005095	0.00050088	0.00015462	1377.1	5.6821e-06	5.4088e-06	1378.9	373.11	5.5033e-06	5.5207e-06	426.44	142.14	122.72	42.559	6.0947e-06	52.706	171.687	204.077	174.079	90.486	183.060	207.941	90.141	95.037	363.244	195.233	94.642	98.994	99.835	103.611	171.623	102.830	-8191	255	
8241.724	1	1	0	0	0.40961	0.25053	0.12614	0.2813	0.14249	0.10086	0.21727	0.20674	0.10394	0.030709	0.18305	0.33275	0.16871	0.24703	0.11697	0.31671	-1.3438	-2.7646	-2.1	-2.2167	-2.6979	-1.7479	-2.5583	-2.4417	-1.9125	-2.7062	-2.1479	-2.0979	-2.6521	-2.1125	-2.3292	-2.4375	227.350	91.390	421.724	388.623	412.212	363.473	398.524	372.106	301.013	280.871	398.209	340.428	84.206	427.478	89.831	336.994	0.00035726	0.00082262	0.00011302	1370.9	4.6008e-06	7.7625e-06	1376.5	370.51	1.4802e-06	5.1928e-06	420.94	140.06	121.35	41.656	4.4497e-06	51.92	0.00049953	0.00051917	0.00015624	1375.7	5.517e-06	5.7095e-06	1379.4	372.71	5.3482e-06	5.8397e-06	426.54	141.96	122.19	42.719	6.2012e-06	52.773	188.628	164.771	218.529	90.517	199.674	233.515	90.171	94.927	318.791	241.500	94.485	99.048	100.187	103.781	142.938	102.845	-8191	255	
8241.820	1	1	0	0	0.27811	0.10676	0.17477	0.2025	0.056694	0.030969	0.14741	0.069554	0.27975	0.08011	0.22591	0.079555	0.12755	0.1585	0.11747	0.3473	-1.2646	-2.5417	-1.9875	-2.1208	-2.6562	-1.8563	-2.5438	-2.7542	-1.8417	-2.7167	-2.2708	-1.9479	-2.6979	-1.9458	-2.225	-2.7771	118.138	406.968	318.978	421.070	251.344	417.508	362.223	104.161	95.657	420.401	340.932	323.337	97.235	114.980	159.281	408.400	0.00050113	0.00083972	6.9514e-05	1368.2	3.7832e-06	4.0961e-06	1361.8	368	1.4654e-06	3.7556e-06	418.39	139.25	120.91	41.559	2.2141e-06	51.532	0.00050604	0.00056875	0.00016199	1377.6	5.7799e-06	6.4214e-06	1380	373.74	5.7968e-06	6.5936e-06	427.97	142.46	123.96	43.184	6.5099e-06	53.082	194.481	200.199	219.792	90.444	148.496	163.427	90.298	95.108	273.128	143.766	94.591	99.532	100.219	103.843	159.776	103.319	-8191	255	
8241.916	1	1	0	0	0.20925	0.10128	0.23117	0.15997	0.13783	0.24542	0.15753	0.17031	0.064367	0.12225	0.20153	0.23639	0.069851	0.23918	0.079764	0.15181	-1.525	-2.7062	-2.2958	-2.1625	-2.5417	-2.0167	-2.4479	-2.8333	-1.8	-2.4542	-2.5042	-1.8104	-2.5604	-2.1042	-1.8979	-2.5375	209.510	291.519	337.227	313.321	89.455	194.753	390.261	363.054	368.864	233.732	160.896	370.194	244.351	157.054	342.724	344.833	0.00050658	0.00067422	0.00022834	1370.2	1.093e-05	5.1522e-06	1360.7	368.87	1.0642e-05	4.929e-06	420.86	140.43	121.61	41.87	2.5965e-06	52.112	0.00054982	0.00062043	0.0001671	1379	6.0854e-06	6.769e-06	1378.9	373.91	6.0363e-06	6.6797e-06	428.05	142.36	124.59	43.172	6.2121e-06	52.874	184.362	129.636	315.992	90.209	198.508	186.746	90.458	95.037	190.540	418.553	94.356	99.377	100.081	103.601	207.773	103.316	-8191	255	
8242.012	1	1	0	0	0.069847	0.12224	0.2278	0.28569	0.12857	0.14293	0.21872	0.23068	0.04196	0.13256	0.12018	0.10895	0.13402	0.11967	0.14216	0.027058	-1.3604	-2.2146	-2.4354	-1.9125	-2.7167	-2.1375	-2.2229	-2.8937	-1.7417	-2.6396	-2.7292	-1.9562	-2.7042	-2.4437	-1.9604	-2.7958	226.099	403.366	301.905	367.584	172.001	124.084	379.137	370.994	326.607	296.720	338.114	429.314	190.712	109.759	206.825	261.982	0.00053075	0.00061474	0.00025191	1369.3	9.6233e-06	5.6948e-06	1366.5	369.53	5.9339e-06	4.5746e-06	418.7	140.54	122.04	41.663	4.6117e-06	51.783	0.00056124	0.00060161	0.00015981	1373.4	6.2011e-06	6.5068e-06	1376	372.07	6.1486e-06	6.3198e-06	425.28	141.81	124.37	42.935	5.7609e-06	52.54	179.471	122.623	195.359	90.396	212.722	208.431	90.173	94.925	240.893	83.855	94.174	99.219	100.067	103.824	141.859	103.071	-8191	255	
8242.108	1	1	0	0	0.02778	0.098563	0.23973	0.18299	0.21333	0.073498	0.27153	0.14021	0.14605	0.162	0.23265	0.33893	0.23849	0.091207	0.24109	0.1964	-1.3083	-2.1042	-2.5542	-1.9312	-2.4875	-2.2229	-2.2646	-2.9313	-2.05	-2.2271	-2.6958	-1.9458	-2.5021	-2.3708	-1.775	-2.7875	175.187	283.947	238.982	141.165	401.187	415.736	324.341	360.830	138.647	392.727	380.998	133.951	124.078	410.163	373.704	351.014	0.00047243	0.00043155	8.8219e-05	1369	3.3582e-06	1.4752e-06	1371	369.65	6.9011e-06	4.9839e-06	419.97	140.74	121.61	41.816	3.0105e-06	51.972	0.00056123	0.00056021	0.00014908	1373	6.2478e-06	6.247e-06	1373.8	372.58	6.4288e-06	6.1962e-06	425.2	142.15	125.67	42.908	5.8135e-06	52.755	192.670	286.237	119.844	90.306	256.420	316.720	90.105	95.100	247.255	265.314	94.600	98.896	99.799	103.886	143.015	103.058	-8191	255	
8242.229	1	1	0	0	0.12374	0.24362	0.12717	0.11113	0.099129	0.23228	0.05719	0.23983	0.19124	0.20908	0.16202	0.22749	0.33468	0.098506	0.18053	0.19134	-1.5083	-2.1729	-2.5875	-1.8729	-2.3146	-2.4708	-2.1271	-2.7479	-1.9792	-1.9937	-2.8583	-1.9937	-2.6083	-2.2792	-1.6375	-2.7521	344.215	370.850	93.262	380.293	78.186	435.825	409.212	402.518	227.367	298.013	371.727	433.903	135.923	95.219	412.067	371.438	0.00046845	0.00023448	0.00018431	1370.5	6.7122e-06	5.1038e-06	1367.5	369.91	2.4678e-06	4.4802e-06	420.72	140.14	121.37	41.885	8.7836e-06	51.847	0.00059762	0.00056037	0.00015082	1377.2	6.5647e-06	6.3113e-06	1375.5	374.22	6.7586e-06	6.2473e-06	425.71	142.88	126.13	42.967	5.8878e-06	53.35	166.744	355.756	283.329	90.315	247.857	244.462	90.271	95.162	272.581	335.321	94.489	98.990	100.160	103.800	266.730	103.260	-8191	255	
8242.325	1	1	0	0	0.16426	0.27002	0.33039	0.1707	0.12989	0.15607	0.32363	0.19457	0.1981	0.19559	0.09083	0.17697	0.12205	0.27887	0.24145	0.16578	-1.5917	-2.0521	-2.6729	-2.1	-2.3646	-2.3917	-1.9479	-2.8896	-2.0167	-1.8625	-2.8208	-1.9312	-2.3417	-2.5792	-1.775	-2.5604	172.147	373.333	403.855	268.184	161.592	193.455	371.897	88.357	301.073	203.017	100.831	311.799	157.955	156.260	410.527	227.460	0.00035505	0.00017653	0.00010123	1372.3	1.2849e-05	8.5468e-06	1371	370.25	2.9538e-06	6.1196e-06	419.31	139.21	122.01	41.682	5.3109e-06	51.665	0.00061602	0.0005806	0.00015375	1384.7	6.7122e-06	6.419e-06	1376.7	375.77	6.7116e-06	6.1619e-06	424.63	143	125.62	42.793	5.6958e-06	53.148	192.416	149.036	220.546	90.357	192.411	268.474	90.248	94.946	196.960	279.712	94.637	99.218	99.767	103.781	163.351	103.477	-8191	255	
8242.419	1	1	0	0	0.14618	0.075662	0.077043	0.26834	0.033366	0.17341	0.157	0.068659	0.040207	0.1723	0.35287	0.1466	0.026521	0.29563	0.24067	0.18717	-1.8625	-1.9083	-2.8187	-2.0604	-2.2875	-2.6063	-1.95	-2.5771	-2.2604	-1.6313	-2.8667	-2.0292	-1.9458	-2.7458	-1.9375	-2.5896	375.331	82.164	301.246	105.099	109.572	175.338	402.753	304.756	110.006	208.569	349.032	410.818	311.872	365.475	242.257	308.609	0.00045668	0.00027433	0.0002096	1362.6	8.4137e-06	1.6925e-06	1361.4	368.86	3.4964e-06	2.736e-06	414.42	137.85	120.48	41.235	6.527e-06	51.608	0.00057742	0.00053553	0.0001443	1380.1	6.085e-06	5.8293e-06	1372.5	374.41	6.1611e-06	5.6568e-06	422.39	142.48	123.43	42.37	5.6958e-06	53.035	192.270	126.795	158.337	90.391	290.481	203.267	90.473	95.035	344.479	330.399	95.011	99.185	100.101	103.973	250.283	103.327	-8191	255	
8242.516	1	1	0	0	0.07901	0.22203	0.066625	0.32583	0.22034	0.21632	0.22766	0.24073	0.14239	0.1853	0.092452	0.12027	0.32628	0.097995	0.094867	0.22099	-1.9521	-1.9562	-2.7417	-2.2375	-2.1542	-2.6583	-1.9458	-2.4021	-2.4479	-1.7625	-2.8271	-2.1542	-1.8792	-2.7146	-1.7521	-2.6521	270.462	209.035	270.913	418.842	101.099	79.297	386.600	288.749	408.624	325.012	309.548	426.526	389.682	343.550	340.480	358.502	0.00043504	0.00014119	0.00017057	1372	5.6765e-06	3.9165e-06	1368.2	367.84	4.1654e-06	2.6631e-06	419.26	139.28	120.66	41.837	8.6586e-06	51.708	0.00055157	0.00050929	0.0001474	1381.1	5.8857e-06	5.6071e-06	1373.2	374.01	5.9487e-06	5.4498e-06	424.79	142.84	123.23	42.436	6.0715e-06	53.057	170.511	403.824	284.217	90.206	167.434	141.657	90.108	95.093	156.619	412.100	94.432	99.118	99.946	103.635	199.414	103.313	-8191	255	
8242.636	1	1	0	0	0.19432	0.18375	0.28054	0.2459	0.12023	0.16903	0.33217	0.081476	0.12371	0.17753	0.081534	0.10023	0.0036082	0.11513	0.12253	0.21188	-2.1604	-1.8	-2.3812	-2.3583	-2.0312	-2.6979	-2.0187	-2.3979	-2.4583	-1.6917	-2.9354	-2.1021	-1.6792	-2.8771	-1.9854	-2.1	419.076	280.204	234.219	424.829	215.404	146.885	393.182	383.072	388.676	406.885	85.484	223.373	338.139	392.611	427.631	399.884	0.00049224	0.00031704	0.00022669	1365.5	8.0699e-06	1.503e-06	1359.4	368.39	6.9607e-07	9.1776e-06	418.75	139.43	120.6	41.481	7.3726e-06	51.284	0.00054774	0.00050386	0.00015693	1380.8	5.8646e-06	5.6355e-06	1376.1	373.7	5.9231e-06	5.5548e-06	426.15	142.63	122.85	42.441	6.3638e-06	52.91	184.445	160.361	148.867	90.218	276.719	329.219	90.327	95.248	238.806	206.296	94.431	99.180	100.277	104.107	211.507	103.280	-8191	255	
8242.708	1	1	0	0	0.096352	0.1207	0.14149	0.051736	0.23668	0.1383	0.31747	0.218	0.089854	0.21189	0.02896	0.20392	0.13772	0.086666	0.19955	0.075807	-2.2687	-1.7333	-2.6	-2.5208	-1.6229	-2.7208	-2.1063	-2.1875	-2.45	-1.8354	-2.6729	-2.6771	-1.8083	-2.7708	-1.9688	-1.9771	268.384	265.290	257.646	368.441	414.061	90.081	355.715	331.186	163.282	83.175	196.919	409.784	358.197	315.093	357.496	385.463	0.00036083	0.00023009	7.1767e-05	1365	7.3816e-06	1.0585e-05	1356	365.55	5.2357e-06	1.1614e-05	416.8	138.45	120.26	41.407	2.9017e-06	51.143	0.00053839	0.00052108	0.00016424	1379	5.8239e-06	5.912e-06	1380.1	373.05	5.9514e-06	5.9668e-06	428.01	142.4	122.86	42.742	6.6929e-06	52.981	182.729	179.208	108.468	90.562	253.950	210.632	90.506	95.397	194.409	190.795	94.719	99.015	100.027	104.117	213.876	103.580	-8191	255	
8242.804	1	1	0	0	0.070311	0.10904	0.12142	0.13893	0.088688	0.15721	0.29399	0.13698	0.27947	0.10787	0.1882	0.077234	0.13169	0.2496	0.12955	0.14945	-2.1917	-1.6917	-2.3896	-2.5458	-1.7354	-2.6521	-2.1813	-2.1604	-2.7917	-1.8333	-2.5521	-2.4917	-1.8438	-2.8	-2.0438	-1.9604	327.845	348.117	260.389	392.973	318.797	169.103	352.909	342.038	173.190	416.525	77.417	401.120	215.658	369.495	325.021	340.077	0.00047762	0.00059582	0.00021631	1352.2	7.493e-06	9.4081e-06	1356.6	365.46	2.9552e-06	8.0676e-06	417.81	138.35	120.18	41.153	2.9647e-06	51.35	0.00054607	0.00057589	0.0001694	1379.8	5.8902e-06	6.4164e-06	1383	373.66	6.0237e-06	6.5296e-06	428.75	142.81	123.17	42.943	6.6473e-06	52.965	184.457	169.961	179.443	90.684	207.378	216.286	90.558	95.340	209.998	234.642	94.525	99.310	100.001	104.485	357.915	103.502	-8191	255	
8242.900	1	1	0	0	0.14404	0.095538	0.22954	0.1108	0.1235	0.062321	0.17754	0.32512	0.20426	0.24465	0.12106	0.1719	0.37234	0.21421	0.13997	0.15506	-2.1208	-1.8604	-2.2646	-2.8312	-1.7	-2.5667	-2.4708	-1.9813	-2.6104	-1.8667	-2.4083	-2.7583	-1.7375	-2.5833	-2.2646	-1.9188	278.666	78.934	360.807	403.336	205.127	189.558	385.789	402.756	117.975	257.873	393.231	396.806	86.942	365.801	291.051	82.713	0.00042591	0.00092401	0.00010411	1358.9	5.9805e-06	5.6633e-06	1357.2	365.41	9.6437e-06	6.2333e-06	416.21	138.67	120.55	41.014	2.9577e-06	50.969	0.00053945	0.00060335	0.00016658	1379.9	5.8548e-06	6.6307e-06	1381.2	372.94	5.9852e-06	6.7051e-06	426.64	142.32	123.34	43.01	6.3605e-06	52.616	187.975	106.628	115.471	90.534	268.061	276.898	90.318	95.468	228.292	205.816	94.921	99.116	100.172	104.523	222.791	103.531	-8191	255	
8242.996	1	1	0	0	0.038982	0.1329	0.11759	0.22718	0.050271	0.16289	0.23247	0.32728	0.20444	0.074764	0.049817	0.2599	0.19711	0.066395	0.20878	0.1882	-2.4646	-2.0083	-2.1562	-2.8187	-1.7167	-2.4792	-2.4771	-1.9146	-2.5917	-1.9458	-2.2146	-2.7021	-1.8396	-2.6083	-2.3875	-1.8042	218.772	110.821	430.792	410.067	85.526	255.713	425.942	412.159	384.572	179.192	391.744	404.873	422.783	241.327	209.346	78.798	0.0005807	0.00032912	0.00026891	1359.2	1.1067e-05	6.2624e-06	1356.5	364.38	6.9211e-06	2.4457e-06	413.94	138.08	120.32	41.675	4.4563e-06	50.904	0.00054453	0.0006071	0.00015788	1377.7	5.9968e-06	6.6229e-06	1380.5	371.93	6.2534e-06	6.7703e-06	426.35	142.12	124.91	43.301	6.6051e-06	52.841	172.898	278.911	88.923	90.472	210.868	163.035	90.411	95.359	223.598	258.495	94.855	99.337	100.492	104.315	265.675	103.377	-8191	255	
8243.117	1	1	0	0	0.11572	0.091305	0.33825	0.15086	0.2028	0.064271	0.27565	0.29661	0.13163	0.31079	0.023822	0.10153	0.23385	0.10914	0.18146	0.13052	-2.1521	-2.1167	-2.0271	-2.8458	-1.7042	-2.1708	-2.6458	-1.8708	-2.7167	-2.1771	-2.0563	-2.7104	-1.8146	-2.4729	-2.5812	-1.7125	157.361	104.931	333.571	139.646	197.218	417.151	384.393	399.985	146.624	239.619	269.249	387.611	139.154	421.235	78.336	415.140	0.00058079	0.00088121	0.00018732	1367.8	6.9723e-06	2.1664e-06	1368	368.58	6.3828e-06	6.4297e-06	418.87	139.2	121.29	41.701	1.5024e-06	51.704	0.00061144	0.00064673	0.00016648	1381.9	6.8176e-06	6.9578e-06	1384.3	373.49	6.8018e-06	6.8651e-06	427.7	142.54	126.36	43.117	6.4231e-06	52.858	190.147	169.637	129.432	90.387	202.000	390.671	90.178	95.183	193.007	177.266	94.633	99.295	99.590	104.131	215.566	103.328	-8191	255	
8243.213	1	1	0	0	0.23376	0.2603	0.2778	0.36328	0.035639	0.16544	0.002763	0.39009	0.041224	0.18018	0.22075	0.12158	0.24322	0.29557	0.12402	0.071868	-2.1458	-2.1167	-1.6479	-2.9021	-1.7333	-2.3063	-2.7833	-1.875	-2.4292	-2.3417	-1.7812	-2.7542	-1.9167	-2.1125	-2.6208	-1.8146	234.361	121.036	266.854	397.881	185.111	332.015	154.656	394.381	312.099	396.176	107.160	378.221	373.058	331.299	398.862	407.965	0.00049362	0.00051081	0.00020647	1366.9	9.5952e-06	2.7461e-06	1354.2	368.23	7.2526e-06	4.7216e-06	419.24	139.45	120.43	41.911	6.6339e-06	51.761	0.00062396	0.00062113	0.00016036	1381.8	7.0226e-06	6.66e-06	1380.4	374.03	7.0542e-06	6.7678e-06	426.93	142.93	127.36	43.221	6.3371e-06	53.22	181.362	397.337	151.650	90.504	244.875	318.765	90.548	95.009	228.174	210.662	94.492	99.217	99.796	104.077	211.431	103.085	-8191	255	
8243.309	1	1	0	0	0.073899	0.2874	0.072951	0.10292	0.22254	0.25669	0.077523	0.10268	0.19152	0.054996	0.23097	0.12159	0.10337	0.26152	0.059028	0.21596	-2.1813	-2.3167	-1.8604	-2.7729	-2.0563	-2.0187	-2.9437	-1.7729	-2.3979	-2.4125	-1.9521	-2.5062	-2.1396	-2.1854	-2.575	-1.7604	176.648	100.296	201.977	272.318	297.847	322.663	293.212	427.584	327.969	279.813	114.109	142.263	314.540	400.300	262.849	393.316	0.00037417	0.00038625	0.00038483	1375.4	2.3202e-06	7.8415e-06	1374.1	369.67	6.9397e-06	7.5556e-06	421.3	140.47	121.79	41.902	4.489e-06	51.502	0.00064049	0.00061168	0.00015603	1388.6	6.9906e-06	6.4582e-06	1382.9	375.08	6.846e-06	6.5489e-06	426.14	143.47	126.92	43.008	6.0459e-06	53.265	188.502	93.697	117.111	90.415	260.959	232.436	90.207	94.913	218.269	92.289	94.412	99.094	99.748	103.859	210.792	103.215	-8191	255	
8243.405	1	1	0	0	0.063796	0.12015	0.10486	0.23621	0.25922	0.18213	0.33807	0.1084	0.245	0.095479	0.10142	0.11238	0.023569	0.1596	0.15964	0.10127	-1.8958	-2.5833	-1.6542	-2.9125	-2.0667	-1.8125	-2.7979	-1.9188	-2.1479	-2.4521	-1.8146	-2.8042	-2.2208	-1.9583	-2.7125	-1.8958	187.646	418.660	277.936	402.246	248.534	246.804	390.594	367.791	204.375	166.074	348.129	411.275	137.904	131.643	93.845	113.098	0.00049795	0.00044741	1.9542e-05	1372	6.4247e-06	8.0437e-06	1368.2	369.18	3.7775e-06	3.0273e-06	420.88	139.85	121.81	41.755	4.6493e-06	52.097	0.00060711	0.0005892	0.00015022	1388.6	6.7169e-06	6.22e-06	1380.8	375.75	6.5743e-06	6.325e-06	425.28	143.83	126.33	42.845	6.0906e-06	53.658	184.938	219.262	396.936	90.375	236.615	277.863	90.216	94.941	172.102	384.565	94.314	98.659	99.888	103.893	256.118	103.088	-8191	255	
8243.500	1	1	0	0	0.07445	0.17276	0.25229	0.17707	0.14137	0.19804	0.21147	0.16199	0.26117	0.23789	0.11686	0.19381	0.21323	0.18715	0.13178	0.065444	-1.7646	-2.5458	-1.7104	-2.4833	-2.2438	-1.6521	-2.8479	-2.0167	-2.0646	-2.6104	-1.8479	-2.525	-2.5271	-1.7875	-2.4208	-2.1312	377.259	326.019	264.758	335.157	339.154	346.879	406.728	100.965	414.284	342.209	166.109	365.615	98.981	429.813	277.615	114.318	0.00041891	0.00037839	0.00013442	1381.7	6.653e-06	6.1831e-06	1371.9	368.43	1.0215e-05	2.6034e-06	421.01	140.02	121.48	41.889	4.7571e-06	51.693	0.0005956	0.00057771	0.00015688	1392.3	6.725e-06	6.2004e-06	1384.4	377.06	6.668e-06	6.3777e-06	427.95	144.25	126.46	42.916	6.5521e-06	53.824	188.572	224.516	79.359	90.250	360.198	266.376	90.138	94.603	221.674	375.916	94.124	98.676	99.548	103.504	175.161	102.611	-8191	255	
8243.598	1	1	0	0	0.3261	0.17866	0.095906	0.24723	0.12117	0.079693	0.26187	0.088305	0.18043	0.31614	0.36362	0.26736	0.11674	0.087917	0.27243	0.20197	-1.6938	-2.6625	-1.8125	-2.6208	-2.3729	-1.7708	-2.7958	-2.2125	-1.9708	-2.4813	-1.8813	-2.4583	-2.5146	-1.9062	-2.7125	-2.0271	80.976	289.718	383.965	341.316	83.420	265.151	346.636	123.130	340.611	292.905	425.370	343.501	289.245	153.656	175.107	408.380	0.00044761	0.00053012	0.00016607	1377.4	3.362e-06	2.4964e-06	1375.2	370.15	5.2713e-06	2.8852e-06	421.63	139.9	121.69	41.801	6.6103e-06	51.56	0.00059895	0.00057608	0.0001682	1392.4	6.6731e-06	6.1261e-06	1389.4	377.28	6.5429e-06	6.1843e-06	430.44	144.03	126.37	42.755	6.8697e-06	53.567	196.655	300.483	137.293	90.188	166.092	269.369	90.070	94.707	227.882	301.627	94.215	98.740	99.709	103.631	204.640	102.917	-8191	255	
8243.717	1	1	0	0	0.11912	0.097385	0.1259	0.096596	0.075685	0.14753	0.17269	0.36572	0.15929	0.15612	0.11187	0.37244	0.25141	0.069658	0.090935	0.10921	-1.4833	-2.5792	-1.6437	-2.3521	-2.4646	-1.5896	-2.7208	-2.3333	-1.8146	-2.8083	-2.0563	-2.2438	-2.6729	-1.8667	-2.4875	-2.2271	359.846	421.324	139.759	431.740	289.729	205.847	372.977	371.701	178.678	336.408	198.503	423.430	307.613	100.974	339.200	383.072	0.00037112	0.00051101	0.00047771	1370.5	2.8822e-06	6.3408e-06	1359.3	367.68	5.7171e-06	5.5046e-06	419.02	139.53	120.29	41.743	9.2618e-06	51.828	0.00058443	0.00056821	0.00017531	1390.7	6.5246e-06	6.1263e-06	1389.9	376.47	6.3184e-06	6.3196e-06	431.08	143.64	125.25	42.906	7.0141e-06	53.527	190.094	119.147	115.091	90.162	339.219	260.112	90.044	94.959	219.284	229.892	94.545	99.236	99.466	103.838	184.241	103.200	-8191	255	
8243.813	1	1	0	0	0.18043	0.17476	0.26059	0.22748	0.054201	0.17042	0.30452	0.10943	0.097103	0.082727	0.26493	0.17067	0.16461	0.16946	0.2328	0.12402	-1.3438	-2.6	-1.9458	-2.3187	-2.75	-1.8208	-2.7542	-2.3625	-1.7333	-2.4437	-2.1583	-2.2667	-2.6854	-1.8792	-2.3125	-2.7333	426.682	309.947	82.609	335.500	375.144	424.144	390.334	377.752	304.186	414.941	81.524	380.805	433.792	197.336	152.286	158.548	0.00041239	0.0013196	0.00016731	1363.9	3.8502e-06	7.0572e-06	1360.7	366.44	2.7186e-06	7.3765e-06	418.52	139.62	121.47	41.653	4.1773e-06	51.653	0.00056586	0.00058793	0.00017943	1385.5	6.3385e-06	6.3518e-06	1387.2	375.38	6.0908e-06	6.4729e-06	430.51	143.05	124.71	43.064	6.7682e-06	53.363	200.206	135.772	377.981	90.247	294.133	292.920	90.465	94.830	252.939	198.709	94.698	99.234	99.779	103.669	348.147	102.768	-8191	255	
8243.909	1	1	0	0	0.034366	0.2607	0.16565	0.16849	0.007644	0.068955	0.41119	0.17636	0.15532	0.13605	0.30517	0.15447	0.26526	0.065823	0.089147	0.095353	-1.2979	-2.5792	-2.1208	-2.0563	-2.7729	-1.7646	-2.4958	-2.4979	-1.6125	-2.6167	-2.2438	-1.8854	-2.65	-1.9417	-2.2958	-2.6562	130.794	395.371	134.167	415.503	76.828	312.979	330.335	339.440	325.103	248.610	371.511	388.489	363.027	159.341	160.711	239.657	0.00048926	0.00095864	0.00014751	1370.9	6.9571e-06	7.9512e-06	1373.1	368.09	6.1449e-06	4.2947e-06	422.67	139.2	120.47	41.809	1.4805e-06	51.852	0.00054592	0.00060601	0.00017412	1385.2	6.08e-06	6.6532e-06	1388.8	375.33	5.9635e-06	6.6964e-06	430.5	142.97	124.37	43.239	6.7251e-06	53.278	181.641	206.068	142.559	90.115	214.879	218.482	90.269	94.786	219.180	217.365	94.123	98.890	99.661	104.009	208.927	103.019	-8191	255	
8244.005	1	1	0	0	0.13403	0.27931	0.27319	0.42641	0.15898	0.11579	0.23011	0.30347	0.16326	0.11495	0.14737	0.068295	0.016722	0.27105	0.19604	0.065184	-1.1396	-2.4562	-2.0958	-2.1646	-2.7896	-1.8375	-2.2667	-2.6521	-1.8542	-2.675	-2.325	-1.9188	-2.7125	-1.925	-2.1521	-2.6792	255.750	181.725	378.291	360.701	370.047	215.897	386.899	435.374	189.576	213.395	320.895	406.441	349.088	343.563	293.345	353.679	0.00045374	0.0011359	4.6128e-05	1363.6	5.5322e-06	6.971e-06	1367.2	369.31	7.5006e-06	1.6677e-06	420.02	139.67	122.17	41.715	5.0306e-06	51.954	0.00055911	0.00063906	0.00017308	1383	6.3293e-06	7.0951e-06	1388.4	375.33	6.3697e-06	7.1748e-06	431.4	143.23	125.98	43.522	6.7644e-06	53.358	177.442	153.465	330.215	90.491	157.609	216.178	90.113	95.138	203.773	265.665	94.636	99.111	99.765	103.893	327.790	102.826	-8191	255	
8244.101	1	1	0	0	0.16377	0.11832	0.16759	0.18786	0.0069712	0.1035	0.33131	0.18495	0.092198	0.13733	0.17733	0.32072	0.2388	0.29687	0.17779	0.073067	-1.3875	-2.3042	-2.3604	-2.0729	-2.7313	-2	-2.2375	-2.7521	-1.6729	-2.45	-2.5354	-1.7375	-2.6542	-2.2083	-1.8667	-2.5833	122.634	144.287	308.614	347.912	117.192	356.910	365.149	366.837	292.882	169.085	424.107	102.877	392.643	402.431	262.244	352.243	0.00049407	0.00023182	0.00023603	1369.8	8.5122e-06	2.4321e-06	1368.8	368.56	5.5754e-06	4.5922e-06	419.81	139.3	120.74	41.541	3.1864e-06	51.391	0.00059977	0.00065392	0.00017431	1382.7	6.7311e-06	7.256e-06	1386.5	375.09	6.8134e-06	7.1278e-06	431.09	142.81	127.11	43.444	6.6461e-06	53.141	191.975	211.570	157.487	90.300	260.944	187.798	90.417	94.771	238.384	272.058	94.379	98.517	99.176	103.486	284.000	102.521	-8191	255	
8244.197	1	1	0	0	0.18422	0.14326	0.20543	0.17402	0.24058	0.080598	0.3039	0.03814	0.078646	0.27361	0.20002	0.26068	0.16465	0.16581	0.10213	0.32727	-1.1625	-2.1729	-2.625	-1.7458	-2.6562	-1.9729	-2.175	-2.7208	-2.0375	-2.2417	-2.5438	-1.8875	-2.425	-2.3167	-1.7125	-2.7354	160.135	344.110	334.679	105.315	419.916	334.715	363.731	337.259	434.408	244.063	364.914	401.582	321.218	435.420	229.255	202.543	0.00054015	0.00099329	0.00013246	1361.9	8.1558e-06	3.9646e-06	1362.6	368.89	8.207e-06	6.4441e-06	421.35	140.62	121.5	41.931	1.2423e-06	52.17	0.00062982	0.00064123	0.00017016	1380.1	6.9358e-06	6.9733e-06	1381.6	374.51	6.9422e-06	6.7485e-06	428.4	142.76	126.96	43.255	6.2587e-06	53.138	185.117	208.642	176.038	89.924	223.979	226.403	89.860	94.641	323.684	184.926	94.352	98.846	99.844	103.456	260.500	102.978	-8191	255	
8244.293	1	1	0	0	0.086047	0.22768	0.22126	0.23597	0.30899	0.18874	0.017964	0.041606	0.27119	0.18644	0.24777	0.19421	0.28309	0.087112	0.10881	0.24333	-1.4583	-2.1312	-2.3792	-2.0167	-2.3729	-2.3438	-2.0729	-2.7354	-1.8083	-2.175	-2.9125	-2.0354	-2.4521	-2.425	-1.9688	-2.6417	110.976	290.468	421.110	380.786	334.103	101.759	416.978	82.230	194.924	237.586	87.665	374.627	114.312	162.601	139.776	104.239	0.00054375	0.0002855	0.00021919	1369.3	1.1251e-05	8.7189e-06	1369.5	370.46	2.6185e-06	2.2352e-06	420.05	140.15	122	41.892	3.1536e-06	51.957	0.00063348	0.00060564	0.00016308	1382.9	6.9754e-06	6.7189e-06	1382.4	375.54	7.0902e-06	6.6127e-06	428.01	143.24	127.41	43.248	6.1402e-06	53.437	180.213	160.103	83.600	90.143	227.198	385.353	90.044	94.917	239.724	391.696	94.307	98.970	99.771	103.715	262.360	103.166	-8191	255	
8244.412	1	1	0	0	0.18631	0.038602	0.19199	0.17349	0.081663	0.12612	0.0031585	0.29631	0.12507	0.34927	0.1174	0.3169	0.1436	0.17596	0.14318	0.081291	-1.5875	-1.8104	-2.55	-1.8438	-2.2	-2.4979	-1.9708	-2.7812	-2.2708	-1.85	-2.7625	-2.0167	-2.4062	-2.575	-1.6708	-2.6417	287.753	126.813	338.637	415.509	90.656	272.938	425.480	428.341	190.881	419.546	397.533	372.737	276.934	148.313	334.159	351.045	0.00041879	0.00033897	0.00019385	1369.8	3.8391e-06	5.1223e-06	1364.5	369.06	4.2878e-06	4.7792e-06	422.55	139.8	122.56	41.891	9.7832e-06	52.016	0.00064587	0.00060097	0.00015976	1387.6	6.991e-06	6.7365e-06	1378	376.32	7.1249e-06	6.5882e-06	427.83	144.11	127.86	43.189	6.1958e-06	53.75	185.949	368.305	331.401	90.446	161.623	367.683	90.729	95.124	254.057	191.330	94.324	98.978	99.986	103.692	288.868	103.089	-8191	255	
8244.509	1	1	0	0	0.30945	0.19478	0.13938	0.062088	0.17015	0.18242	0.18821	0.25935	0.058657	0.23281	0.32018	0.17012	0.081782	0.24322	0.044063	0.27154	-1.7542	-1.9062	-2.6312	-2.0812	-2.2542	-2.5833	-1.9833	-2.6375	-2.1979	-1.7583	-2.9396	-2.0604	-2.0812	-2.4625	-1.7542	-2.4917	269.274	99.540	326.114	99.951	212.444	404.122	108.877	327.757	363.288	164.506	398.780	434.336	279.073	109.527	129.409	354.207	0.00037374	0.00042832	0.00020925	1368.7	1.7275e-06	4.5241e-06	1367.5	370.78	3.7863e-07	5.8273e-06	419.29	140.42	120.82	41.888	8.8726e-06	51.769	0.00064164	0.0005957	0.00016148	1392.5	6.9183e-06	6.7105e-06	1379.2	378.67	7.1434e-06	6.5623e-06	428.81	144.57	127.09	43.232	6.4666e-06	54.009	192.181	120.682	175.457	90.671	111.868	259.899	90.283	95.215	368.140	276.371	94.542	98.969	99.782	103.818	227.262	103.096	-8191	255	
8244.580	1	1	0	0	0.035478	0.18993	0.039585	0.17268	0.11529	0.17937	0.20097	0.30781	0.31563	0.16998	0.39897	0.022114	0.12138	0.091566	0.26363	0.18858	-1.825	-1.8083	-2.6917	-2.125	-2.2854	-2.6312	-1.9438	-2.7062	-2.4167	-1.6854	-2.6542	-2	-2.0396	-2.6875	-1.5438	-2.5646	388.987	140.547	115.218	163.776	313.759	277.998	423.009	380.893	246.575	313.741	353.721	197.102	371.005	378.757	136.925	93.886	0.0003957	0.00092075	0.00028181	1363.2	9.976e-06	3.6852e-06	1369.5	369.24	6.5257e-06	5.232e-06	418.28	139.08	120.47	41.628	9.4047e-06	51.537	0.00063381	0.00058695	0.00016877	1391.2	6.7634e-06	6.4466e-06	1383.9	378.05	6.8158e-06	6.2572e-06	428.69	144.26	125.86	42.904	6.6856e-06	53.76	188.193	201.051	129.140	90.548	238.636	132.550	90.163	95.125	215.291	241.032	94.644	99.431	99.990	103.978	231.762	103.123	-8191	255	
8244.678	1	1	0	0	0.25606	0.11513	0.124	0.30772	0.2433	0.20733	0.12607	0.25177	0.24105	0.1084	0.17691	0.17871	0.11425	0.28404	0.26879	0.33482	-2.0958	-1.6063	-2.3667	-2.2771	-1.8417	-2.6917	-1.8896	-2.4479	-2.3833	-1.5625	-2.7062	-2.2479	-1.9729	-2.8812	-1.9021	-2.3604	204.467	97.961	142.165	386.499	261.363	434.708	427.689	424.880	314.561	193.445	80.812	331.551	220.448	417.911	222.537	405.623	0.00041514	0.00053389	0.00021325	1367.9	5.2033e-06	3.2717e-06	1363.9	370.11	7.562e-06	8.5934e-06	421.04	138.82	121.03	41.752	7.0868e-06	51.356	0.00061366	0.00056112	0.00017293	1389.8	6.5545e-06	6.2077e-06	1386.4	377.42	6.7289e-06	6.1973e-06	432.21	144.36	125.62	42.952	7.1433e-06	53.607	182.636	433.625	77.952	90.275	338.781	249.539	90.420	95.007	158.789	272.176	94.429	98.959	100.108	103.921	207.610	103.484	-8191	255	
8244.797	1	1	0	0	0.15198	0.12091	0.15693	0.17758	0.1565	0.16565	0.087383	0.30055	0.038523	0.065752	0.25487	0.12921	0.065169	0.16887	0.30159	0.053091	-2.2313	-1.6562	-2.4688	-2.4333	-1.8625	-2.8104	-2.4271	-2.3979	-2.6646	-1.65	-2.3771	-2.3083	-1.7271	-2.6937	-1.7271	-2.0646	433.356	84.600	316.684	82.882	339.194	107.216	290.942	93.907	93.167	151.277	335.158	113.567	344.858	419.890	165.638	349.485	0.00048468	0.00044947	0.00017644	1367	2.1453e-06	7.3713e-06	1365.6	369.4	3.2872e-06	3.0905e-06	421.1	139.45	120.94	41.495	2.8572e-06	51.477	0.00061087	0.00058405	0.0001831	1390.1	6.6354e-06	6.5528e-06	1392	377.52	6.7657e-06	6.615e-06	433.58	144.4	126.12	43.181	7.428e-06	53.63	177.814	77.608	101.052	90.459	285.709	204.998	90.422	95.108	304.957	160.266	94.537	99.194	100.158	104.014	197.514	103.315	-8191	255	
8244.893	1	1	0	0	0.23559	0.10204	0.24751	0.15851	0.29106	0.21141	0.23938	0.18885	0.080199	0.15449	0.076877	0.24983	0.3147	0.25116	0.1777	0.12408	-2.1458	-1.4312	-2.3354	-2.6792	-1.7917	-2.5438	-2.3854	-2.1688	-2.6417	-1.7833	-2.4104	-2.5062	-1.7854	-2.7521	-1.9646	-2.1042	82.801	420.675	132.943	427.063	128.491	215.346	311.426	362.993	179.408	88.416	177.099	376.638	306.932	364.395	399.460	191.925	0.00047118	0.00068327	0.00037895	1352.1	2.7508e-06	1.0037e-05	1351.6	363.38	2.7145e-06	2.1809e-06	418.82	138.95	121.04	41.668	6.9746e-06	51.316	0.00060977	0.00061946	0.00018742	1387.8	6.4632e-06	6.9281e-06	1391.5	375.68	6.6118e-06	6.9414e-06	433.12	144.04	125.38	43.419	7.3817e-06	53.501	176.508	179.804	139.859	90.657	218.109	184.358	90.654	95.587	199.810	204.811	94.556	99.258	100.039	104.108	262.823	103.311	-8191	255	
8244.989	1	1	0	0	0.13535	0.15181	0.1394	0.26064	0.09433	0.17274	0.14605	0.23486	0.065996	0.19491	0.23288	0.14526	0.1354	0.15825	0.18139	0.041983	-2.3187	-1.6938	-2.4167	-2.7479	-1.7396	-2.6896	-2.4521	-1.8687	-2.7833	-1.9458	-2.4792	-2.8438	-1.8125	-2.7313	-2.3896	-2.0917	348.373	198.160	334.552	431.219	360.273	156.195	371.261	388.708	328.950	362.681	377.359	398.602	107.856	343.315	118.369	359.077	0.00043876	0.00023001	0.00029647	1359.6	8.0134e-06	7.999e-06	1361.9	367.06	6.4755e-06	8.7494e-06	417.53	138.71	120.89	41.372	1.0021e-06	51.28	0.00059416	0.00065129	0.00018191	1387	6.3407e-06	7.2052e-06	1389.4	375.86	6.4925e-06	7.2381e-06	431.75	143.5	125.05	43.415	7.1073e-06	53.275	177.754	134.829	419.035	90.556	165.996	206.460	90.565	95.163	201.053	196.853	94.923	98.988	100.144	104.279	206.389	103.532	-8191	255	
8245.110	1	1	0	0	0.069534	0.13363	0.43817	0.12901	0.39052	0.1963	0.32211	0.37902	0.086975	0.28239	0.20728	0.3116	0.076667	0.21881	0.0794	0.04271	-2.3604	-1.6979	-2.2583	-2.7812	-1.8896	-2.5458	-2.4792	-1.9208	-2.6896	-2.1542	-2.25	-2.6604	-1.7771	-2.6958	-2.3417	-1.8854	214.156	343.336	225.877	437.105	362.284	140.659	337.638	330.005	242.940	365.252	409.475	311.927	173.413	419.783	178.351	331.515	0.00048417	0.00066534	0.00013147	1355.7	7.6902e-06	1.8216e-06	1352.5	365.94	4.8771e-06	7.6636e-06	414.91	137.47	120.05	41.448	4.3823e-06	51.498	0.00059826	0.00066919	0.00017522	1383.5	6.4639e-06	7.2327e-06	1385.1	374.69	6.581e-06	7.2627e-06	429.5	142.87	125.96	43.446	6.8816e-06	53.079	180.688	124.969	200.984	90.548	242.634	278.386	90.434	95.337	240.992	219.893	94.905	99.312	100.354	104.096	158.712	103.443	-8191	255	
8245.182	1	1	0	0	0.12092	0.095336	0.083086	0.05991	0.33925	0.073854	0.073268	0.353	0.19849	0.152	0.21366	0.21012	0.20824	0.16683	0.26579	0.095779	-2.425	-1.8604	-2.0083	-2.9354	-1.7	-2.4792	-2.7042	-1.8708	-2.7375	-2.1063	-2.1042	-2.8896	-1.925	-2.5187	-2.7229	-1.9562	279.600	289.467	165.422	249.530	194.249	393.436	362.880	363.789	162.123	163.441	87.433	334.495	335.512	90.076	100.838	198.775	0.0004529	0.0005641	0.00022153	1368.7	4.4669e-06	3.4322e-06	1361	366.04	6.3148e-06	9.9278e-06	414.32	138.35	119.42	41.125	2.1925e-06	50.931	0.00062045	0.00067078	0.00017185	1384.1	6.9048e-06	7.2006e-06	1386.3	374.34	7.0391e-06	7.3148e-06	429.48	143.2	127.46	43.36	6.9025e-06	52.951	184.819	202.031	88.520	90.251	192.583	252.748	90.523	95.274	239.445	198.744	94.894	99.302	100.104	104.474	90.843	103.223	-8191	255	
8245.278	1	1	0	0	0.26065	0.27939	0.078954	0.13677	0.070101	0.1402	0.14513	0.18719	0.10236	0.096655	0.16764	0.34538	0.33091	0.16481	0.10926	0.17436	-2.3396	-2.3042	-1.8438	-2.6958	-1.9917	-2.1542	-2.6875	-1.8354	-2.7896	-2.1625	-1.9292	-2.7438	-1.9042	-2.1958	-2.6167	-1.8937	346.597	301.991	198.441	95.820	329.458	358.764	381.803	383.040	79.797	198.973	92.584	404.846	177.236	359.555	109.041	415.313	0.00052246	0.00026333	0.00020568	1362.1	1.3067e-05	5.247e-06	1366.4	367.33	9.8029e-07	1.0296e-05	418.83	138.87	121.63	41.75	1.0424e-05	51.79	0.00065336	0.00065583	0.00016824	1384.3	7.1271e-06	6.9072e-06	1384.5	373.99	7.107e-06	6.8939e-06	427.38	142.6	127.75	43.196	6.5073e-06	53.11	185.667	222.049	207.424	90.547	180.046	351.283	90.250	94.997	148.099	191.627	94.329	98.929	99.666	104.159	214.520	103.152	-8191	255	
8245.398	1	1	0	0	0.44237	0.33819	0.13978	0.26863	0.14853	0.090439	0.13892	0.29048	0.1806	0.063511	0.36414	0.18683	0.16474	0.482	0.089481	0.2725	-2.075	-2.0583	-2.0187	-2.875	-1.8854	-2.125	-2.9396	-1.8229	-2.4313	-2.4708	-2.0771	-2.7313	-2.1229	-2.1188	-2.5521	-1.95	367.764	115.266	257.309	427.048	175.345	322.026	91.683	357.459	239.680	135.922	134.946	370.531	253.330	384.023	95.847	307.568	0.00040843	0.00047072	0.00015693	1366.1	3.3398e-06	2.9888e-06	1360.1	368.9	6.5563e-06	5.0959e-06	418.78	139.8	121.01	41.96	4.6847e-06	51.877	0.0006489	0.00062621	0.00015976	1384.9	7.1919e-06	6.6607e-06	1381	375.38	7.0533e-06	6.7561e-06	426.39	143.52	127.69	43.092	6.2628e-06	53.46	188.866	145.227	218.197	90.432	215.675	242.605	90.299	95.019	184.999	317.901	94.563	99.170	99.907	103.876	261.425	103.132	-8191	255	
8245.493	1	1	0	0	0.073559	0.08281	0.22143	0.094107	0.26557	0.21371	0.44426	0.20342	0.15922	0.17755	0.10547	0.26865	0.17971	0.10961	0.020437	0.14825	-2.1	-2.5458	-1.6354	-2.8667	-2.3458	-1.9813	-2.8042	-1.9229	-2.2333	-2.5146	-1.7687	-2.65	-2.3042	-2.0667	-2.7958	-2.2479	402.988	275.174	338.994	327.742	386.619	235.721	396.350	389.072	201.140	231.758	155.958	393.098	83.777	368.402	296.387	392.581	0.0003344	0.00018619	1.5924e-05	1372.8	2.6624e-06	7.5843e-06	1365.8	369.7	1.09e-05	5.5613e-06	421.15	139.82	121.42	42.015	6.1132e-06	51.903	0.00063427	0.00061244	0.00015576	1389.7	7.0116e-06	6.4911e-06	1378.9	376.62	6.8865e-06	6.6283e-06	426.46	143.73	126.96	42.98	6.2243e-06	53.674	182.842	371.334	399.306	90.325	261.266	257.964	90.323	94.998	286.021	178.800	94.385	98.647	99.123	103.525	215.976	103.028	-8191	255	
8245.589	1	1	0	0	0.14317	0.17755	0.092058	0.15198	0.11376	0.31308	0.18778	0.062244	0.11441	0.25844	0.1509	0.22209	0.24215	0.080641	0.14641	0.021964	-1.8396	-2.5104	-1.675	-2.5604	-2.2417	-1.8937	-2.925	-2.0146	-2.4104	-2.7167	-2.0187	-2.7062	-2.2875	-1.9833	-2.6646	-2.1146	398.197	239.212	415.176	427.730	213.708	164.491	377.559	305.572	286.416	335.696	78.348	399.193	259.741	283.760	158.669	84.233	0.00035025	0.00064881	0.00023386	1372.1	5.1839e-06	4.0002e-06	1373	369.75	6.4527e-06	1.8328e-06	422.1	139.7	121.52	41.892	7.1066e-06	51.752	0.00060874	0.00059582	0.00015758	1390.8	6.8938e-06	6.3393e-06	1382	377.63	6.7459e-06	6.545e-06	428.35	144.45	126.69	42.974	6.5817e-06	53.908	188.404	113.270	151.183	90.251	177.956	86.219	90.167	94.839	278.790	401.467	94.215	99.019	99.294	103.695	213.271	102.687	-8191	255	
8245.710	1	1	0	0	0.1688	0.20503	0.076338	0.2882	0.025563	0.080004	0.10178	0.28282	0.053331	0.20039	0.12607	0.21784	0.023397	0.2326	0.090026	0.17051	-1.6063	-2.5583	-1.8292	-2.75	-2.4521	-1.7458	-2.6771	-2.2	-1.95	-2.6479	-1.9167	-2.45	-2.5979	-1.8854	-2.6437	-2.3354	285.969	304.152	353.521	110.180	80.556	172.045	86.472	401.493	251.164	353.082	406.342	159.035	105.609	425.613	119.180	364.564	0.00035523	0.00024391	0.00037358	1372.3	3.2958e-06	4.7839e-06	1369.5	369.37	2.1692e-06	7.1766e-06	420.69	140.3	120.96	41.91	3.2868e-06	51.863	0.00060687	0.00058973	0.00016827	1393	6.792e-06	6.1833e-06	1385.1	377.51	6.5947e-06	6.3269e-06	429.78	144.13	126.25	42.805	6.7658e-06	53.751	175.668	280.081	105.130	90.149	77.338	223.938	90.090	94.677	129.325	202.818	94.387	99.098	99.892	104.014	286.864	103.151	-8191	255	
8245.806	1	1	0	0	0.1344	0.24811	0.18038	0.21282	0.096775	0.18296	0.39519	0.30748	0.12328	0.14739	0.041765	0.20509	0.094695	0.12179	0.1483	0.20153	-1.5833	-2.6729	-1.7958	-2.3354	-2.4813	-1.7313	-2.9229	-2.2875	-1.6729	-2.8458	-1.8896	-2.275	-2.5312	-1.8729	-2.7229	-2.3125	308.127	143.169	124.183	108.046	209.394	360.796	366.447	397.517	93.613	418.696	427.983	327.862	78.176	332.127	244.740	398.124	0.0003929	0.00060447	0.0002066	1367.2	5.7203e-06	7.6553e-06	1357.6	367.68	3.2726e-06	8.6635e-06	417.6	139.35	119.77	41.633	6.4852e-06	51.901	0.00058462	0.00056081	0.00017158	1385.3	6.4094e-06	5.9645e-06	1384.4	375.75	6.2133e-06	6.0734e-06	429.5	143.27	124.67	42.702	6.8576e-06	53.442	183.714	214.958	149.522	90.375	216.456	173.251	90.629	95.023	297.857	204.372	94.572	99.267	99.967	104.196	218.924	103.066	-8191	255	
8245.877	1	1	0	0	0.15775	0.10214	0.079415	0.071482	0.084656	0.30146	0.20601	0.19392	0.24124	0.20438	0.35992	0.28412	0.2649	0.15051	0.16867	0.25716	-1.4458	-2.6958	-1.9937	-2.4083	-2.4938	-1.7167	-2.7667	-2.5208	-1.7604	-2.6771	-1.8958	-2.0458	-2.5833	-1.7917	-2.4854	-2.3125	386.929	390.622	346.273	410.697	246.506	169.166	400.103	377.384	361.797	149.006	354.567	384.413	390.349	349.764	266.507	378.723	0.00049105	0.0006865	0.00023527	1369.4	6.0623e-06	1.5407e-05	1369.8	370.48	4.2664e-06	5.6235e-06	420.26	139.91	120.79	41.841	5.0149e-06	51.863	0.00056541	0.00056971	0.00017734	1384	6.3416e-06	6.2779e-06	1388.4	376.31	6.1318e-06	6.3928e-06	431.11	143.42	124.38	42.922	6.8701e-06	53.331	191.669	148.138	154.356	90.355	136.148	216.856	90.385	94.273	299.333	265.511	93.697	98.427	99.100	103.021	161.519	102.603	-8191	255	
8245.998	1	1	0	0	0.18203	0.21079	0.20072	0.2931	0.18119	0.23216	0.15545	0.10682	0.029073	0.28168	0.058097	0.28121	0.25621	0.090105	0.093166	0.11495	-1.4729	-2.725	-2.0438	-2.3083	-2.7458	-1.9771	-2.6417	-2.5583	-1.6521	-2.6063	-2.4625	-2.0375	-2.6958	-2.0146	-2.3792	-2.6417	112.310	253.728	115.670	362.061	389.215	336.403	434.477	430.367	140.107	298.530	251.310	326.486	144.045	292.918	228.889	395.887	0.00057031	0.00070589	0.00035173	1370.4	1.8704e-06	1.6369e-05	1368.1	370.32	3.7906e-06	1.0437e-05	419.57	140.5	120.7	41.752	6.2425e-07	52.027	0.00054858	0.00059651	0.00017626	1384.3	6.1609e-06	6.5892e-06	1387.8	375.49	5.9036e-06	6.6007e-06	430.51	142.55	123.68	43.021	6.4918e-06	53.096	180.829	171.498	148.277	89.722	169.868	230.191	89.817	94.444	190.269	157.410	93.855	98.449	99.579	103.132	83.244	102.719	-8191	255	
8246.094	1	1	0	0	0.060598	0.10558	0.04667	0.21392	0.17781	0.10148	0.21756	0.22558	0.057293	0.11074	0.053131	0.31186	0.10362	0.11585	0.2382	0.10138	-1.2229	-2.7083	-2.1875	-1.9062	-2.725	-1.9	-2.525	-2.5583	-1.8646	-2.5708	-2.3438	-1.9229	-2.6604	-1.9604	-2.1104	-2.8146	378.529	91.901	267.190	140.240	262.145	370.424	342.715	424.734	375.302	279.384	416.364	92.171	107.133	272.254	167.457	311.701	0.00049655	0.00034872	0.00013009	1374.5	7.0829e-06	2.5585e-06	1364.8	368.88	7.4029e-06	7.7806e-07	420.02	139.38	121.6	41.739	1.7682e-06	52.083	0.00053223	0.00060515	0.00016682	1382.1	5.9504e-06	6.6588e-06	1381.6	374.37	5.9399e-06	6.7077e-06	428.84	142.24	124.21	43.13	6.4168e-06	53.091	188.610	346.280	134.411	89.913	227.382	144.639	90.017	94.497	205.691	317.808	94.109	98.551	99.202	103.365	300.702	102.412	-8191	255	
8246.190	1	1	0	0	0.11423	0.31957	0.19658	0.24068	0.035666	0.22858	0.26035	0.33179	0.16287	0.20178	0.073829	0.37339	0.1731	0.12743	0.34397	0.11161	-1.2333	-2.3083	-2.2	-2.0875	-2.6333	-1.8375	-2.3563	-2.8438	-1.8188	-2.5583	-2.4625	-1.9875	-2.5458	-2.0625	-2.0021	-2.9021	142.252	187.132	363.515	103.331	380.060	235.347	396.828	404.474	159.669	145.754	119.990	332.257	313.974	163.322	77.819	431.856	0.00049872	0.00050939	8.9233e-05	1374.2	1.0234e-05	4.3509e-06	1366.8	371.09	8.787e-06	5.0176e-06	419.52	140.28	121.33	41.601	3.6351e-06	51.962	0.00055287	0.00061778	0.00016434	1380.2	6.2543e-06	6.829e-06	1381.5	374.41	6.312e-06	6.7925e-06	428.87	142.27	125.62	43.195	6.3486e-06	52.927	192.185	236.978	78.373	89.857	191.262	233.037	89.821	94.383	225.005	420.830	94.215	98.748	99.521	103.433	251.540	102.730	-8191	255	
8246.286	1	1	0	0	0.17313	0.075399	0.30271	0.12431	0.13993	0.13568	0.18657	0.14464	0.12017	0.10303	0.33572	0.2819	0.41926	0.071024	0.061653	0.18886	-1.45	-2.3708	-2.4396	-2.1333	-2.7604	-2.2125	-2.2396	-2.8563	-1.9604	-2.3937	-2.6167	-1.925	-2.7812	-2.2146	-1.7625	-2.8	348.335	244.166	191.210	112.782	224.891	359.894	378.431	403.436	201.891	341.948	248.035	108.730	376.988	310.421	170.183	257.935	0.00049944	0.00027851	2.5636e-05	1373	5.5626e-06	2.8271e-06	1367.3	370.74	1.1153e-05	9.6724e-06	419.48	139.33	122.46	41.891	5.9265e-06	51.723	0.00059553	0.00061971	0.00016587	1379	6.665e-06	6.8577e-06	1379.6	374.7	6.7593e-06	6.6591e-06	428.46	142.06	126.83	43.222	6.2183e-06	52.971	179.121	398.340	405.475	89.996	246.440	324.916	90.013	94.769	201.104	284.330	94.023	98.746	99.640	103.684	304.565	103.007	-8191	255	
8246.405	1	1	0	0	0.29631	0.11223	0.16353	0.2582	0.079114	0.14274	0.27031	0.061796	0.08264	0.043308	0.27547	0.30717	0.089605	0.24948	0.26642	0.24822	-1.4917	-2.2958	-2.6542	-1.9125	-2.5854	-2.1417	-1.8479	-2.9104	-1.875	-2.1312	-2.7604	-1.8458	-2.5292	-2.45	-1.9042	-2.8104	248.622	435.423	131.543	414.285	211.247	428.355	377.638	146.453	195.885	326.606	428.987	434.520	354.020	432.981	266.006	138.334	0.00046632	0.0005481	0.00030739	1375.1	3.3268e-06	7.405e-06	1369.4	369.25	3.8164e-06	3.3289e-06	419.34	139.83	121.43	41.727	5.7824e-06	51.943	0.00062223	0.00060042	0.00016086	1380.6	6.8031e-06	6.6605e-06	1378.5	373.85	6.8511e-06	6.4841e-06	427.14	142.71	126.91	43.039	6.0408e-06	53.156	185.990	337.334	305.782	90.052	241.347	266.602	89.891	94.680	192.330	301.599	94.146	98.613	99.236	103.560	225.108	102.961	-8191	255	
8246.477	1	1	0	0	0.046315	0.086008	0.034013	0.11147	0.16476	0.19389	0.20861	0.36819	0.12434	0.097156	0.11151	0.052478	0.26277	0.12608	0.2162	0.12008	-1.5979	-1.7583	-2.575	-1.7437	-2.3625	-2.3521	-1.8458	-2.9854	-2.0583	-2.0187	-2.6354	-1.8896	-2.4792	-2.475	-1.6896	-2.725	170.312	110.348	109.812	82.791	185.495	142.103	411.023	392.967	86.021	394.695	312.156	431.985	82.300	394.733	177.385	110.241	0.00043277	0.00032176	0.0001401	1370.7	6.017e-06	1.4382e-06	1366.3	371.76	4.6587e-06	4.1399e-06	420.07	139.88	121.18	41.796	2.3902e-06	51.729	0.00063095	0.00059121	0.0001573	1382.1	6.8532e-06	6.5858e-06	1375.3	375.72	6.9422e-06	6.355e-06	426.45	143.44	126.77	43.024	5.9775e-06	53.321	187.803	108.211	342.077	90.172	236.736	173.613	90.180	94.771	230.358	236.272	94.130	98.741	99.636	103.881	219.308	103.109	-8191	255	
8246.573	1	1	0	0	0.15466	0.15858	0.16838	0.42127	0.2128	0.13289	0.10695	0.31673	0.11832	0.21172	0.20961	0.30571	0.31813	0.18227	0.20918	0.22962	-1.5312	-1.9583	-2.6	-2.025	-2.3292	-2.525	-1.8229	-2.55	-2.2771	-1.8979	-2.8667	-2.0375	-2.3333	-2.7438	-1.6958	-2.6792	225.222	232.465	136.323	369.254	259.281	96.526	406.554	383.671	188.188	125.804	417.075	417.657	398.666	362.661	363.432	362.856	0.00040771	0.00045011	5.1386e-05	1374.9	5.8555e-06	7.0663e-06	1364.4	369.55	5.7939e-06	3.4125e-06	422.87	140.24	121.91	42.035	6.8693e-06	51.857	0.00062409	0.0005783	0.00015303	1385.5	6.6891e-06	6.4265e-06	1375.5	376.34	6.766e-06	6.2296e-06	426.7	143.73	126.04	43.007	6.0241e-06	53.501	190.303	95.257	190.741	90.208	315.902	252.950	90.180	94.745	145.050	397.545	94.126	98.699	99.485	103.381	147.624	102.275	-8191	255	
8246.671	1	1	0	0	0.20705	0.13246	0.18148	0.19283	0.2025	0.13867	0.19606	0.31652	0.12667	0.040748	0.31621	0.26587	0.18504	0.24913	0.37203	0.047791	-1.9667	-1.5646	-2.6854	-1.825	-2.1937	-2.4875	-2.0479	-2.5271	-2.4437	-1.7146	-2.9354	-2.0417	-2.075	-2.7438	-1.7104	-2.6042	319.080	384.384	144.093	324.480	434.030	320.103	348.098	415.145	131.567	310.620	425.787	396.399	100.592	87.991	364.372	434.078	0.00030972	0.00029456	0.0001762	1369.8	5.3341e-06	5.1451e-06	1362.2	370.29	8.7224e-06	4.0816e-06	420.65	139.65	121.15	41.882	1.1435e-05	51.833	0.0006041	0.00055963	0.00015637	1387	6.4922e-06	6.2283e-06	1376.8	376.7	6.5695e-06	6.0139e-06	427.44	143.81	125.19	42.782	6.276e-06	53.414	192.664	213.979	160.773	89.977	157.177	414.326	90.089	94.873	188.436	276.031	94.300	98.468	99.751	103.460	172.846	103.168	-8191	255	
8246.790	1	1	0	0	0.24775	0.16939	0.078075	0.24329	0.065672	0.18468	0.20444	0.28488	0.3561	0.17848	0.27834	0.062861	0.2232	0.13784	0.19213	0.24452	-2.1021	-1.7583	-2.5354	-2.1979	-1.9604	-2.65	-2.1208	-2.6021	-2.5146	-1.7354	-2.5229	-2.3187	-1.9417	-2.7604	-1.8396	-2.3812	90.336	346.886	300.051	401.775	371.980	266.792	318.263	429.171	116.145	137.046	418.345	389.274	388.219	388.507	289.418	361.885	0.00039264	0.000598	0.00021543	1374.3	4.4661e-06	3.7137e-06	1368.1	369.46	4.8594e-06	5.2023e-06	422.21	140.15	121.78	41.862	6.8138e-06	51.675	0.00058944	0.00054293	0.00016384	1387.3	6.3045e-06	6.0689e-06	1381.6	376.55	6.4483e-06	5.9052e-06	429.48	143.68	125	42.751	6.6963e-06	53.34	177.252	78.725	135.896	90.226	163.496	119.250	90.338	94.982	214.218	105.959	94.561	98.717	100.005	103.891	232.434	103.142	-8191	255	
8246.886	1	1	0	0	0.15546	0.16021	0.076659	0.049367	0.12067	0.23261	0.096721	0.21728	0.29625	0.064058	0.28087	0.36788	0.064483	0.32435	0.076189	0.25155	-2.1208	-1.5292	-2.5292	-2.3854	-1.7125	-2.725	-2.075	-2.3146	-2.6437	-1.8375	-2.5938	-2.1729	-1.7563	-2.6333	-1.6646	-2.3021	95.186	318.103	158.087	332.178	369.872	80.781	102.649	401.726	242.009	239.100	130.020	393.660	261.327	425.766	321.116	259.387	0.00046171	0.00071103	0.0003421	1372	4.6465e-06	6.9824e-06	1372.2	370.57	4.703e-06	7.4897e-06	421.9	140.23	120.86	41.915	5.5093e-06	51.891	0.00058299	0.00054484	0.0001709	1386.2	6.1548e-06	6.0504e-06	1385.7	376.04	6.3057e-06	6.0028e-06	430.39	143.47	124.24	42.787	6.8502e-06	53.194	187.801	188.450	149.043	90.027	309.074	293.624	90.017	94.977	268.814	274.229	94.284	98.790	99.535	103.721	206.841	103.066	-8191	255	
8246.982	1	1	0	0	0.49867	0.087956	0.038646	0.32297	0.10775	0.095817	0.21729	0.31204	0.11549	0.075308	0.24606	0.2288	0.019764	0.049507	0.18345	0.32264	-2.2021	-1.7437	-2.4625	-2.4688	-1.8563	-2.5938	-2.1917	-2.2333	-2.6208	-1.7667	-2.5896	-2.5042	-1.775	-2.6875	-1.9104	-2.1417	379.498	151.079	208.891	416.306	318.336	271.255	85.239	374.726	405.548	286.338	351.527	90.706	330.732	346.227	187.361	387.475	0.00049927	0.00046747	4.665e-05	1375.8	6.5561e-06	1.1427e-05	1367.1	369.91	5.2189e-06	7.6761e-06	422.01	139.96	121.52	41.732	5.2219e-06	52.033	0.00056665	0.00056234	0.00017278	1385.5	5.9907e-06	6.3344e-06	1385.9	375.15	6.0757e-06	6.3005e-06	430.31	143.06	123.51	42.861	6.7206e-06	53.092	180.190	148.888	124.223	90.155	89.533	198.951	90.203	94.959	230.907	218.639	94.428	98.836	99.500	103.783	126.020	102.976	-8191	255	
8247.078	1	1	0	0	0.24657	0.20714	0.081013	0.32778	0.17521	0.19905	0.27205	0.16597	0.083899	0.12956	0.31017	0.22856	0.11232	0.030919	0.017333	0.20345	-2.2438	-1.8458	-2.325	-2.675	-1.7479	-2.5979	-2.2083	-2.0479	-2.6333	-1.7354	-2.4042	-2.7604	-1.6729	-2.6917	-2.0292	-2.0333	188.308	225.347	371.689	411.728	414.174	229.409	375.384	395.742	335.954	155.552	419.256	410.507	100.736	147.015	149.830	105.226	0.00041714	0.00012563	0.0002253	1361.6	4.6152e-06	3.2038e-06	1366.2	368.18	8.95e-06	5.0949e-06	421.03	139.98	122.03	41.967	7.7649e-06	51.489	0.00054363	0.00059256	0.00016804	1380.9	5.8703e-06	6.5313e-06	1383.4	374.14	5.9673e-06	6.648e-06	429.11	142.78	123.4	43.142	6.5794e-06	52.811	185.189	280.346	352.650	90.375	271.918	279.597	90.207	95.086	242.530	207.432	94.310	99.032	100.014	103.874	185.971	103.182	-8191	255	
8247.175	1	1	0	0	0.10573	0.16762	0.055151	0.42227	0.19385	0.17732	0.28132	0.21571	0.15396	0.13235	0.28422	0.071984	0.066709	0.16324	0.27587	0.26226	-2.4125	-1.8021	-2.1167	-2.4813	-1.6979	-2.375	-2.4917	-2.0187	-2.7	-1.9375	-2.1708	-2.6083	-1.675	-2.4625	-2.3917	-1.8979	225.527	241.708	101.915	387.188	289.634	239.152	431.291	377.570	434.908	105.979	410.538	156.857	390.765	339.470	126.929	352.558	0.00055387	0.0011018	0.00016592	1370.8	1.2239e-05	3.4113e-06	1367.9	371	9.2517e-06	8.891e-06	421.25	140.08	122.24	41.965	8.7711e-06	51.708	0.00054912	0.00061636	0.00016478	1381.4	6.0223e-06	6.746e-06	1382	373.93	6.1486e-06	6.8234e-06	428.27	142.61	124.43	43.223	6.4907e-06	52.823	183.900	170.897	428.061	90.071	257.993	122.771	89.922	94.848	186.582	181.695	94.164	98.651	99.783	103.624	224.486	102.977	-8191	255	
8247.271	1	1	0	0	0.075774	0.13435	0.092894	0.24914	0.09721	0.2284	0.15683	0.16921	0.26569	0.20326	0.21426	0.32461	0.33745	0.25945	0.18162	0.22427	-2.4042	-1.9688	-2.1333	-2.7604	-1.6958	-2.375	-2.4083	-2.0083	-2.6354	-2.0938	-1.8896	-2.8354	-1.8021	-2.3104	-2.4417	-1.9312	89.493	428.968	169.185	418.435	387.429	402.056	424.517	425.425	254.474	262.348	349.587	77.309	426.024	298.653	229.355	161.293	0.00046027	0.00060733	0.00017002	1367.8	1.2956e-05	2.0617e-06	1363	368.25	1.1594e-05	5.1337e-06	418.98	138.31	121.15	41.478	4.2581e-06	51.565	0.00057388	0.00062856	0.00016077	1378.5	6.3448e-06	6.7512e-06	1379.8	373.28	6.4805e-06	6.8096e-06	427.17	142.14	125.6	43.031	6.4193e-06	52.672	173.116	337.272	97.354	90.329	212.468	374.326	90.233	94.840	209.693	233.412	94.561	99.158	99.896	104.226	261.908	103.523	-8191	255	
8247.391	1	1	0	0	0.058726	0.23161	0.19804	0.15591	0.20795	0.10365	0.37473	0.1359	0.23615	0.2969	0.36839	0.10429	0.18707	0.22183	0.06702	0.17291	-2.1854	-2.1125	-1.9792	-2.65	-1.7271	-2.275	-2.7021	-1.9083	-2.4375	-2.3417	-1.8563	-2.775	-1.9125	-2.3167	-2.525	-1.9208	237.167	128.233	217.678	387.464	115.619	395.441	430.833	426.769	258.984	372.040	425.479	407.060	395.375	416.704	294.792	217.882	0.00043236	0.00057328	0.00014786	1363.8	7.888e-06	1.3687e-06	1373.2	369.93	1.7714e-06	2.3805e-07	420.02	139.97	120.91	41.717	8.3269e-06	51.765	0.00060803	0.00062455	0.00016053	1378.8	6.852e-06	6.7818e-06	1382.8	374.34	7.0287e-06	6.9659e-06	428.15	142.8	127.68	43.208	6.6152e-06	53.063	180.632	78.006	108.428	90.448	232.635	212.932	90.036	94.882	261.931	293.360	94.527	98.783	99.703	103.921	234.749	103.073	-8191	255	
8247.486	1	1	0	0	0.19698	0.24327	0.2297	0.25456	0.037748	0.14848	0.42714	0.22912	0.11132	0.15656	0.24747	0.19734	0.18233	0.28319	0.16564	0.14481	-2.1833	-2.2646	-1.7396	-2.9292	-1.8417	-2.1208	-2.8208	-1.7563	-2.3917	-2.225	-1.7313	-2.6792	-2.0187	-2.0646	-2.5354	-1.7896	223.445	411.699	266.002	302.199	119.696	431.534	357.903	329.219	279.111	436.624	401.293	124.026	411.779	291.978	327.627	137.390	0.00048098	0.00073348	0.00017002	1374.7	2.9759e-07	2.4516e-06	1364.6	370.22	3.434e-06	1.3132e-06	422.56	140.62	121.63	41.7	3.1983e-06	51.785	0.00065205	0.00063143	0.00016212	1385.2	7.2458e-06	6.755e-06	1380.2	375.77	7.2074e-06	6.8614e-06	428.16	143.75	128.25	43.099	6.4317e-06	53.381	187.821	176.973	370.898	90.152	137.898	154.914	90.166	94.989	212.531	322.917	94.495	99.019	99.839	103.772	163.704	102.928	-8191	255	
8247.582	1	1	0	0	0.16357	0.2149	0.17419	0.062295	0.12117	0.10014	0.13082	0.29139	0.024537	0.13755	0.085134	0.19537	0.15374	0.11133	0.13967	0.25565	-1.8917	-2.3937	-1.7271	-2.7854	-2.05	-2.025	-2.775	-1.9958	-2.2979	-2.55	-1.825	-2.7333	-2.1604	-2.1333	-2.7021	-1.9646	246.011	392.325	199.197	378.779	89.974	428.410	334.029	413.984	293.363	83.377	266.305	348.986	111.957	425.461	153.416	385.169	0.00039545	0.00040175	1.5265e-05	1371.9	7.7944e-06	6.6453e-06	1360.6	370.35	2.1525e-06	4.336e-06	418.65	140.42	122.2	42.106	6.9585e-06	51.597	0.0006483	0.0006226	0.0001584	1388.3	7.2058e-06	6.6585e-06	1377.7	377.06	7.0598e-06	6.7764e-06	426.22	144	127.98	43.054	6.3174e-06	53.558	179.815	225.794	194.018	90.214	309.702	228.044	90.441	95.146	98.380	297.012	94.466	98.918	99.743	103.963	212.124	102.896	-8191	255	
8247.678	1	1	0	0	0.41195	0.32232	0.16153	0.29089	0.25414	0.054044	0.023993	0.44292	0.17626	0.26427	0.34579	0.066852	0.39643	0.25465	0.16529	0.21613	-1.9646	-2.4813	-1.6146	-2.6042	-1.9958	-1.8708	-2.8167	-2.0938	-2.0833	-2.5563	-1.7062	-2.7354	-2.3	-1.9146	-2.6458	-2.0021	385.283	332.223	190.876	409.119	241.792	304.520	322.115	426.572	280.553	279.640	83.943	342.963	103.862	362.560	409.010	107.692	0.00042988	0.00046642	0.00026927	1373.7	2.2147e-06	6.1327e-06	1373.8	369.94	3.7345e-06	6.4291e-06	422.04	140.42	121.33	41.78	5.8658e-06	51.71	0.00062358	0.00060868	0.0001579	1389.5	6.9132e-06	6.3811e-06	1380.6	377.4	6.7077e-06	6.4561e-06	426.99	144.4	126.38	42.823	6.3334e-06	53.618	178.316	224.152	179.245	90.120	360.407	283.264	90.113	94.890	224.806	207.153	94.358	98.846	99.590	103.762	238.297	102.822	-8191	255	
8247.774	1	1	0	0	0.12244	0.13863	0.19889	0.32003	0.13442	0.16185	0.26891	0.14352	0.054777	0.13311	0.21192	0.24944	0.02084	0.11883	0.17592	0.14909	-1.7479	-2.6083	-1.7812	-2.6667	-2.3563	-1.925	-2.9208	-2.075	-2.1146	-2.6479	-1.9562	-2.4146	-2.4062	-1.8583	-2.6188	-2.225	340.322	397.908	202.639	100.017	399.508	227.417	360.852	378.259	144.777	386.405	116.395	347.390	264.835	424.552	396.084	401.549	0.00046154	8.0706e-05	0.00044921	1364.5	5.9591e-06	4.03e-06	1352.1	366.14	1.3099e-06	6.2138e-06	419.38	139.31	120.19	41.337	4.5944e-06	51.276	0.0005993	0.00057647	0.00016009	1386	6.6869e-06	6.1289e-06	1378.7	376.31	6.4743e-06	6.2077e-06	428.44	143.74	125.55	42.622	6.5859e-06	53.427	183.166	331.542	125.241	90.652	360.658	311.193	90.504	95.118	148.979	121.635	94.725	99.070	100.027	104.201	175.793	103.540	-8191	255	
#DATA ENDS
