BOXY.EXE: ISS Imagent and Oximeter Data Acquisition Program Version 0.80
Ascii Record File

#ACQ INFORMATION
2  Detector Channels 
16  External MUX Channels 
1  Auxiliary Channels 
5000  Waveform (CCF) Frequency (Hz)
1  Waveforms Skipped 
30  Waveforms Averaged 
1  Cycles Averaged 
16  Acquisitions per Waveform 
10.0806  Updata Rate (Hz) 

#FILE INFORMATION
TRUE -- External MUX Channel results are PARSED.
FALSE -- AC DC and Phase are NOT grouped.
TRUE -- Companion Program Settings File CREATED.
FALSE -- AC data not excluded
FALSE -- DC data not excluded
FALSE -- Phase data not excluded
FALSE -- Auxillary Chn. data not excluded
Tab delimiters

#CALIBRATION STATE
TRUE -- Waveform Calibration Values APPLIED.


#AUX CALIBRATION VALUES
Val Type	aux-1	

Term	1.0000e+00	
Factor	0.0000e+00	


#WF CALIBRATION VALUES
A = Detector Channel
Val Type	A-AC1	A-AC2	A-AC3	A-AC4	A-AC5	A-AC6	A-AC7	A-AC8	A-AC9	A-AC10	A-AC11	A-AC12	A-AC13	A-AC14	A-AC15	A-AC16	A-DC1	A-DC2	A-DC3	A-DC4	A-DC5	A-DC6	A-DC7	A-DC8	A-DC9	A-DC10	A-DC11	A-DC12	A-DC13	A-DC14	A-DC15	A-DC16	A-Ph1	A-Ph2	A-Ph3	A-Ph4	A-Ph5	A-Ph6	A-Ph7	A-Ph8	A-Ph9	A-Ph10	A-Ph11	A-Ph12	A-Ph13	A-Ph14	A-Ph15	A-Ph16	

Term	0.00000e+00	0.00000e+00	0.00000e+00	0.00000e+00	0.00000e+00	0.00000e+00	0.00000e+00	0.00000e+00	0.00000e+00	0.00000e+00	0.00000e+00	0.00000e+00	0.00000e+00	0.00000e+00	0.00000e+00	0.00000e+00	0.00000e+00	0.00000e+00	0.00000e+00	0.00000e+00	0.00000e+00	0.00000e+00	0.00000e+00	0.00000e+00	0.00000e+00	0.00000e+00	0.00000e+00	0.00000e+00	0.00000e+00	0.00000e+00	0.00000e+00	0.00000e+00	0.00000e+00	0.00000e+00	0.00000e+00	0.00000e+00	0.00000e+00	0.00000e+00	0.00000e+00	0.00000e+00	0.00000e+00	0.00000e+00	0.00000e+00	0.00000e+00	0.00000e+00	0.00000e+00	0.00000e+00	0.00000e+00	
Factor	1.00000e+00	1.00000e+00	1.00000e+00	1.00000e+00	1.00000e+00	1.00000e+00	1.00000e+00	1.00000e+00	1.00000e+00	1.00000e+00	1.00000e+00	1.00000e+00	1.00000e+00	1.00000e+00	1.00000e+00	1.00000e+00	1.00000e+00	1.00000e+00	1.00000e+00	1.00000e+00	1.00000e+00	1.00000e+00	1.00000e+00	1.00000e+00	1.00000e+00	1.00000e+00	1.00000e+00	1.00000e+00	1.00000e+00	1.00000e+00	1.00000e+00	1.00000e+00	X	X	X	X	X	X	X	X	X	X	X	X	X	X	X	X	

B = Detector Channel
Val Type	B-AC1	B-AC2	B-AC3	B-AC4	B-AC5	B-AC6	B-AC7	B-AC8	B-AC9	B-AC10	B-AC11	B-AC12	B-AC13	B-AC14	B-AC15	B-AC16	B-DC1	B-DC2	B-DC3	B-DC4	B-DC5	B-DC6	B-DC7	B-DC8	B-DC9	B-DC10	B-DC11	B-DC12	B-DC13	B-DC14	B-DC15	B-DC16	B-Ph1	B-Ph2	B-Ph3	B-Ph4	B-Ph5	B-Ph6	B-Ph7	B-Ph8	B-Ph9	B-Ph10	B-Ph11	B-Ph12	B-Ph13	B-Ph14	B-Ph15	B-Ph16	

Term	0.00000e+00	0.00000e+00	0.00000e+00	0.00000e+00	0.00000e+00	0.00000e+00	0.00000e+00	0.00000e+00	0.00000e+00	0.00000e+00	0.00000e+00	0.00000e+00	0.00000e+00	0.00000e+00	0.00000e+00	0.00000e+00	0.00000e+00	0.00000e+00	0.00000e+00	0.00000e+00	0.00000e+00	0.00000e+00	0.00000e+00	0.00000e+00	0.00000e+00	0.00000e+00	0.00000e+00	0.00000e+00	0.00000e+00	0.00000e+00	0.00000e+00	0.00000e+00	-1.31583e+02	-1.21578e+02	-1.40012e+02	-1.81298e+02	-8.87385e+01	-6.29981e+01	-1.57795e+02	-1.62015e+02	-6.94921e+01	-9.60310e+01	-1.75953e+02	-1.70521e+02	-1.80371e+02	-1.76072e+02	-6.81803e+01	-1.48893e+02	
Factor	1.93261e-05	1.42640e-04	3.75110e-05	1.68919e-01	1.12948e-06	1.23653e-06	1.80120e-01	7.03469e-02	1.11070e-06	1.40164e-06	1.16901e-01	3.27342e-02	2.64059e-02	1.04235e-02	1.14977e-06	1.44954e-02	1.13826e-06	1.18118e-06	3.28429e-07	8.21832e-02	1.29226e-08	1.29492e-08	8.20368e-02	3.39068e-02	1.29380e-08	1.29875e-08	5.34765e-02	1.52769e-02	1.27878e-02	5.00872e-03	1.30016e-08	6.72239e-03	X	X	X	X	X	X	X	X	X	X	X	X	X	X	X	X	



#DISTANCE SETTINGS
A = Detector Channel
A-1	A-2	A-3	A-4	A-5	A-6	A-7	A-8	A-9	A-10	A-11	A-12	A-13	A-14	A-15	A-16	

2.5000e+00	3.0000e+00	2.5000e+00	3.0000e+00	2.0000e+00	3.0000e+00	1.5000e+00	3.0000e+00	3.0000e+00	3.0000e+00	3.0000e+00	3.0000e+00	3.0000e+00	3.0000e+00	1.5000e+00	3.0000e+00	

B = Detector Channel
B-1	B-2	B-3	B-4	B-5	B-6	B-7	B-8	B-9	B-10	B-11	B-12	B-13	B-14	B-15	B-16	

1.0000e+01	1.0000e+01	1.0000e+01	1.4400e+00	1.0000e+01	1.0000e+01	1.5100e+00	1.9400e+00	1.0000e+01	1.0000e+01	1.9900e+00	2.4900e+00	2.4100e+00	2.9000e+00	1.0000e+01	2.9800e+00	




#DATA BEGINS
time	group	step	mark	flag	A-AC1	A-AC2	A-AC3	A-AC4	A-AC5	A-AC6	A-AC7	A-AC8	A-AC9	A-AC10	A-AC11	A-AC12	A-AC13	A-AC14	A-AC15	A-AC16	A-DC1	A-DC2	A-DC3	A-DC4	A-DC5	A-DC6	A-DC7	A-DC8	A-DC9	A-DC10	A-DC11	A-DC12	A-DC13	A-DC14	A-DC15	A-DC16	A-Ph1	A-Ph2	A-Ph3	A-Ph4	A-Ph5	A-Ph6	A-Ph7	A-Ph8	A-Ph9	A-Ph10	A-Ph11	A-Ph12	A-Ph13	A-Ph14	A-Ph15	A-Ph16	B-AC1	B-AC2	B-AC3	B-AC4	B-AC5	B-AC6	B-AC7	B-AC8	B-AC9	B-AC10	B-AC11	B-AC12	B-AC13	B-AC14	B-AC15	B-AC16	B-DC1	B-DC2	B-DC3	B-DC4	B-DC5	B-DC6	B-DC7	B-DC8	B-DC9	B-DC10	B-DC11	B-DC12	B-DC13	B-DC14	B-DC15	B-DC16	B-Ph1	B-Ph2	B-Ph3	B-Ph4	B-Ph5	B-Ph6	B-Ph7	B-Ph8	B-Ph9	B-Ph10	B-Ph11	B-Ph12	B-Ph13	B-Ph14	B-Ph15	B-Ph16	aux-1	digaux	

975.400	1	1	0	768	0.15802	0.27221	0.17665	0.19913	0.15955	0.25977	0.29811	0.29763	0.19344	0.14276	0.33437	0.2249	0.12063	0.21597	0.059302	0.15802	-0.51458	-1.7	-0.94583	-1.2625	-1.8729	-0.65625	-1.7167	-1.6354	-0.69167	-1.6187	-0.99375	-0.89792	-1.8042	-0.99583	-1.3854	-1.6688	388.890	249.965	138.942	333.209	408.511	143.289	347.456	402.953	330.304	71.949	81.443	346.770	105.181	108.013	109.235	347.111	0.0004211	0.0010042	7.8961e-05	1354	7.3785e-06	6.2107e-06	1347.4	361.67	2.5919e-06	7.0724e-06	415.24	138.04	120.17	41.275	4.3297e-06	51.205	0.00051735	0.00051242	0.00014275	1365	5.6379e-06	5.5725e-06	1361.1	366.74	5.6668e-06	5.5768e-06	420.36	140.86	122.35	42.155	5.5572e-06	52.326	165.192	129.912	398.799	70.477	206.332	253.984	69.872	74.805	150.060	407.019	74.526	79.046	79.392	84.594	287.599	83.683	-8191	255	
975.497	1	1	0	0	0.042854	0.20858	0.0079339	0.13638	0.22164	0.17629	0.34337	0.15102	0.18999	0.1454	0.1535	0.055006	0.37288	0.25776	0.041332	0.19865	-0.35208	-1.6833	-1.1646	-1.0479	-1.7	-0.83958	-1.3146	-1.6229	-0.95625	-1.5104	-1.4792	-0.90208	-1.8438	-1.1437	-1.0729	-1.7333	362.149	273.015	366.848	363.584	201.102	406.829	286.642	97.392	60.970	109.931	73.939	265.051	68.516	166.054	133.357	242.042	0.00046808	0.00025399	0.00012113	1352	4.1022e-06	6.2155e-06	1349.9	361.39	5.1821e-06	9.5088e-06	414.73	138.06	120.73	41.308	4.4073e-06	51.16	0.00050683	0.0004996	0.00013982	1361.3	5.4757e-06	5.4265e-06	1360	366.25	5.4711e-06	5.4552e-06	419.34	140.82	122.35	42.177	5.4544e-06	52.192	154.410	325.579	143.009	70.648	183.319	189.796	70.683	75.457	194.885	187.066	75.323	79.665	80.181	84.371	165.744	83.758	-8191	255	
975.593	1	1	0	0	0.10176	0.15252	0.23714	0.19192	0.16131	0.28451	0.31822	0.04168	0.12136	0.163	0.31382	0.40781	0.075745	0.12331	0.19676	0.11716	-0.24375	-1.5917	-1.2792	-0.91667	-1.8229	-0.89375	-1.1917	-2.0417	-0.88125	-1.4771	-1.3354	-0.99583	-1.6979	-1.225	-0.9625	-1.9375	407.309	57.707	135.065	399.656	323.920	145.239	353.441	171.459	172.408	120.470	389.721	369.895	307.804	356.215	367.553	352.229	0.00042311	0.00025305	0.00025673	1349.2	3.3878e-06	5.8159e-06	1350.5	361.81	4.4453e-06	5.1967e-06	415.68	137.91	119.97	41.352	6.0687e-06	51.312	0.00049866	0.00049133	0.00013864	1359.2	5.4732e-06	5.3697e-06	1360	366.59	5.4184e-06	5.4361e-06	419.58	140.69	121.96	42.105	5.4523e-06	52.288	157.014	142.804	124.802	70.920	131.050	267.708	70.535	75.432	252.521	175.866	75.185	79.416	79.371	83.606	244.155	83.137	-8191	255	
975.689	1	1	0	0	0.058887	0.23659	0.20266	0.047378	0.2109	0.31274	0.2861	0.3688	0.1056	0.15314	0.10398	0.069907	0.27606	0.32184	0.31801	0.080528	-0.46042	-1.1875	-1.5229	-1.0125	-1.6229	-1.0583	-1.1167	-1.8146	-0.7625	-1.3229	-1.7521	-0.86458	-1.8	-1.1646	-0.60625	-1.7875	163.566	259.987	133.184	143.778	217.284	364.726	273.791	363.002	309.029	208.294	362.997	297.519	98.951	67.147	288.860	163.362	0.000473	0.00094037	0.00014851	1348.5	7.4908e-06	1.7137e-06	1345.1	361.9	9.8368e-06	1.0844e-05	413.76	138.09	120.48	41.406	7.61e-06	51.427	0.00049048	0.00048461	0.00013704	1359.4	5.3783e-06	5.2894e-06	1358.6	366.49	5.3146e-06	5.3578e-06	419.01	140.6	122.07	42.194	5.4673e-06	52.307	161.187	165.583	112.352	70.272	140.930	192.375	70.379	75.071	253.455	247.709	74.311	78.735	79.507	84.035	204.383	83.317	-8191	255	
975.785	1	1	0	0	0.20417	0.22869	0.30998	0.45991	0.055926	0.28747	0.20621	0.2751	0.052198	0.078184	0.28106	0.32292	0.31878	0.17706	0.24727	0.31333	-0.36667	-1.0354	-1.5208	-0.95417	-1.5938	-1.3521	-1.0875	-1.9188	-0.88958	-1.2083	-1.8292	-1.0042	-1.3875	-1.3625	-0.93542	-1.9979	282.235	355.295	203.842	392.687	406.062	237.663	348.708	394.072	316.989	256.553	406.935	312.568	72.913	223.301	340.033	358.244	0.00048853	0.00020425	0.00034668	1345.8	6.4554e-06	1.0403e-06	1345.9	362.36	2.1686e-06	8.9671e-06	414.66	138.07	120.27	41.26	3.0499e-06	51.178	0.0004928	0.00049102	0.00013724	1359.1	5.3541e-06	5.3764e-06	1358.4	365.9	5.3362e-06	5.3555e-06	419.11	140.6	121.93	42.074	5.4113e-06	52.13	146.900	150.072	127.663	70.578	213.577	227.565	69.941	74.853	206.398	152.797	74.223	78.976	79.918	84.380	319.113	83.797	-8191	255	
975.881	1	1	0	0	0.13385	0.41439	0.13417	0.40604	0.14226	0.24584	0.48778	0.14838	0.13309	0.066056	0.15632	0.24431	0.30149	0.38852	0.15268	0.14052	-0.74583	-0.86458	-1.5187	-1.0354	-1.5187	-1.3958	-0.99583	-1.9229	-1.1604	-1.0396	-2.0062	-0.93125	-1.6146	-1.6104	-0.8375	-1.9062	158.050	236.899	174.639	367.393	254.441	215.942	328.760	338.395	173.351	196.883	126.133	381.610	76.472	405.836	202.044	371.417	0.00043612	0.00044202	8.3237e-05	1350.7	7.5049e-06	6.7834e-06	1347.1	362.08	7.7241e-06	6.3916e-06	414.09	138.16	119.8	41.253	4.5132e-06	51.22	0.00048548	0.00048743	0.00013561	1359	5.2675e-06	5.3055e-06	1358.9	365.53	5.2915e-06	5.3524e-06	418.77	140.32	121.94	42.053	5.3832e-06	52.078	161.983	87.441	228.984	71.513	208.902	206.612	71.111	75.880	208.668	131.034	74.785	79.222	79.926	84.735	195.591	83.629	-8191	255	
976.002	1	1	0	0	0.27338	0.22731	0.4505	0.36216	0.17668	0.17671	0.31734	0.17993	0.27229	0.32415	0.39985	0.18017	0.12064	0.10854	0.1779	0.079602	-0.83542	-0.92292	-1.7375	-1.0417	-1.5396	-1.5167	-0.99583	-1.7229	-1.0187	-0.92083	-2.0187	-0.9875	-1.5292	-1.7083	-0.79167	-1.5979	101.198	372.810	377.620	391.546	150.873	380.771	334.771	114.744	358.778	298.102	102.929	338.882	414.508	407.444	390.473	238.285	0.00039974	0.00074075	6.3657e-05	1345.2	7.8183e-06	2.0726e-06	1348.5	361.73	4.3927e-06	2.9861e-06	415.57	138.25	119.74	41.178	1.6192e-06	51.263	0.00048572	0.00048973	0.00013647	1355.9	5.3247e-06	5.3345e-06	1355.4	365.57	5.2361e-06	5.3236e-06	418.39	140.18	121.74	42.009	5.2917e-06	51.99	142.761	183.473	202.928	70.257	185.988	311.771	69.946	74.559	214.378	185.332	74.045	78.505	79.114	83.403	244.949	82.653	-8191	255	
976.096	1	1	0	0	0.082417	0.044246	0.071451	0.13691	0.17709	0.095274	0.077421	0.098242	0.30972	0.16589	0.27205	0.28046	0.14452	0.27679	0.18148	0.23679	-0.97917	-0.71875	-1.7333	-1.2	-1.1083	-1.6083	-1.0896	-1.5667	-1.0479	-0.81042	-1.7583	-1.0438	-1.1542	-1.7542	-0.65208	-1.5063	237.692	223.300	257.160	340.710	79.536	133.867	386.076	238.654	342.689	357.926	325.940	338.299	388.616	361.275	165.091	384.950	0.00036969	0.00013197	0.00014027	1347.5	4.5223e-06	8.0047e-06	1346.7	361.56	3.6248e-06	3.3399e-06	414.52	137.53	120.08	41.104	4.0122e-06	51.162	0.00047994	0.00048132	0.00013354	1355.4	5.2431e-06	5.2611e-06	1354.9	365.14	5.2512e-06	5.2589e-06	417.67	140.04	121.5	41.948	5.3102e-06	52.044	167.860	200.312	193.430	69.955	147.352	170.385	69.883	74.698	216.217	260.458	73.934	78.320	78.982	83.426	170.579	82.965	-8191	255	
976.192	1	1	0	0	0.20674	0.12002	0.03908	0.41686	0.039719	0.25587	0.30297	0.16928	0.072443	0.097169	0.12228	0.1995	0.22765	0.015332	0.23078	0.17954	-0.88542	-0.60625	-1.7833	-1.1458	-0.99792	-1.6333	-1.1208	-1.4792	-1.525	-0.725	-1.8563	-1.3333	-0.90208	-1.9417	-0.79375	-1.4479	183.093	168.710	238.206	366.671	255.636	130.995	369.973	78.593	369.041	316.969	399.224	376.439	382.698	309.338	355.519	74.421	0.00049671	5.8904e-05	0.00022708	1346.3	4.4852e-06	8.0225e-06	1341.3	361.38	6.4214e-06	1.839e-06	412.22	136.99	119.62	41.08	4.1411e-06	51.068	0.00047717	0.00048513	0.0001325	1355.5	5.2829e-06	5.2947e-06	1354.3	365.08	5.2319e-06	5.3021e-06	417.24	139.83	121.66	41.906	5.2304e-06	51.95	158.206	303.638	170.396	69.805	145.738	221.337	69.836	74.781	200.517	360.398	74.004	78.462	79.017	83.240	230.259	82.543	-8191	255	
976.289	1	1	0	0	0.24807	0.1341	0.27205	0.021656	0.23429	0.22436	0.36397	0.22033	0.026293	0.23783	0.40816	0.18017	0.3495	0.16674	0.1096	0.15882	-1.2437	-0.8625	-1.7104	-1.3708	-1.0042	-1.7812	-1.0854	-1.2667	-1.6208	-0.75417	-1.85	-1.4625	-0.83333	-1.8917	-1.1146	-1.2229	336.186	130.950	158.293	355.634	407.868	353.387	366.566	318.373	99.564	307.501	115.266	281.035	60.480	233.536	143.911	411.992	0.00042234	0.00048465	0.00015691	1345.9	2.21e-06	3.4479e-06	1339.5	360.05	4.1606e-06	5.863e-06	415.21	137.79	119.37	40.872	7.0629e-06	50.864	0.00048254	0.00048161	0.00013099	1355.3	5.2632e-06	5.2267e-06	1353	364.48	5.2383e-06	5.2215e-06	417.36	139.92	121.38	41.832	5.1886e-06	51.847	154.081	166.970	64.385	69.903	256.396	149.929	69.766	74.621	182.126	164.463	73.849	78.815	78.971	83.496	186.457	82.864	-8191	255	
976.385	1	1	0	0	0.21526	0.11928	0.1871	0.29388	0.12685	0.26152	0.19954	0.23225	0.31281	0.09511	0.40226	0.22397	0.20086	0.12985	0.23556	0.079201	-1.4562	-0.73333	-1.4604	-1.3312	-0.9375	-1.6625	-1.2375	-1.0375	-1.5521	-0.93542	-1.4021	-1.5896	-1.0167	-1.8229	-1.1625	-1.0958	168.907	276.331	328.489	63.245	351.170	322.765	404.844	296.446	59.020	401.395	345.838	71.125	350.263	79.175	95.926	235.097	0.00040877	0.00078518	3.442e-05	1342.2	3.1436e-07	2.2218e-06	1339.4	360.37	2.193e-06	5.0571e-06	414.69	137.11	119.98	41.166	2.7551e-06	50.922	0.00047622	0.00047382	0.00013041	1354.3	5.2371e-06	5.145e-06	1351.2	364.32	5.1864e-06	5.106e-06	417.02	139.62	121.45	41.867	5.0904e-06	51.9	154.359	149.083	304.546	69.929	290.150	365.744	69.636	74.681	296.674	169.841	74.250	78.548	79.208	83.654	228.587	82.764	-8191	255	
976.481	1	1	0	0	0.029589	0.16251	0.20098	0.56811	0.15643	0.15987	0.35491	0.23136	0.11642	0.17486	0.13044	0.3559	0.32633	0.1228	0.25519	0.40651	-1.4292	-0.66875	-1.3854	-1.7687	-0.65833	-1.6396	-1.2563	-1.1833	-1.8312	-0.88125	-1.3583	-1.625	-0.57917	-1.925	-1.1667	-0.94583	415.629	261.947	291.825	379.970	320.938	140.220	372.865	292.777	397.561	130.531	220.934	380.563	398.881	299.626	327.727	296.711	0.00042288	0.00029319	0.00012475	1346.2	3.4741e-06	2.3815e-06	1346.2	362.1	2.9485e-06	9.0085e-06	412.72	137.63	119.72	41.157	3.5944e-06	50.998	0.00047019	0.00046159	0.00012857	1355	5.1634e-06	5.0673e-06	1353.1	364.57	5.1378e-06	5.0593e-06	416.29	139.79	121.3	41.863	5.1507e-06	51.886	146.960	214.452	127.658	69.942	189.948	258.700	69.814	74.717	232.848	151.828	74.305	78.437	79.246	83.749	256.279	82.836	-8191	255	
976.601	1	1	0	0	0.19861	0.23505	0.12979	0.50823	0.22218	0.31814	0.36067	0.024423	0.15192	0.18587	0.088509	0.11201	0.13353	0.13849	0.17866	0.19401	-1.3479	-0.77708	-1.3312	-1.875	-1.0562	-1.5625	-1.4479	-0.96458	-1.7521	-0.98958	-1.0396	-1.7979	-0.8375	-1.6417	-1.3937	-0.875	102.108	349.981	371.808	393.373	135.003	171.745	349.300	345.766	159.050	77.540	266.946	153.803	187.942	108.730	111.632	345.302	0.00045246	0.00033167	4.2043e-05	1348.2	6.9126e-06	5.1064e-06	1345	360.36	3.5706e-06	7.9784e-06	413.63	137.33	119.95	41.232	7.1495e-06	51.179	0.00047126	0.0004624	0.00012889	1356.3	5.1762e-06	5.026e-06	1353	364.48	5.0842e-06	5.0862e-06	416.85	139.64	121.43	41.891	5.1645e-06	51.995	152.817	178.504	218.279	69.833	177.930	227.126	69.811	74.591	219.978	226.227	74.327	78.557	79.187	83.783	211.406	82.760	-8191	255	
976.698	1	1	0	0	0.2122	0.24739	0.084513	0.13541	0.17116	0.20382	0.095776	0.21009	0.1036	0.038223	0.23952	0.089368	0.045228	0.12955	0.18145	0.23805	-1.275	-1.0292	-1.1854	-1.7792	-0.94792	-1.2167	-1.8708	-0.94583	-1.6667	-1.1938	-1.0917	-1.8417	-0.90625	-1.4854	-1.5042	-0.85417	215.830	81.713	253.145	387.877	286.101	250.658	330.141	341.752	220.990	68.369	171.693	318.980	261.593	246.492	404.324	337.398	0.00041228	0.00055618	2.922e-05	1344.8	6.1992e-06	1.6412e-06	1339.1	360.34	4.0066e-06	5.8923e-06	414.33	137.37	119.26	41.179	7.6492e-06	50.689	0.00047092	0.00047117	0.00013139	1354.4	5.1806e-06	5.1676e-06	1351.9	364.5	5.1693e-06	5.1508e-06	417.32	139.72	121.11	41.807	5.133e-06	51.807	158.306	164.650	410.702	70.135	172.702	166.838	69.866	74.754	194.346	235.233	74.272	78.558	79.045	83.508	199.503	82.608	-8191	255	
976.794	1	1	0	0	0.24452	0.14028	0.11755	0.32474	0.11366	0.27713	0.43186	0.21998	0.11949	0.17593	0.17866	0.10712	0.16351	0.18952	0.16631	0.25062	-1.375	-1.0083	-0.99583	-1.9854	-0.68125	-1.3521	-1.4937	-0.95	-1.6187	-1.3604	-0.97083	-2.0167	-1.0292	-1.275	-1.5146	-0.67083	115.748	342.102	178.609	363.686	227.369	262.333	314.272	339.472	198.904	395.358	415.852	392.207	382.649	191.841	372.112	332.834	0.00036431	0.0011731	4.4688e-05	1341.7	8.3725e-06	4.392e-06	1340.3	360.28	1.9213e-06	6.5139e-06	413.82	137.32	119.28	41.195	6.2758e-06	50.817	0.0004578	0.00046477	0.00012854	1352.1	5.0033e-06	4.9514e-06	1351.1	363.71	4.9983e-06	5.0053e-06	416.21	139.35	121.03	41.828	5.0921e-06	51.776	166.415	170.448	359.398	70.090	181.280	210.956	69.909	74.706	132.129	179.730	74.180	78.656	79.052	83.943	199.699	82.615	-8191	255	
976.890	1	1	0	0	0.16789	0.26153	0.1952	0.25993	0.17144	0.29807	0.19087	0.16343	0.20048	0.26274	0.2051	0.26721	0.29032	0.17662	0.10726	0.34739	-1.2708	-1.275	-1.0104	-1.9542	-1.0708	-1.2646	-1.7812	-1.0063	-1.5	-1.4896	-0.91458	-1.7833	-1.2167	-1.4146	-1.7792	-0.85625	225.378	286.452	280.973	365.601	139.752	386.261	404.154	371.414	197.730	110.051	81.015	195.791	281.581	100.701	394.563	360.478	0.00043876	0.00068617	0.00016664	1341.8	5.4252e-06	4.13e-06	1339.2	359.58	8.072e-06	3.9513e-06	413.11	137.22	118.96	41.248	7.0484e-06	51.035	0.00045943	0.00046077	0.00012808	1352.1	5.0878e-06	5.0888e-06	1351.1	363.73	5.0331e-06	5.1245e-06	416.56	139.56	121.02	41.858	5.2794e-06	51.865	150.675	117.139	116.020	69.953	182.973	211.392	69.796	74.821	207.261	188.815	74.155	78.720	78.923	83.660	203.884	82.833	-8191	255	
976.962	1	1	0	0	0.086772	0.03878	0.099039	0.3074	0.22486	0.10326	0.37021	0.12712	0.07631	0.11423	0.16986	0.11065	0.15365	0.35049	0.14401	0.18836	-1.2083	-1.475	-0.82708	-1.9729	-0.95625	-0.95208	-1.8937	-0.70625	-1.2375	-1.5542	-0.98125	-1.625	-1.1083	-0.96667	-1.7208	-0.89583	282.228	332.378	97.033	368.260	122.098	354.017	354.731	367.845	231.436	116.525	350.383	111.472	322.008	406.683	200.118	382.599	0.00043025	0.00074311	0.00012588	1343.1	4.128e-06	3.6593e-06	1338.8	359.73	3.7048e-06	6.613e-06	412.12	137.41	119.85	40.988	2.1815e-06	50.714	0.00047451	0.00047653	0.00013376	1354.1	5.2001e-06	5.2333e-06	1351.7	363.62	5.2021e-06	5.2457e-06	415.99	139.78	121.29	41.853	5.2342e-06	51.802	156.058	153.738	106.948	70.169	218.887	245.734	69.859	74.820	247.443	143.959	74.354	78.927	79.147	83.793	291.100	83.011	-8191	255	
977.080	1	1	0	0	0.04672	0.14661	0.023218	0.20817	0.28083	0.24047	0.27531	0.22729	0.10148	0.097809	0.04162	0.10259	0.086444	0.10387	0.19508	0.10171	-0.80625	-1.7333	-0.6	-1.7979	-1.3625	-0.96042	-1.875	-1.0646	-1.1229	-1.7958	-0.87083	-1.6187	-1.3958	-0.74167	-1.7917	-1.2667	273.239	151.122	83.201	355.080	211.864	324.882	366.627	390.010	288.083	197.547	411.163	306.755	60.943	336.438	137.137	319.694	0.00054549	0.00088579	4.443e-05	1341.6	7.482e-06	3.8038e-06	1342.7	358.33	5.842e-06	3.9178e-06	412.88	136.76	119.56	41.031	3.7272e-06	50.843	0.00047531	0.00047029	0.00013245	1353	5.139e-06	5.153e-06	1351.7	362.58	5.076e-06	5.0862e-06	415.59	139.55	121.06	41.784	5.0693e-06	51.751	159.313	134.273	125.564	70.056	190.040	245.906	70.046	74.832	205.246	194.159	74.248	78.647	79.202	83.990	195.793	83.191	-8191	255	
977.177	1	1	0	0	0.12763	0.20537	0.13291	0.45789	0.17518	0.39507	0.25128	0.053434	0.15954	0.18572	0.39372	0.15509	0.042785	0.08614	0.14843	0.25787	-0.76875	-1.6542	-0.7625	-1.6229	-1.4104	-0.86458	-1.8208	-1.0021	-0.98125	-1.6917	-0.71667	-1.4229	-1.5208	-0.77708	-1.6604	-1.1979	250.746	89.641	87.788	359.044	279.736	411.900	405.155	274.745	334.064	353.490	300.462	393.598	392.239	96.499	212.288	334.081	0.00049216	0.00060146	0.00018219	1343.4	2.1606e-06	2.7157e-06	1346	359.69	1.2128e-06	2.8702e-06	413.67	137.62	119.01	41.206	3.6773e-06	51.139	0.00046161	0.00046524	0.00012788	1353.8	5.0301e-06	5.113e-06	1354.6	363.61	5.139e-06	5.1987e-06	416.02	139.73	121.19	41.947	5.2107e-06	51.926	167.869	131.331	134.941	70.254	77.477	237.452	70.163	75.142	220.296	184.329	74.269	78.696	79.354	84.046	188.362	82.989	-8191	255	
977.273	1	1	0	0	0.10148	0.10941	0.30266	0.25441	0.18665	0.11319	0.11747	0.18165	0.18924	0.063979	0.31993	0.077144	0.059169	0.16757	0.15684	0.11713	-0.59583	-1.4312	-0.70208	-1.6167	-1.5438	-0.61667	-1.8271	-1.2125	-0.87083	-1.7563	-0.81875	-1.0562	-1.6875	-0.93125	-1.6917	-1.4333	347.011	334.337	284.079	355.836	67.422	262.808	389.553	306.896	222.089	238.367	315.916	237.316	351.234	360.048	184.954	188.699	0.00038696	0.00077086	0.00012955	1341.7	8.0267e-06	3.4437e-06	1345	361.06	2.7376e-06	7.905e-06	412.86	136.87	120.01	41.28	7.2668e-06	51.024	0.00048017	0.00047895	0.00013195	1354.1	5.2485e-06	5.2375e-06	1352.5	364.21	5.2188e-06	5.2409e-06	416.16	139.71	121.47	41.871	5.1957e-06	51.928	159.612	215.663	120.757	70.449	231.021	281.758	70.282	75.085	215.150	175.886	74.678	79.060	79.316	83.974	191.338	83.032	-8191	255	
977.369	1	1	0	0	0.18202	0.077419	0.26355	0.15433	0.29275	0.15559	0.36598	0.20635	0.22438	0.081781	0.33484	0.37737	0.097648	0.14381	0.13315	0.25328	-0.52917	-1.6688	-0.89167	-1.3792	-1.7583	-0.69792	-1.8083	-1.4896	-0.91667	-1.7542	-1.0854	-1.25	-1.8604	-0.92708	-1.4958	-1.5562	77.087	133.600	312.882	64.020	135.274	307.308	324.487	412.861	117.944	258.173	114.547	335.314	90.344	368.135	371.462	383.194	0.00039565	0.00027456	9.8835e-05	1345.2	5.6267e-06	6.7064e-06	1342.3	359.61	6.126e-06	7.2555e-06	413.68	137.44	119.65	41.08	5.2442e-06	51.223	0.00047885	0.00047465	0.0001304	1354.3	5.2346e-06	5.1978e-06	1352.7	363.51	5.2498e-06	5.1373e-06	415.94	139.76	121.33	41.861	5.0966e-06	51.938	168.086	120.608	177.857	70.136	223.119	214.868	70.187	75.040	220.691	228.792	74.560	78.735	79.557	83.937	195.109	83.135	-8191	255	
977.490	1	1	0	0	0.085661	0.23865	0.22056	0.18888	0.088926	0.19796	0.28634	0.3167	0.1425	0.056206	0.17541	0.25703	0.33785	0.25302	0.22318	0.30991	-0.55208	-1.6	-1.1562	-1.0625	-1.7188	-1.0729	-1.6688	-1.6333	-0.83958	-1.6604	-1.3625	-0.89792	-1.8917	-0.91875	-1.2771	-1.6458	244.851	300.915	159.899	409.853	133.241	346.826	363.694	313.357	189.977	145.819	328.614	66.416	403.819	188.505	409.005	78.173	0.00036577	0.00060627	0.00011047	1343.4	4.8129e-06	2.4617e-06	1343.7	360.01	2.515e-06	4.6872e-06	411.69	137.37	118.91	41.073	6.0688e-06	50.974	0.00047156	0.00046445	0.00012867	1353.3	5.1416e-06	5.0649e-06	1352.2	363.53	5.122e-06	5.0465e-06	415.23	139.58	121.07	41.743	5.0645e-06	51.843	154.953	160.053	164.238	70.380	192.145	204.982	70.226	75.101	197.694	232.234	74.292	79.100	79.242	83.491	242.761	82.895	-8191	255	
977.561	1	1	0	0	0.21527	0.10708	0.10018	0.13246	0.094647	0.23389	0.25728	0.090907	0.43934	0.27649	0.23842	0.20886	0.11293	0.13724	0.12946	0.16172	-0.325	-1.6979	-1.1708	-1.0854	-1.6271	-0.95208	-1.4917	-1.6958	-0.73333	-1.6792	-1.2271	-0.92083	-1.8896	-1.0833	-1.2333	-1.7417	276.462	316.377	240.073	336.884	297.120	364.092	290.761	367.852	101.049	115.878	357.059	357.688	127.019	413.749	225.332	209.079	0.00043316	0.00062229	0.00011829	1341.7	6.0342e-06	5.6775e-07	1345	359.57	9.5148e-07	3.3762e-06	413.55	138.01	119.57	41.154	6.7475e-07	50.965	0.00046796	0.0004567	0.00012669	1353.6	5.0042e-06	4.9213e-06	1352.5	363.11	5.0111e-06	4.9411e-06	415.61	139.67	121.22	41.793	5.0092e-06	51.86	157.030	141.122	140.669	70.287	149.839	173.953	70.072	74.842	212.853	179.106	74.202	78.830	79.440	83.636	199.077	82.888	-8191	255	
977.682	1	1	0	0	0.24559	0.34776	0.31059	0.18411	0.13099	0.26932	0.32111	0.25443	0.074377	0.30744	0.25695	0.091965	0.23193	0.10583	0.20187	0.14532	-0.38542	-1.5292	-1.2188	-1.0292	-1.7708	-0.98542	-1.3083	-1.6917	-0.82708	-1.4292	-1.6167	-0.81667	-1.9312	-1.1583	-0.89583	-1.8604	105.231	408.007	231.454	119.834	412.119	330.050	344.436	244.316	392.946	208.829	318.940	237.475	239.565	324.671	370.437	294.556	0.00037789	0.00072997	0.00011985	1343.7	8.439e-06	4.4065e-06	1348.6	360.27	6.1836e-06	8.8239e-06	413.15	137.63	119.56	41.013	6.8324e-06	51.35	0.00045854	0.00045586	0.00012715	1353.4	5.052e-06	5.0104e-06	1355.5	364.03	5.1066e-06	5.0733e-06	416.09	139.7	121.43	41.784	5.217e-06	52.056	153.570	168.049	156.816	70.292	156.464	192.899	70.076	74.906	177.027	205.304	73.895	78.763	79.233	83.859	217.839	83.332	-8191	255	
977.778	1	1	0	0	0.060983	0.23311	0.12631	0.34606	0.084617	0.11985	0.23749	0.27706	0.079081	0.20912	0.097827	0.10428	0.30193	0.23709	0.10024	0.041981	-0.425	-1.3771	-1.4646	-0.88333	-1.6396	-0.91458	-1.2313	-1.9396	-0.775	-1.3521	-1.7313	-0.90625	-1.7708	-1.2521	-0.82292	-1.9021	291.166	370.604	119.750	386.607	363.168	105.129	398.578	403.659	329.396	372.300	378.460	291.298	373.920	371.244	121.324	398.299	0.00042589	0.0005973	5.9278e-05	1341.3	8.395e-06	4.9534e-06	1346.4	360.5	3.1634e-06	4.7409e-06	412.75	137.45	119.71	40.96	4.4412e-06	50.822	0.00047272	0.00047136	0.0001319	1353.2	5.1876e-06	5.1567e-06	1354	364.28	5.1587e-06	5.1965e-06	416.63	139.84	121.3	41.778	5.1824e-06	51.928	164.655	174.016	219.157	70.196	190.819	206.217	70.210	74.932	240.090	202.990	74.259	78.917	79.350	83.736	148.773	83.191	-8191	255	
977.874	1	1	0	0	0.26278	0.21102	0.03234	0.18791	0.17594	0.20677	0.1256	0.13168	0.075735	0.098106	0.17119	0.084803	0.11076	0.3491	0.11445	0.15318	-0.58542	-1.3167	-1.6979	-0.80625	-1.6833	-1.2563	-1.0833	-2	-0.88333	-1.225	-1.7917	-0.82083	-1.6896	-1.4417	-0.79375	-1.9875	280.564	225.423	382.798	72.169	335.334	119.578	383.908	398.554	206.348	201.993	331.754	306.969	304.406	72.082	392.154	367.674	0.00047363	0.00090961	0.00014744	1346.8	1.2607e-06	2.5446e-06	1343.1	359.82	4.2142e-06	2.9539e-06	412.82	137.25	119.71	41.108	2.7746e-06	51.012	0.00047192	0.00046801	0.00012941	1352.8	5.0894e-06	5.0699e-06	1353.1	364.01	5.05e-06	5.0767e-06	416.13	139.55	121.34	41.806	5.1195e-06	51.822	162.540	171.079	160.790	70.149	131.878	227.726	70.120	74.932	218.067	362.121	74.208	78.702	79.178	83.767	195.352	83.108	-8191	255	
977.970	1	1	0	0	0.37469	0.32492	0.22272	0.49778	0.26109	0.15342	0.16056	0.28368	0.11186	0.10779	0.10422	0.32102	0.1057	0.090626	0.32688	0.24102	-0.78333	-1.0167	-1.6583	-1.1229	-1.5521	-1.5125	-0.97708	-1.8354	-0.94792	-1.0042	-1.7188	-0.93125	-1.2687	-1.4937	-0.58958	-1.9771	268.141	369.174	76.673	379.929	319.205	390.012	311.840	312.480	65.420	164.093	254.463	368.015	262.293	166.748	271.565	389.346	0.00046617	0.00062212	0.00015495	1342.5	7.2869e-06	6.2697e-06	1345.2	360.04	4.7909e-06	6.0805e-06	413.52	137.29	119.84	41.237	3.1987e-06	51.188	0.00045575	0.00045674	0.0001281	1353.1	4.9851e-06	4.9877e-06	1351.9	363.61	5.0004e-06	5.0631e-06	416.03	139.48	121.22	41.836	5.097e-06	51.89	157.002	102.645	205.241	70.193	191.337	195.913	70.145	74.944	213.781	182.746	74.206	78.800	79.639	84.049	197.711	82.977	-8191	255	
978.089	1	1	0	0	0.077977	0.16212	0.14183	0.15342	0.15475	0.22104	0.17742	0.16919	0.27413	0.16652	0.17101	0.19136	0.11685	0.041395	0.2099	0.17884	-0.79375	-1.0729	-1.5625	-0.82708	-1.1979	-1.6292	-0.95625	-1.6625	-1.2042	-0.98125	-1.8312	-1.1667	-1.2938	-1.7229	-0.83542	-1.6146	87.131	200.697	275.032	373.784	111.205	270.609	406.970	383.309	299.730	249.841	230.306	405.325	278.927	85.920	77.287	360.409	0.00040485	0.00076177	0.00024583	1343.5	4.5514e-06	2.2006e-06	1341.3	359.59	4.6722e-06	2.3295e-06	413.73	136.96	119.52	41.302	4.9743e-06	51.085	0.00046147	0.0004679	0.00013007	1351.1	5.0298e-06	5.1016e-06	1350.1	363.33	5.1105e-06	5.1457e-06	415.9	139.31	121.3	41.881	5.1171e-06	51.947	154.831	172.542	192.137	70.332	199.330	231.175	70.164	75.257	205.700	247.056	74.682	78.734	79.669	83.934	172.964	82.955	-8191	255	
978.185	1	1	0	0	0.09902	0.24681	0.24238	0.11312	0.10855	0.075902	0.37546	0.27791	0.2421	0.11787	0.28826	0.17087	0.15836	0.19535	0.03599	0.19426	-0.85833	-0.82917	-1.6708	-1.2062	-1.275	-1.4604	-0.93958	-1.5458	-1.4521	-0.87083	-1.7979	-1.2021	-1.2188	-1.7437	-0.63333	-1.3563	95.302	310.464	175.515	291.669	355.584	284.424	387.421	334.060	198.727	81.350	329.176	374.530	111.378	72.128	188.258	385.456	0.00046876	0.00088289	2.7979e-05	1351.1	4.3093e-06	1.9663e-06	1341.5	360.54	3.6492e-06	8.9085e-06	413.77	137.31	119.08	41.16	4.2109e-06	51.229	0.00045923	0.00046285	0.00012702	1356.2	4.9942e-06	5.037e-06	1352	363.53	4.9522e-06	5.0183e-06	415.77	139.4	121.03	41.806	5.0367e-06	51.915	157.124	313.668	129.047	70.010	194.274	242.050	69.892	74.554	264.352	168.160	74.292	78.535	79.152	83.644	240.271	83.301	-8191	255	
978.257	1	1	0	0	0.29755	0.15161	0.31645	0.22588	0.10509	0.081309	0.38015	0.34633	0.20415	0.055917	0.3761	0.21243	0.30741	0.3436	0.17689	0.10828	-1.2229	-0.775	-1.5521	-1.2104	-0.825	-1.7771	-0.88125	-1.4188	-1.3125	-0.63125	-1.5021	-0.99167	-0.96042	-1.6896	-0.77917	-1.35	317.128	187.905	171.549	378.229	258.083	369.892	381.990	335.460	385.526	282.948	356.773	61.646	397.708	386.130	316.474	236.225	0.00040601	0.00064996	0.00014779	1344.5	4.485e-06	4.8417e-06	1344.1	361.84	4.3647e-06	7.7262e-06	415.25	137.73	119.77	41.055	3.9327e-06	51.381	0.00045939	0.00046373	0.00012739	1353.9	5.0302e-06	5.0572e-06	1352.3	364.22	5.0322e-06	5.0221e-06	416.57	139.6	121.26	41.804	4.9697e-06	51.967	157.778	119.435	94.437	70.166	161.880	244.055	70.194	74.858	226.079	170.670	74.366	78.684	79.345	83.842	210.283	83.014	-8191	255	
978.378	1	1	0	0	0.036086	0.35281	0.11346	0.34953	0.28068	0.5914	0.33581	0.2346	0.2473	0.23669	0.36831	0.38525	0.12981	0.20109	0.15588	0.24651	-1.2167	-0.62917	-1.6208	-1.2083	-0.64167	-1.6917	-1.0542	-1.3188	-1.5521	-0.69375	-1.525	-1.1521	-0.79167	-1.8563	-0.69375	-1.2146	287.051	178.980	316.109	78.577	146.882	208.859	371.763	412.609	85.669	355.185	365.879	351.585	152.634	395.760	253.396	293.109	0.00047684	0.00057859	0.00011169	1349.2	6.128e-06	2.0963e-06	1344.6	360.53	2.6364e-06	7.1852e-06	414.01	137.63	119.6	41.049	8.6425e-06	50.996	0.00046143	0.00046361	0.00012702	1356.1	5.0768e-06	5.0181e-06	1354.6	363.63	5.0813e-06	5.0825e-06	416.46	139.58	121.17	41.747	5.0249e-06	51.811	164.978	147.888	85.779	70.083	211.835	207.971	69.786	74.792	169.327	202.609	74.243	78.745	79.567	84.044	219.302	83.356	-8191	255	
978.474	1	1	0	0	0.1265	0.33232	0.053985	0.049942	0.12906	0.06646	0.070144	0.33704	0.15498	0.14133	0.28351	0.49841	0.11244	0.27716	0.34754	0.13567	-1.3604	-0.63958	-1.4188	-1.5208	-0.75417	-1.5646	-1.1146	-1.3021	-1.4583	-0.64792	-1.5354	-1.2833	-0.88542	-1.7229	-0.96458	-0.93958	77.435	79.367	75.844	384.121	344.434	97.236	284.759	380.668	410.830	395.008	324.517	71.640	202.510	287.114	203.817	374.504	0.00049938	0.00037773	0.00011414	1347.6	3.5317e-06	7.0623e-06	1343.1	359.46	6.823e-06	3.9785e-06	413.74	137.11	119.39	41.192	5.2454e-06	51.152	0.00046624	0.0004604	0.00012744	1357	5.1883e-06	5.0902e-06	1355.9	363.71	5.2106e-06	5.1569e-06	416.13	139.5	121.21	41.769	5.1625e-06	51.837	155.446	192.215	116.565	70.242	158.508	228.554	69.914	75.085	211.131	220.635	74.749	78.886	78.984	83.755	226.549	83.232	-8191	255	
978.570	1	1	0	0	0.10599	0.10079	0.32137	0.49181	0.15683	0.10777	0.24693	0.46601	0.30679	0.14108	0.22442	0.30502	0.11852	0.060317	0.069398	0.054269	-1.2542	-0.6375	-1.2521	-1.5438	-0.76458	-1.6354	-1.3208	-1.0521	-1.7646	-0.78958	-1.4271	-1.6521	-0.80625	-1.6187	-1.0729	-0.74583	293.389	127.370	76.884	401.609	112.300	60.313	390.397	63.281	211.107	64.681	373.792	392.513	98.872	376.428	73.312	143.018	0.00044714	0.00086981	0.00036032	1343	6.4973e-06	4.4726e-06	1343.9	359.2	3.0779e-06	7.405e-06	411.77	137.47	119.21	41.016	3.3243e-06	50.913	0.00047359	0.00046801	0.00013058	1355	5.1747e-06	5.0424e-06	1354	363	5.1366e-06	5.0829e-06	414.55	139.2	120.78	41.663	5.078e-06	51.729	158.382	121.391	117.758	70.142	157.109	201.899	70.186	74.978	240.855	195.085	74.235	78.712	79.222	83.536	198.931	83.223	-8191	255	
978.666	1	1	0	0	0.14542	0.21104	0.057494	0.24589	0.069876	0.22449	0.19056	0.078969	0.40237	0.168	0.16038	0.27655	0.28524	0.15894	0.063246	0.157	-1.3042	-0.9375	-1.05	-1.7271	-0.42708	-1.5333	-1.3958	-0.82292	-1.6896	-0.74375	-1.1604	-1.7667	-0.9125	-1.5625	-1.3167	-1.0833	59.420	368.337	375.116	398.427	221.809	401.335	399.859	285.066	170.675	76.835	327.413	359.155	299.511	414.451	207.351	95.888	0.00047057	0.00035083	0.00010957	1348.5	6.1988e-06	4.343e-06	1345.2	359.44	5.9419e-06	4.6936e-06	411.7	137.17	119.52	41.039	4.41e-06	50.888	0.00047071	0.00045918	0.00012791	1355.1	5.0928e-06	4.9715e-06	1355	363.06	5.0881e-06	5.0413e-06	414.86	139.18	120.9	41.716	5.1366e-06	51.771	157.135	212.830	109.960	70.008	171.295	202.355	70.044	74.649	286.837	140.757	74.385	78.814	79.072	84.101	185.815	83.083	-8191	255	
978.787	1	1	0	0	0.13326	0.086987	0.020204	0.23261	0.4331	0.087128	0.18685	0.20454	0.21253	0.13727	0.21825	0.14632	0.30715	0.45924	0.1637	0.29437	-1.3833	-1.0333	-0.92708	-1.8792	-0.61458	-1.5146	-1.5292	-0.8	-1.7104	-0.99167	-0.91875	-1.7229	-0.87917	-1.4646	-1.2979	-0.91875	407.022	370.924	274.610	390.616	213.463	64.256	390.012	86.664	117.966	108.729	89.326	157.640	310.996	349.327	308.278	382.466	0.0003828	4.0643e-05	0.0001119	1351.7	2.7201e-06	6.7114e-06	1349.8	359.3	4.6356e-06	4.4412e-06	411.69	137.01	119.5	41.076	4.7095e-06	50.677	0.0004632	0.00045974	0.00012779	1357.7	5.0386e-06	4.9738e-06	1357.7	363	5.0689e-06	5.0664e-06	414.71	139.37	121.14	41.753	5.2634e-06	51.839	157.355	348.885	125.920	70.196	133.309	252.140	70.157	74.911	183.223	201.458	74.152	78.845	79.271	83.977	181.670	83.252	-8191	255	
978.858	1	1	0	0	0.10069	0.13521	0.1025	0.15436	0.21295	0.25619	0.2289	0.05735	0.40543	0.23894	0.37966	0.13228	0.06878	0.23688	0.26123	0.038351	-1.3104	-1.0958	-0.87083	-1.8271	-1.0021	-1.2021	-1.7417	-0.88542	-1.7354	-1.1292	-1.1187	-1.8208	-0.85	-1.1104	-1.3396	-0.66667	62.213	216.870	78.369	366.334	287.241	234.430	377.858	335.086	190.654	334.404	336.779	362.170	107.842	379.109	343.137	210.566	0.00043154	0.00045649	0.00011363	1346.8	2.3618e-06	1.9591e-06	1349	359.38	3.8763e-06	4.3922e-06	411.94	137.62	119.17	41.142	4.9006e-06	50.79	0.00047992	0.00047768	0.00013394	1358	5.2262e-06	5.2905e-06	1359.5	363.83	5.3201e-06	5.3736e-06	416.41	140.09	121.26	41.883	5.4473e-06	51.944	164.866	145.691	180.008	70.493	198.627	128.686	70.221	75.179	222.088	114.094	74.761	78.571	79.305	83.760	259.474	82.972	-8191	255	
978.954	1	1	0	0	0.27631	0.094749	0.10493	0.30756	0.24136	0.22976	0.244	0.11339	0.17436	0.086338	0.30771	0.14407	0.41601	0.070849	0.062141	0.17451	-1.2271	-1.1521	-0.66042	-1.9375	-0.88333	-1.0312	-1.7062	-0.83542	-1.3646	-1.325	-0.76875	-1.7333	-1.1229	-1.0167	-1.6708	-0.76667	165.835	292.445	295.579	401.910	74.118	390.262	413.530	208.181	94.547	344.935	356.995	92.009	110.763	240.421	142.535	413.131	0.0003857	0.00055892	3.2413e-05	1347.7	6.808e-06	3.2802e-06	1348.1	359.54	2.7717e-06	2.1503e-06	412.58	137.83	119.37	40.988	1.864e-06	51.098	0.00048998	0.00049238	0.00013784	1358.5	5.2838e-06	5.3328e-06	1360.1	363.77	5.3078e-06	5.343e-06	416.47	139.75	121.17	41.813	5.3407e-06	51.882	167.587	151.437	384.415	70.211	182.888	193.661	70.118	74.942	192.385	177.911	74.272	78.773	79.148	84.053	274.583	83.361	-8191	255	
979.051	1	1	0	0	0.075103	0.20941	0.23815	0.31608	0.22229	0.30477	0.14621	0.1877	0.025257	0.17324	0.085732	0.22196	0.039938	0.22448	0.13855	0.11409	-1.1	-1.3229	-0.56042	-1.7792	-0.96875	-0.91042	-1.8396	-0.83958	-1.3312	-1.4521	-0.70625	-1.675	-1.2104	-1.025	-1.5896	-0.8125	361.817	330.624	306.771	387.409	326.710	108.981	199.622	138.208	97.121	363.819	221.865	391.397	112.554	330.725	237.432	349.057	0.00043683	0.00027166	0.0002055	1349.2	3.053e-06	1.1397e-05	1345.8	360.55	5.6359e-06	6.3765e-06	414.73	137.88	119.23	40.932	4.5164e-06	50.821	0.00048029	0.00048045	0.00013448	1358.1	5.2179e-06	5.259e-06	1357.8	363.6	5.2193e-06	5.1995e-06	416.06	139.73	121.08	41.711	5.2976e-06	51.751	161.515	179.005	127.626	70.204	180.174	177.227	70.071	74.921	167.155	171.011	74.194	78.741	79.286	83.983	262.154	82.868	-8191	255	
979.170	1	1	0	0	0.1283	0.21242	0.034347	0.28761	0.046916	0.27858	0.029493	0.11286	0.1285	0.068228	0.24217	0.24104	0.44688	0.24602	0.24023	0.042969	-0.71667	-1.5333	-0.75208	-1.6521	-1.0521	-0.85417	-1.8979	-0.98333	-1.1229	-1.6938	-0.69375	-1.7125	-1.3729	-0.96875	-1.7604	-0.98958	398.989	370.149	301.896	406.580	219.884	223.312	404.644	319.421	277.141	377.677	361.668	384.190	349.148	407.545	302.897	126.891	0.00039254	0.00035839	7.3421e-05	1349.3	3.8885e-06	6.0319e-06	1343.5	359.11	4.1063e-06	2.5373e-06	412.9	137.52	119.52	40.988	3.7822e-06	50.82	0.00047668	0.00047764	0.00013315	1357.6	5.2449e-06	5.308e-06	1356.2	362.84	5.2587e-06	5.2682e-06	416.14	139.49	121.02	41.732	5.1981e-06	51.671	151.397	165.631	113.638	70.174	180.526	227.247	70.176	74.995	204.689	179.494	74.270	78.765	79.520	84.038	219.549	83.237	-8191	255	
979.266	1	1	0	0	0.1406	0.18189	0.1693	0.17976	0.27737	0.23651	0.18786	0.44756	0.1105	0.39761	0.36778	0.17597	0.13149	0.13284	0.1297	0.22032	-0.8	-1.575	-0.66875	-1.6958	-1.4208	-0.825	-1.8646	-1.025	-1.1542	-1.8521	-0.88958	-1.3979	-1.4208	-0.97292	-1.6146	-1.125	206.638	114.740	128.305	262.922	101.246	207.901	365.993	364.995	69.862	133.586	378.140	319.122	360.513	355.645	392.246	413.615	0.00048449	8.5768e-05	9.1699e-05	1350	5.0082e-06	7.1406e-06	1347.6	360.16	2.8278e-06	2.9943e-06	412.64	136.9	119.46	40.919	4.4371e-06	50.957	0.00047901	0.00047421	0.00013211	1359	5.1971e-06	5.2799e-06	1356.3	363.17	5.1841e-06	5.2229e-06	415.54	139.24	121.12	41.691	5.2318e-06	51.693	162.685	320.508	105.256	70.960	210.972	229.771	70.933	75.819	204.121	346.717	75.015	79.239	79.784	84.351	153.266	83.206	-8191	255	
979.362	1	1	0	0	0.14515	0.12601	0.24805	0.05274	0.099262	0.040791	0.28467	0.035069	0.18523	0.092864	0.10164	0.17333	0.1375	0.24721	0.17793	0.073781	-0.65	-1.5333	-0.53125	-1.3542	-1.4562	-0.65	-1.7167	-1.3	-0.87083	-1.8729	-0.82292	-1.4417	-1.7188	-0.85833	-1.6812	-1.1896	129.429	219.401	372.990	329.945	249.956	394.485	63.410	157.136	162.841	142.867	327.403	80.769	61.996	363.245	343.425	79.975	0.00043629	0.00082691	6.9431e-05	1345.3	3.9862e-06	2.795e-06	1348.5	359.58	4.9327e-06	4.5177e-06	414.25	136.94	119.36	40.913	7.8022e-06	50.903	0.00048064	0.00047935	0.00013248	1354.6	5.2357e-06	5.2496e-06	1354.4	362.68	5.2581e-06	5.2791e-06	415.1	139.5	121.09	41.696	5.2651e-06	51.731	161.641	122.602	121.637	70.635	176.742	298.626	70.795	75.345	173.722	101.601	75.271	79.943	79.995	84.460	187.343	83.732	-8191	255	
979.458	1	1	0	0	0.10499	0.13272	0.21219	0.31211	0.24007	0.14126	0.47521	0.25411	0.23047	0.059559	0.23129	0.071889	0.041374	0.24666	0.11449	0.21628	-0.44375	-1.5167	-0.7125	-1.1896	-1.5875	-0.73125	-1.675	-1.3188	-0.69583	-1.6354	-1.0396	-1.2229	-1.6271	-0.76458	-1.2646	-1.4042	163.121	356.264	78.545	382.245	235.488	73.751	386.460	394.836	330.505	245.433	60.140	310.244	343.982	413.943	314.516	106.729	0.00044413	0.00012768	0.00021243	1344.3	2.0876e-06	4.7371e-06	1344.9	358.61	8.4831e-06	5.0478e-06	411.25	137.17	118.96	40.912	8.0572e-06	51.069	0.00048539	0.00047992	0.00013122	1353.4	5.2478e-06	5.2038e-06	1354	362.29	5.2175e-06	5.147e-06	414.25	139.25	120.83	41.589	5.1069e-06	51.668	154.885	240.671	119.663	71.045	180.728	189.994	70.771	75.608	236.069	195.678	74.617	79.234	79.619	84.445	205.946	83.844	-8191	255	
979.554	1	1	0	0	0.13851	0.10616	0.11527	0.26391	0.13074	0.097658	0.29811	0.17007	0.39283	0.13673	0.31244	0.18815	0.33853	0.3634	0.19861	0.27758	-0.20417	-1.6583	-0.96667	-1.2687	-1.6063	-0.65625	-1.6417	-1.4958	-0.60417	-1.6167	-1.0125	-1.1292	-1.7938	-0.77292	-1.3062	-1.6063	295.929	82.552	79.746	386.380	358.010	368.161	384.057	228.169	367.198	211.435	359.285	159.750	349.397	71.947	305.445	361.659	0.00048693	0.00027338	0.00010732	1347.1	7.8882e-06	3.3308e-06	1338.9	359.17	4.8535e-06	5.1944e-06	408.17	136.43	118.54	40.844	5.2486e-06	50.736	0.00047341	0.00046227	0.00012866	1354.6	5.1153e-06	5.0789e-06	1350.9	361.68	5.1624e-06	5.1631e-06	413.47	138.88	120.68	41.477	5.1908e-06	51.652	162.465	191.362	109.276	69.873	236.762	212.121	69.478	74.223	224.030	190.176	73.567	77.850	78.508	83.111	219.458	82.337	-8191	255	
979.650	1	1	0	0	0.1334	0.090456	0.15738	0.32194	0.12204	0.22572	0.19342	0.32553	0.15027	0.21732	0.20546	0.12509	0.20686	0.36264	0.069042	0.16845	-0.40208	-1.6458	-1.2167	-0.98333	-1.5833	-0.80417	-1.6167	-1.5688	-0.67917	-1.4896	-1.3292	-0.98125	-1.8333	-0.875	-1.0542	-1.7667	387.457	328.634	328.439	380.464	148.163	109.306	116.738	370.039	247.549	343.943	105.384	378.114	347.843	358.762	400.271	297.233	0.00042762	0.00056832	0.00015663	1348.2	5.3534e-06	8.3591e-06	1341.8	358.77	1.816e-06	8.3144e-06	410.66	136.36	119.18	40.733	1.4643e-06	50.589	0.00047981	0.00047717	0.00013268	1354.2	5.2961e-06	5.2245e-06	1352.6	361.96	5.3089e-06	5.2734e-06	414.05	139.17	120.75	41.554	5.3454e-06	51.633	163.161	159.300	108.867	69.476	180.890	281.516	69.385	74.033	104.872	186.186	73.595	78.139	78.395	82.863	229.764	82.116	-8191	255	
979.771	1	1	0	0	0.11702	0.067936	0.064282	0.10391	0.08916	0.1004	0.11021	0.22543	0.1944	0.20053	0.20137	0.17375	0.29195	0.074291	0.26288	0.079588	-0.37708	-1.475	-1.2125	-0.93542	-1.6271	-0.77292	-1.2563	-1.6771	-0.57708	-1.4312	-1.4312	-0.7125	-1.6708	-1.1	-0.90208	-1.75	346.902	288.534	172.278	153.429	94.427	179.477	292.922	384.247	135.413	395.479	91.028	338.134	388.689	187.661	227.110	364.911	0.00042708	0.00019461	0.00024256	1339.3	3.4075e-06	3.7949e-06	1337.9	355.68	2.3764e-06	3.0746e-06	410.87	136.75	118.75	40.757	3.7934e-06	50.681	0.00048812	0.00048225	0.00013512	1352.4	5.3061e-06	5.3238e-06	1350.5	361.3	5.3549e-06	5.3186e-06	414.25	138.96	120.77	41.469	5.3532e-06	51.629	162.439	289.337	131.194	69.137	159.176	208.021	69.391	74.143	183.779	211.963	73.527	78.121	78.297	82.909	279.242	82.364	-8191	255	
979.867	1	1	0	0	0.06342	0.17753	0.27539	0.22429	0.33292	0.040472	0.28348	0.26402	0.2224	0.14429	0.169	0.096451	0.10237	0.17308	0.30382	0.3256	-0.34375	-1.2583	-1.3125	-0.75833	-1.5792	-0.97708	-1	-1.7208	-0.7625	-1.225	-1.5187	-0.58333	-1.5875	-0.96875	-0.89375	-1.7417	251.277	375.095	196.556	80.473	332.407	120.652	348.157	372.007	140.981	369.923	255.636	364.400	367.334	350.112	397.613	376.012	0.00034311	0.00069904	0.00020641	1338.4	1.1479e-06	1.3454e-06	1338	356.98	3.9519e-06	1.834e-06	410.11	136.38	118.56	40.744	4.0269e-06	50.566	0.00048448	0.00047917	0.00013381	1352.2	5.2158e-06	5.2767e-06	1350.2	361.23	5.2692e-06	5.2376e-06	413.55	138.93	120.53	41.464	5.2442e-06	51.544	147.591	144.034	234.928	69.224	141.972	148.546	69.269	73.861	183.298	68.679	73.370	77.885	78.648	82.844	237.060	82.129	-8191	255	
979.961	1	1	0	0	0.066261	0.057447	0.045379	0.38772	0.27561	0.17413	0.19753	0.19471	0.10209	0.10788	0.068815	0.1705	0.2761	0.15805	0.21256	0.1436	-0.47292	-1.0438	-1.6292	-0.79583	-1.3813	-1.1458	-0.95	-1.7604	-0.69583	-1.3208	-1.7062	-0.76042	-1.55	-1.1458	-0.56042	-1.8083	111.171	75.536	180.650	369.277	303.899	295.509	302.586	369.325	123.958	400.035	336.332	139.816	387.487	105.458	277.208	306.891	0.00043971	0.00070981	7.0667e-05	1340.5	4.0153e-06	2.2428e-06	1338.2	356.03	1.4394e-06	2.1972e-06	409.11	136.57	118.68	40.534	4.2635e-06	50.555	0.00047238	0.00047072	0.00013182	1349.7	5.0807e-06	5.1101e-06	1349.1	360.81	5.0445e-06	5.0971e-06	412.56	138.47	120.41	41.33	5.1479e-06	51.471	151.228	167.839	119.704	69.310	153.298	121.119	69.238	73.948	257.729	142.162	73.388	77.830	78.376	82.872	242.104	82.147	-8191	255	
980.082	1	1	0	0	0.10448	0.12507	0.13236	0.22517	0.090666	0.18868	0.36069	0.15741	0.18313	0.065213	0.27319	0.14239	0.089701	0.14712	0.15179	0.15568	-0.38125	-0.98958	-1.6542	-0.90417	-1.3687	-1.2521	-0.81875	-1.7	-0.88333	-0.84167	-1.6333	-0.54167	-1.3438	-1.4583	-0.67708	-1.6021	404.037	63.713	166.397	93.858	318.477	288.127	318.132	116.538	397.869	301.403	188.218	386.100	91.164	203.871	81.220	64.696	0.00043212	0.00063572	0.00011777	1338.4	8.1524e-06	3.3149e-06	1340.2	356.11	3.2712e-06	5.7132e-06	411.89	135.99	118.44	40.69	3.0267e-06	50.495	0.00046253	0.00046941	0.00013039	1350.2	5.1079e-06	5.1496e-06	1350.3	360.24	5.1309e-06	5.1732e-06	413.49	138.48	120.37	41.443	5.265e-06	51.425	162.566	160.837	107.621	69.296	175.841	189.879	69.277	74.183	186.533	166.069	73.529	77.630	78.522	82.825	201.892	82.229	-8191	255	
980.154	1	1	0	0	0.078355	0.12984	0.25668	0.30912	0.051928	0.07704	0.0303	0.4249	0.085924	0.15812	0.18662	0.12779	0.30859	0.095743	0.17905	0.15661	-0.62083	-0.78542	-1.4875	-0.95417	-1.2583	-1.4958	-0.96458	-1.5562	-1.0417	-0.80417	-1.7458	-0.7875	-1.2437	-1.4708	-0.54375	-1.7104	70.272	168.620	105.436	386.994	73.533	216.803	406.274	67.172	242.505	152.378	57.156	273.830	401.426	114.884	357.846	254.943	0.00042026	0.00040708	7.0778e-05	1333.7	4.1564e-06	5.6279e-06	1337.3	357.87	6.0834e-06	5.3581e-06	409.26	136.03	118.53	40.553	1.9957e-06	50.688	0.00047336	0.00048095	0.00013263	1348.2	5.1933e-06	5.2812e-06	1349.4	360.85	5.2504e-06	5.2817e-06	413.44	138.57	120.21	41.499	5.274e-06	51.507	158.979	83.036	186.125	69.396	184.525	180.216	69.157	74.202	159.257	168.873	73.652	77.874	78.719	83.120	224.548	82.453	-8191	255	
980.250	1	1	0	0	0.24944	0.18588	0.1552	0.28763	0.1672	0.1092	0.17128	0.50094	0.28964	0.041044	0.16356	0.12971	0.14384	0.25781	0.13069	0.052778	-0.80417	-0.77292	-1.6187	-0.78125	-1.0292	-1.5208	-0.71667	-1.4375	-1.2479	-0.78958	-1.6271	-0.98958	-1.1333	-1.5146	-0.62917	-1.475	164.769	365.539	388.404	363.615	374.817	165.927	313.826	362.216	366.590	173.619	291.358	93.927	351.655	100.760	393.883	334.810	0.00037379	0.00036506	0.00027761	1337.5	5.7292e-06	9.4807e-07	1335	357.83	7.4839e-06	4.0461e-06	410.09	136.13	118.47	40.663	4.6396e-06	50.754	0.00047557	0.00048262	0.00013217	1348.3	5.2142e-06	5.2109e-06	1346.8	360.88	5.2038e-06	5.2752e-06	412.63	138.45	120.35	41.474	5.193e-06	51.548	164.760	199.765	121.285	69.203	195.510	136.980	69.074	74.081	216.477	247.453	73.461	77.785	78.443	82.797	210.918	82.121	-8191	255	
980.346	1	1	0	0	0.1276	0.04047	0.30775	0.21015	0.27012	0.18624	0.10533	0.35085	0.13174	0.14245	0.26768	0.23575	0.16661	0.33492	0.10265	0.31608	-0.925	-0.5875	-1.6333	-1.2625	-0.8625	-1.7271	-1.0417	-1.4	-1.4062	-0.72708	-1.8083	-1.075	-0.9625	-1.8521	-0.68958	-1.3896	408.035	63.070	360.012	64.551	381.231	66.096	80.011	281.827	342.128	159.997	325.784	73.679	395.902	315.319	111.347	335.911	0.00041514	0.00044836	0.00013747	1341.1	5.1086e-06	5.1066e-06	1336.9	356.01	4.2452e-06	6.2193e-06	408.74	136.15	118.77	40.522	1.0482e-06	50.438	0.00047847	0.00048025	0.00013139	1347.9	5.2228e-06	5.2181e-06	1346.9	360.54	5.2116e-06	5.268e-06	412.85	138.48	120.55	41.453	5.1768e-06	51.381	158.064	166.667	133.093	69.145	248.077	198.669	69.071	74.003	198.676	105.806	73.293	77.827	78.308	82.854	173.630	82.275	-8191	255	
980.467	1	1	0	0	0.38418	0.087172	0.27069	0.17448	0.25611	0.23151	0.24539	0.17595	0.14614	0.17234	0.15218	0.42993	0.26171	0.11978	0.095666	0.19277	-1.1271	-0.6	-1.5312	-1.3604	-0.72083	-1.7104	-1	-1.2479	-1.4021	-0.69375	-1.7563	-1.1854	-0.62292	-1.6521	-0.73125	-1.175	390.296	305.413	353.943	307.644	373.997	402.808	361.322	342.131	292.169	344.693	179.050	377.938	381.900	297.394	335.191	406.693	0.00041707	0.0013654	0.00018902	1340.7	5.2421e-06	7.6152e-06	1335.2	356.65	2.9196e-06	2.507e-06	409.39	136.14	118.46	40.641	3.6341e-06	50.73	0.0004752	0.00047632	0.00013047	1348.7	5.1969e-06	5.2152e-06	1347.5	360.76	5.2315e-06	5.2375e-06	412.75	138.62	120.44	41.491	5.2115e-06	51.567	161.365	156.081	155.612	69.277	224.304	248.402	68.802	74.149	189.065	174.925	73.433	77.566	78.649	82.568	204.234	82.071	-8191	255	
980.563	1	1	0	0	0.1158	0.094544	0.072656	0.23027	0.23359	0.042611	0.094182	0.2111	0.20848	0.058742	0.21266	0.36294	0.47277	0.16695	0.038733	0.16799	-1.1042	-0.61875	-1.2792	-1.3208	-0.65208	-1.4792	-1.0625	-0.975	-1.5729	-0.68958	-1.5958	-1.5063	-0.76458	-1.7208	-0.73333	-0.94375	67.266	263.778	114.108	56.426	289.714	217.866	114.764	282.017	218.100	160.635	123.341	404.049	63.905	382.799	142.848	323.312	0.00043267	0.00029904	8.8051e-05	1336.1	9.9163e-06	4.1368e-06	1332.8	356.19	8.9533e-06	3.1386e-06	409.71	136.35	118.72	40.535	4.0984e-06	50.651	0.00048495	0.00048142	0.00013312	1347.6	5.3636e-06	5.1882e-06	1345.9	360.57	5.3125e-06	5.2579e-06	412.99	138.58	120.46	41.447	5.1759e-06	51.568	155.748	149.286	132.398	69.330	190.115	171.489	69.038	73.905	234.789	264.238	73.373	77.850	78.506	82.937	283.749	82.188	-8191	255	
980.659	1	1	0	0	0.14553	0.27319	0.23835	0.26326	0.24589	0.2218	0.41748	0.35599	0.36499	0.28222	0.43444	0.10597	0.09493	0.30957	0.079242	0.13473	-1.2938	-0.56042	-1.2833	-1.4729	-0.85417	-1.5396	-1.3979	-0.91875	-1.5583	-0.75208	-1.3417	-1.5021	-0.79167	-1.4521	-0.99583	-0.9375	118.955	315.354	315.061	391.342	342.081	310.644	332.939	323.390	213.600	371.393	373.207	104.960	305.544	388.965	135.519	88.690	0.00044453	0.00048372	8.5312e-05	1340.1	5.118e-06	5.3359e-06	1334.7	357.47	4.3542e-06	1.6774e-06	408.29	135.89	118.57	40.833	2.7079e-06	50.207	0.00047684	0.00047154	0.00013233	1349	5.2736e-06	5.1734e-06	1345.9	361.06	5.2698e-06	5.2393e-06	413.24	138.8	120.67	41.462	5.266e-06	51.487	146.666	113.122	159.647	69.107	153.830	223.810	68.881	74.148	232.653	102.866	73.358	77.661	78.310	83.143	264.678	82.192	-8191	255	
980.731	1	1	0	0	0.222	0.33332	0.15472	0.32735	0.16799	0.24947	0.40818	0.14813	0.12146	0.020045	0.15715	0.37806	0.26759	0.32267	0.097467	0.16171	-1.1354	-0.91042	-1.0396	-1.7729	-0.67083	-1.5146	-1.2625	-0.78333	-1.4125	-0.88542	-1.1375	-1.7979	-0.86042	-1.5063	-1.3958	-0.82292	216.669	229.456	238.245	381.117	84.031	221.597	321.161	226.709	65.589	207.607	380.225	366.398	360.000	79.305	152.420	297.327	0.00041373	0.00032272	3.7257e-05	1337.1	3.6445e-06	1.3275e-06	1337.1	356.36	2.6486e-06	6.3732e-06	411.12	136.24	118.49	40.891	5.4612e-06	50.617	0.00048195	0.00047405	0.00013222	1349.8	5.2738e-06	5.2157e-06	1348.5	361.17	5.2572e-06	5.163e-06	414.74	138.9	120.54	41.535	5.2307e-06	51.564	149.671	114.877	144.261	69.197	175.798	186.969	69.020	73.927	110.211	204.502	73.549	77.602	78.367	82.947	230.292	81.828	-8191	255	
980.851	1	1	0	0	0.20192	0.022063	0.42107	0.17761	0.2744	0.20713	0.22977	0.11294	0.15059	0.29351	0.065441	0.45783	0.31	0.11291	0.19102	0.25268	-1.3208	-0.84375	-1.1271	-1.8208	-0.68125	-1.2479	-1.4292	-0.67083	-1.6083	-1.0063	-1.0521	-1.75	-0.86875	-1.5229	-1.25	-0.7	153.330	384.783	404.357	376.931	228.009	139.183	389.464	346.136	353.237	199.610	104.622	56.431	62.777	381.001	354.021	73.756	0.00042131	0.00060309	8.5558e-05	1339.5	6.0323e-06	2.1681e-06	1337	357.11	4.3603e-06	9.302e-06	409.34	136.3	119.06	40.822	4.9446e-06	50.685	0.00047582	0.00046835	0.0001313	1350	5.188e-06	5.0794e-06	1346.5	361.32	5.182e-06	5.0952e-06	413.16	138.9	120.66	41.53	5.2763e-06	51.571	150.765	100.884	204.346	69.173	176.665	119.376	69.018	73.900	211.637	162.566	73.399	77.962	78.221	83.084	196.816	82.043	-8191	255	
980.947	1	1	0	0	0.25755	0.25749	0.22255	0.051244	0.16693	0.18101	0.3103	0.060684	0.21208	0.057655	0.2691	0.11249	0.32272	0.29875	0.062895	0.2835	-1.0958	-1.0104	-0.77292	-1.9521	-0.6375	-1.2292	-1.6875	-0.76042	-1.6437	-0.85417	-0.87708	-1.7479	-1.0979	-1.3396	-1.4458	-0.8	409.040	280.879	170.554	171.796	388.365	300.084	397.969	384.985	151.573	59.584	81.877	306.008	83.101	334.473	281.188	288.013	0.00038287	0.0011187	0.00015012	1337.3	3.0916e-06	7.3733e-06	1332	358.87	6.7178e-07	3.2328e-06	410.32	136.56	118.83	40.813	6.394e-06	50.737	0.00047359	0.00047712	0.00013475	1350.9	5.1801e-06	5.1898e-06	1347.4	361.42	5.146e-06	5.1865e-06	414.23	138.9	120.63	41.531	5.2527e-06	51.578	162.182	146.833	75.453	69.243	140.308	218.299	68.900	73.864	160.703	347.408	73.372	77.938	78.353	82.895	213.505	82.106	-8191	255	
981.044	1	1	0	0	0.17363	0.23199	0.31833	0.31651	0.2268	0.27611	0.14199	0.17238	0.14355	0.11118	0.18189	0.19935	0.11322	0.24824	0.10526	0.20778	-1.1021	-1.1625	-0.69375	-2.075	-0.75417	-0.88542	-1.7521	-0.87083	-1.3229	-1.1521	-0.77917	-1.6104	-0.93958	-1.0458	-1.7292	-0.60625	168.005	112.782	190.076	64.313	257.691	214.931	278.028	349.184	193.979	384.892	322.725	136.115	294.126	352.453	176.200	384.808	0.0004748	0.00039072	0.00017937	1342.1	1.2438e-06	4.0141e-06	1337.8	357.02	7.3657e-06	4.745e-06	410.37	136.6	118.66	40.782	6.506e-06	50.62	0.00047002	0.00046878	0.00013258	1350.4	5.1786e-06	5.1467e-06	1347.3	361.48	5.0889e-06	5.1757e-06	413.86	139	120.61	41.54	5.1178e-06	51.498	151.577	71.306	112.813	69.212	218.670	237.721	68.961	73.818	185.161	132.849	73.366	77.791	78.323	82.966	237.269	82.177	-8191	255	
981.162	1	1	0	0	0.1194	0.1825	0.24655	0.19446	0.14203	0.20545	0.16857	0.54902	0.14205	0.045721	0.29819	0.048423	0.24529	0.24091	0.24007	0.21485	-1.075	-1.2625	-0.55417	-1.9146	-0.82292	-0.86042	-1.8271	-0.61875	-1.3021	-1.3188	-0.73125	-1.6938	-0.94167	-1.0208	-1.5604	-0.66875	310.512	96.384	366.466	322.488	371.250	327.573	361.414	346.180	287.956	164.127	414.129	111.080	138.284	140.897	119.586	407.573	0.00042531	0.00031801	6.9933e-05	1337.2	4.4045e-06	1.7758e-06	1341.1	357.96	4.8018e-06	5.7523e-06	408.84	136.74	118.73	40.692	3.7505e-06	50.776	0.00046338	0.0004647	0.00012919	1348.5	5.0561e-06	5.1117e-06	1348.4	361.45	5.0715e-06	5.1086e-06	413.19	139.07	120.47	41.471	5.171e-06	51.469	154.608	155.070	362.612	69.197	212.328	137.961	69.057	73.877	235.279	177.081	73.274	77.877	78.486	82.764	230.926	82.221	-8191	255	
981.259	1	1	0	0	0.27744	0.14896	0.26719	0.11477	0.12586	0.094452	0.28604	0.38568	0.10428	0.1849	0.075548	0.23318	0.14999	0.091348	0.12923	0.030885	-0.89167	-1.4646	-0.68333	-1.5917	-1.2667	-0.68333	-1.8208	-0.8875	-1.0438	-1.4542	-0.53542	-1.4917	-1.2917	-0.71875	-1.5458	-0.78333	81.573	94.216	234.266	224.062	314.572	66.888	343.728	68.188	210.649	360.231	391.707	344.373	348.249	360.318	244.166	244.192	0.00041414	0.00039982	0.00023547	1333.2	4.6387e-06	3.4773e-06	1336.6	356.72	6.5502e-06	3.9865e-06	408.91	136.51	118.74	40.753	3.0929e-06	50.43	0.00046402	0.00046815	0.00013004	1345.4	5.098e-06	5.1483e-06	1347.8	361.25	5.1252e-06	5.1795e-06	412.87	138.87	120.63	41.567	5.195e-06	51.563	149.198	125.388	158.678	69.208	204.072	183.880	69.082	73.879	226.157	151.326	73.379	77.834	78.377	83.079	261.832	81.917	-8191	255	
981.355	1	1	0	0	0.34972	0.20139	0.10655	0.15549	0.22423	0.015142	0.19032	0.09457	0.19476	0.18326	0.23602	0.082662	0.1657	0.11356	0.055765	0.1344	-0.58542	-1.5312	-0.43958	-1.5958	-1.0792	-0.725	-1.5896	-0.68542	-0.80833	-1.5958	-0.79583	-1.4167	-1.3604	-0.74375	-1.5083	-0.92917	394.673	179.072	327.681	408.874	320.558	175.131	373.075	132.238	347.058	399.051	413.202	333.590	332.008	368.318	161.270	315.477	0.00044004	0.00062706	3.8063e-05	1340.1	1.9188e-06	3.1141e-06	1336.8	357.09	5.2319e-06	7.8083e-06	411.24	137.36	118.54	40.667	3.349e-06	50.933	0.00046945	0.00046924	0.00013091	1347.6	5.1545e-06	5.2079e-06	1348.1	361.3	5.2013e-06	5.2099e-06	413.77	139.24	120.75	41.558	5.1502e-06	51.658	164.139	196.170	134.175	69.269	154.156	226.773	69.066	73.984	227.063	128.342	73.255	78.140	78.211	82.870	236.424	81.858	-8191	255	
981.451	1	1	0	0	0.15014	0.2525	0.21267	0.18128	0.030764	0.15169	0.18066	0.2255	0.28433	0.18557	0.1246	0.18175	0.30576	0.38443	0.28715	0.14632	-0.47708	-1.5438	-0.58958	-1.4771	-1.3854	-0.58958	-1.8083	-1.2792	-0.81458	-1.7271	-0.94792	-1.3104	-1.7354	-0.73958	-1.5667	-1.225	306.014	96.392	220.041	310.894	174.369	299.113	316.829	335.628	146.155	263.542	369.303	376.072	69.199	379.824	230.699	261.665	0.00035671	0.00039848	0.00012464	1330.9	3.7829e-06	5.538e-06	1337.8	357.66	2.213e-06	3.3346e-06	412.07	137.04	118.82	40.789	4.3794e-06	50.785	0.00047239	0.00047417	0.00013114	1345.6	5.2054e-06	5.1945e-06	1349	362.15	5.2279e-06	5.2152e-06	414.86	139.27	120.89	41.573	5.2493e-06	51.704	170.497	225.407	186.605	69.349	233.200	256.868	69.133	73.755	159.967	224.520	73.372	77.941	78.374	82.864	176.169	82.222	-8191	255	
981.547	1	1	0	0	0.21625	0.15573	0.2777	0.43255	0.17409	0.1721	0.3275	0.077184	0.093839	0.10724	0.25243	0.14019	0.14314	0.16609	0.11096	0.39073	-0.33542	-1.5542	-0.55833	-1.25	-1.4896	-0.58125	-1.6771	-1.4833	-0.75	-1.6896	-1.0583	-1.0917	-1.575	-0.83125	-1.4646	-1.2229	280.920	211.185	192.648	387.976	239.609	184.664	301.454	376.194	64.788	280.173	414.941	88.340	97.054	409.415	116.236	328.223	0.00044137	0.00096209	6.7338e-05	1336.4	4.8598e-06	1.4983e-06	1340.1	358.18	3.6998e-06	5.2135e-06	411.05	136.56	118.29	40.809	4.1193e-06	50.749	0.00047992	0.00047627	0.00013122	1347.7	5.2271e-06	5.273e-06	1350.6	361.99	5.2621e-06	5.2616e-06	414.7	139.34	120.76	41.674	5.2504e-06	51.678	159.342	151.761	150.109	69.316	190.048	393.511	69.199	73.956	154.243	125.954	73.321	77.970	78.402	82.966	227.577	82.257	-8191	255	
981.643	1	1	0	0	0.29589	0.16329	0.35938	0.38734	0.19819	0.095731	0.4204	0.24385	0.17781	0.16416	0.17332	0.056306	0.18891	0.097428	0.028476	0.094531	-0.41875	-1.7333	-0.875	-0.96667	-1.7125	-0.65	-1.6958	-1.3542	-0.66875	-1.5896	-1.1187	-1.0542	-1.7958	-0.88125	-1.3458	-1.5625	59.698	247.655	343.666	354.987	345.307	306.540	361.474	328.962	156.747	277.918	348.899	83.033	193.720	362.691	97.357	400.679	0.00037704	0.00023679	7.0621e-05	1338.5	5.2998e-06	3.0117e-06	1337.6	359.4	3.0852e-06	1.2424e-06	411.31	137	118.74	40.867	5.1926e-06	50.806	0.00048423	0.00047559	0.00013241	1349	5.2992e-06	5.2442e-06	1347.5	362.76	5.3141e-06	5.2413e-06	414.85	139.23	121.09	41.613	5.2454e-06	51.778	157.992	165.902	347.632	69.466	127.290	156.056	69.051	74.038	242.194	185.219	73.584	78.022	78.248	82.664	225.501	81.842	-8191	255	
981.764	1	1	0	0	0.10186	0.19348	0.18188	0.11175	0.075474	0.15123	0.30797	0.2277	0.080567	0.3453	0.19736	0.097167	0.2566	0.12213	0.14868	0.24021	-0.36667	-1.4896	-1.0104	-1.0812	-1.5896	-0.81875	-1.5292	-1.5729	-0.675	-1.4354	-1.2333	-0.78542	-1.7	-1.0729	-1.05	-1.5917	171.597	337.353	307.510	280.801	380.014	407.680	354.272	226.956	158.341	197.340	367.708	350.815	392.297	250.899	271.673	295.158	0.00042511	0.00090598	9.3784e-05	1337.2	3.6751e-06	4.9981e-06	1335.8	357.79	3.3662e-06	5.598e-07	410.79	137.41	119.2	40.813	1.4167e-06	50.535	0.00048308	0.00047582	0.00013219	1345.8	5.2715e-06	5.2236e-06	1345.6	362.57	5.2595e-06	5.1651e-06	414.7	139.73	121.12	41.572	5.2007e-06	51.612	156.398	83.260	150.778	69.447	170.266	213.606	69.036	73.716	173.253	212.944	73.426	78.006	78.606	82.916	126.220	82.072	-8191	255	
981.858	1	1	0	0	0.25484	0.29671	0.017325	0.23715	0.18325	0.082844	0.20913	0.16296	0.076538	0.08746	0.095578	0.11922	0.27327	0.11461	0.0073201	0.092705	-0.24792	-1.275	-1.4438	-0.86042	-1.5979	-0.9625	-1.4937	-1.8458	-0.80208	-1.3292	-1.2229	-0.84583	-1.8646	-0.95417	-0.93125	-1.8375	261.055	252.612	279.016	396.749	186.052	333.172	268.719	237.714	102.794	394.868	414.160	409.446	60.072	247.873	325.494	259.040	0.00053903	0.00018374	0.00020386	1334.3	2.6653e-06	4.6571e-06	1337	360.18	5.8054e-06	9.2328e-06	409.81	136.78	119.03	40.847	2.0521e-06	50.851	0.00048083	0.00046575	0.00013123	1346	5.1556e-06	5.1241e-06	1347	363.16	5.1576e-06	5.1004e-06	414.32	139.3	120.93	41.615	5.2137e-06	51.693	156.056	366.840	94.228	69.268	204.868	179.662	69.321	73.945	174.115	150.658	73.076	77.914	78.417	82.843	259.265	82.135	-8191	255	
981.954	1	1	0	0	0.38933	0.071106	0.20876	0.24945	0.10475	0.25643	0.23039	0.2084	0.018212	0.18686	0.17688	0.19244	0.1406	0.19634	0.2156	0.064595	-0.39167	-1.2583	-1.2125	-0.7875	-1.7104	-0.86458	-1.1729	-1.7167	-0.80833	-1.2687	-1.5396	-0.87083	-1.5042	-0.94583	-1.0063	-1.5208	312.046	290.192	67.207	380.117	333.472	279.484	379.504	408.073	331.968	91.767	383.678	300.424	97.507	399.932	241.935	276.725	0.00040028	0.00038209	0.00025784	1337.3	5.9274e-06	9.0109e-06	1334.7	358.94	6.8703e-06	1.9694e-06	411.51	136.77	118.92	40.867	9.7167e-06	50.993	0.00047199	0.0004687	0.00013177	1347	5.181e-06	5.1449e-06	1346.7	362.89	5.1633e-06	5.1656e-06	415.18	139.27	120.96	41.632	5.3079e-06	51.692	156.361	129.921	179.508	69.306	207.292	205.221	69.219	73.853	294.546	361.819	73.254	77.636	78.515	83.088	222.000	82.086	-8191	255	
982.028	1	1	0	0	0.22524	0.30527	0.24188	0.15168	0.15226	0.057273	0.41767	0.064882	0.21356	0.22947	0.22584	0.24421	0.37786	0.26238	0.16297	0.39313	-0.33333	-1.0688	-1.5125	-0.83333	-1.4208	-1.1646	-0.8625	-1.8396	-0.88542	-1.15	-1.675	-0.86458	-1.5833	-1.175	-0.65	-1.8667	226.119	277.674	412.942	340.141	278.457	300.893	256.556	170.610	182.420	111.428	380.494	68.012	150.119	364.682	365.994	302.596	0.00039933	0.00039226	0.00014631	1335.7	5.1146e-06	3.9988e-06	1333.9	358.76	6.1222e-06	4.1533e-06	412.89	137.53	119.34	40.855	2.9304e-06	50.891	0.00047405	0.00047716	0.00013336	1346.2	5.2334e-06	5.2012e-06	1347.3	362.86	5.2075e-06	5.2063e-06	415.32	139.6	120.97	41.653	5.2635e-06	51.757	146.013	158.624	76.184	69.469	200.251	213.090	69.137	74.015	207.729	193.262	73.604	77.921	78.391	83.020	254.629	82.167	-8191	255	
982.124	1	1	0	0	0.30485	0.19542	0.10044	0.28257	0.077058	0.19416	0.24488	0.28169	0.13781	0.15334	0.18622	0.38378	0.22102	0.017886	0.13897	0.14912	-0.44583	-0.83333	-1.5604	-0.91042	-1.3583	-1.2229	-0.78542	-1.7042	-0.86667	-0.975	-1.5396	-0.65417	-1.4417	-1.3583	-0.55625	-1.6063	100.306	302.620	77.383	326.307	223.863	402.721	411.540	358.711	136.478	332.944	373.319	396.765	200.758	370.163	255.426	364.827	0.00041794	0.00061096	0.00028707	1331.7	4.4776e-06	6.5028e-06	1337.9	357.56	5.3004e-06	8.2325e-06	410.84	137.62	119.1	40.924	3.2419e-06	50.844	0.00047364	0.00047933	0.00013447	1344.9	5.2221e-06	5.3146e-06	1347.4	362.76	5.2716e-06	5.3284e-06	415.77	139.57	120.98	41.675	5.3856e-06	51.79	144.158	184.332	123.944	69.235	222.068	239.683	69.055	73.948	181.571	201.218	73.475	77.901	78.400	83.172	162.193	82.224	-8191	255	
982.243	1	1	0	0	0.1849	0.19915	0.18927	0.18451	0.2319	0.15971	0.18134	0.12622	0.091087	0.23224	0.20198	0.24152	0.063176	0.26957	0.097589	0.33678	-0.54583	-0.82917	-1.4708	-0.72083	-1.0208	-1.5125	-0.84375	-1.725	-1.1958	-0.89583	-1.8563	-0.94375	-1.2917	-1.5146	-0.83958	-1.65	336.410	323.837	255.669	214.839	128.790	390.271	383.236	336.958	249.612	232.161	333.910	362.422	235.844	365.700	246.697	339.331	0.000423	0.0009623	9.7943e-05	1336.4	5.8437e-06	4.1984e-06	1332.1	358.99	5.6362e-06	5.3714e-06	413.46	137.2	119.27	40.859	6.595e-06	50.827	0.0004858	0.00048726	0.00013547	1346.9	5.2945e-06	5.2938e-06	1345.5	363.47	5.2791e-06	5.3225e-06	415.77	139.48	121.2	41.699	5.3644e-06	51.733	154.734	141.465	147.444	69.290	232.033	117.866	69.178	74.034	265.838	68.036	73.413	77.766	78.470	82.824	180.870	82.082	-8191	255	
982.339	1	1	0	0	0.18214	0.26524	0.1065	0.22408	0.24061	0.058154	0.21934	0.26579	0.28177	0.23467	0.056298	0.21874	0.20788	0.22767	0.1291	0.01988	-0.75833	-0.64167	-1.625	-1.0521	-1	-1.6771	-0.8375	-1.5875	-1.2104	-0.75	-1.7812	-1.0083	-1.1667	-1.5896	-0.73333	-1.5083	233.885	215.367	150.227	343.228	266.330	240.140	349.784	301.656	148.644	141.768	374.688	379.835	387.728	107.169	366.537	90.348	0.00048328	0.00034528	0.00018718	1336.7	4.3015e-06	3.3945e-06	1335.5	358.2	3.6387e-06	4.5093e-06	410.89	136.74	118.83	40.773	2.4634e-06	50.803	0.00048291	0.00048879	0.00013352	1346.7	5.2976e-06	5.3092e-06	1346.3	362.63	5.268e-06	5.3379e-06	415.12	139.23	121.08	41.686	5.2927e-06	51.771	158.818	107.812	94.355	69.330	195.783	127.472	69.256	74.114	223.677	139.838	73.510	77.977	78.575	82.838	67.279	82.282	-8191	255	
982.435	1	1	0	0	0.14289	0.2116	0.10486	0.39435	0.22148	0.14015	0.30756	0.074483	0.084346	0.28195	0.32691	0.22211	0.17402	0.19136	0.15772	0.084073	-0.89792	-0.6875	-1.5333	-1.0417	-0.89167	-1.7563	-0.96042	-1.4312	-1.4333	-0.82917	-1.6187	-1.0979	-0.88542	-1.8792	-0.77292	-1.2833	340.134	383.802	104.542	357.059	144.225	278.615	356.792	116.044	414.581	414.530	345.018	127.032	70.461	225.806	213.058	282.849	0.00043074	0.00027587	0.00013022	1336.9	1.5752e-06	4.4329e-06	1330.7	358.91	6.4271e-06	6.8184e-06	410.33	136.58	119.35	40.79	9.1882e-06	50.607	0.00048425	0.00049209	0.00013436	1346.5	5.355e-06	5.3253e-06	1345.1	363.31	5.3755e-06	5.3984e-06	415.83	139.31	121.14	41.688	5.3627e-06	51.791	160.170	172.094	147.164	69.281	209.065	206.398	69.206	74.144	232.643	164.043	73.425	78.147	78.381	82.966	192.546	82.272	-8191	255	
982.556	1	1	0	0	0.17438	0.090353	0.11919	0.1473	0.045179	0.20433	0.12859	0.32018	0.21243	0.17078	0.16045	0.20424	0.080723	0.12768	0.23802	0.13679	-1.0312	-0.72917	-1.6313	-1.3333	-0.88542	-1.6792	-0.87292	-1.0146	-1.5542	-0.6125	-1.4	-1.2167	-0.83958	-1.7458	-0.88333	-1.2938	108.028	403.633	236.855	340.121	377.589	76.406	381.354	337.635	272.066	304.160	298.534	83.735	338.697	234.764	258.517	70.952	0.00039847	0.00068757	0.00011902	1332.4	8.5145e-06	2.6237e-06	1336.7	359.81	2.3112e-06	6.8044e-06	412.86	136.95	119.18	40.868	1.7475e-06	50.586	0.0004913	0.0004935	0.00013636	1345.7	5.4445e-06	5.3954e-06	1348.2	363.67	5.3705e-06	5.4219e-06	416.19	139.45	121.21	41.742	5.3695e-06	51.806	164.487	182.524	116.235	69.259	189.923	208.336	69.107	73.983	265.402	223.340	73.376	77.851	78.364	82.734	222.252	82.207	-8191	255	
982.627	1	1	0	0	0.016319	0.091143	0.33888	0.1069	0.24062	0.20354	0.21704	0.23026	0.10752	0.17821	0.15601	0.051612	0.26194	0.08374	0.17244	0.14799	-1.2229	-0.68125	-1.3083	-1.4229	-0.7125	-1.5812	-1.175	-1.1187	-1.5063	-0.6625	-1.5042	-1.3333	-0.74167	-1.5688	-0.96875	-1.0667	110.982	230.272	233.081	65.735	138.568	177.390	250.073	324.298	137.421	170.002	227.266	327.258	343.852	83.055	362.391	212.235	0.00041694	0.00032898	0.00019172	1334.2	3.0228e-06	7.2033e-07	1337.6	359.33	3.3559e-06	5.9651e-06	410.17	137.28	118.94	41.09	2.3852e-06	50.943	0.00049915	0.00049575	0.0001365	1347.5	5.4705e-06	5.4224e-06	1347	363.89	5.4519e-06	5.4323e-06	416.23	139.69	121.28	41.793	5.3788e-06	51.816	164.151	101.099	120.646	69.309	146.679	243.138	69.094	74.075	235.178	164.881	73.534	77.621	78.394	83.052	171.875	82.484	-8191	255	
982.724	1	1	0	0	0.22598	0.3793	0.11864	0.24076	0.23248	0.40042	0.42718	0.18165	0.084821	0.080208	0.020463	0.043362	0.093317	0.17626	0.17619	0.29518	-1.1646	-0.64792	-1.1333	-1.6333	-0.60625	-1.5562	-1.1708	-0.93958	-1.6063	-0.68333	-1.1979	-1.7062	-0.76875	-1.4792	-0.93542	-0.91458	109.979	183.369	196.838	331.011	357.499	275.591	363.420	255.974	142.636	398.092	168.968	155.089	337.860	324.823	382.169	306.551	0.00045574	0.00054611	0.00012537	1334.1	6.2775e-06	7.8868e-06	1335	358.31	2.7309e-06	7.4856e-06	412.13	136.86	119.45	40.933	4.6001e-06	50.85	0.00049267	0.00049364	0.00013651	1347.2	5.4974e-06	5.4045e-06	1347.3	363.68	5.4545e-06	5.4202e-06	416.44	139.88	121.27	41.78	5.4238e-06	51.865	146.034	169.829	83.572	69.262	190.547	133.747	69.305	74.116	296.026	201.153	73.612	78.083	78.560	83.075	232.879	81.965	-8191	255	
982.844	1	1	0	0	0.050446	0.10972	0.17017	0.37413	0.054917	0.35598	0.14683	0.090596	0.090689	0.16385	0.512	0.25253	0.1237	0.22799	0.093	0.045316	-1.1083	-0.68125	-1.175	-1.5521	-0.71042	-1.5646	-1.3896	-0.83542	-1.4354	-0.90208	-1.0917	-1.5479	-0.77917	-1.4396	-1.1896	-0.96667	276.952	229.332	272.440	337.293	66.967	406.547	187.961	190.069	86.548	326.927	352.978	286.415	408.945	285.203	392.024	117.613	0.00049882	0.00044931	0.0002271	1339.9	1.9553e-06	3.2115e-06	1333.8	360.2	6.4337e-06	1.4314e-06	410.1	136.62	119.5	41.136	3.193e-06	50.815	0.00049715	0.00049121	0.00013699	1348.8	5.4269e-06	5.3545e-06	1346.5	364.13	5.4198e-06	5.385e-06	415.78	139.85	121.42	41.859	5.4516e-06	51.925	156.701	186.779	133.787	69.228	235.432	176.363	69.407	73.935	202.732	226.747	73.413	77.828	78.265	82.865	215.025	82.107	-8191	255	
982.940	1	1	0	0	0.052055	0.11378	0.081973	0.13831	0.033042	0.21118	0.21916	0.25248	0.33493	0.059928	0.12332	0.31891	0.45615	0.10601	0.29297	0.090371	-1.1771	-0.84792	-0.81875	-1.6271	-0.68125	-1.3396	-1.3875	-0.64167	-1.5104	-0.81667	-1.15	-1.6729	-0.64375	-1.3062	-1.2542	-0.75	298.570	247.463	372.532	326.950	162.661	249.146	262.759	360.818	247.489	182.858	397.049	106.279	409.512	371.934	74.620	113.814	0.00053331	0.001003	6.9835e-05	1331.6	5.6158e-06	2.4493e-06	1336.4	359.56	1.34e-06	5.4503e-06	413.99	136.72	118.83	40.989	3.4078e-06	50.842	0.00049971	0.00048854	0.00013877	1346.4	5.4053e-06	5.4248e-06	1348.1	364.07	5.4122e-06	5.4251e-06	417.14	139.83	121.24	41.841	5.4833e-06	51.96	157.078	189.214	283.630	69.421	295.120	206.123	69.133	73.948	225.557	141.009	73.627	77.825	78.525	82.924	198.184	82.127	-8191	255	
983.035	1	1	0	0	0.11888	0.31104	0.087752	0.18445	0.080427	0.26717	0.44874	0.27797	0.28579	0.17621	0.27709	0.19541	0.24313	0.14837	0.074991	0.052372	-1.0896	-0.98542	-0.625	-1.7646	-0.61667	-1.0792	-1.6688	-0.79167	-1.3687	-1.0063	-0.74375	-1.6167	-0.78125	-1.2458	-1.4458	-0.7625	73.060	340.580	364.969	368.576	168.985	372.088	355.353	378.124	230.765	193.594	363.889	81.085	79.615	160.122	287.600	99.420	0.00036598	0.00043027	0.00020283	1331.8	2.3295e-06	6.2293e-06	1339.5	358.85	3.6234e-06	5.1741e-06	412.03	137.67	119.04	40.874	6.1431e-06	50.924	0.00049367	0.00049352	0.00013933	1347	5.3902e-06	5.4094e-06	1348.6	363.85	5.3806e-06	5.4249e-06	416.76	139.74	121.16	41.805	5.4836e-06	51.965	152.852	136.222	172.539	69.336	173.416	147.393	69.243	73.814	226.268	179.431	73.551	77.998	78.294	83.101	203.171	82.432	-8191	255	
983.133	1	1	0	0	0.12962	0.21158	0.17747	0.16592	0.15573	0.10556	0.48731	0.044318	0.11273	0.18963	0.3992	0.0090971	0.31064	0.19601	0.092221	0.27322	-1.0083	-1.0792	-0.79583	-1.8687	-0.73958	-0.87083	-1.8042	-0.71458	-1.4333	-1.2479	-0.75208	-1.75	-0.9	-1.1521	-1.6125	-0.59375	152.069	386.109	353.487	370.745	144.776	372.093	396.657	56.893	209.040	102.536	361.605	337.378	392.382	371.591	73.814	332.355	0.00048735	0.00076091	0.00023667	1330.6	6.3625e-06	1.2398e-05	1332.7	358.58	5.2672e-06	1.4184e-06	412.45	137.35	119.07	41.026	7.4725e-06	50.788	0.00048804	0.00049075	0.00013779	1346.7	5.3493e-06	5.387e-06	1347.4	363.76	5.3492e-06	5.3881e-06	417.4	139.75	121.35	41.85	5.4351e-06	51.853	150.357	160.685	141.812	69.420	211.476	193.444	69.063	73.779	245.390	121.070	73.380	77.757	78.183	82.855	202.789	82.034	-8191	255	
983.252	1	1	0	0	0.088847	0.031852	0.19669	0.20176	0.27055	0.17295	0.037075	0.48537	0.25438	0.16865	0.22289	0.14723	0.099569	0.28958	0.075799	0.157	-1.1042	-1.2854	-0.53333	-1.7563	-1.025	-0.98542	-1.4958	-0.79167	-1.1271	-1.3021	-0.77708	-1.8354	-1.1542	-0.82083	-1.5479	-0.81875	323.675	255.538	220.754	63.249	84.266	289.397	376.599	391.069	320.688	86.291	368.248	138.094	83.625	67.657	327.227	351.800	0.00046522	0.0010185	0.00015914	1335.1	8.4921e-06	5.4833e-07	1335.3	359.56	1.458e-06	4.8216e-06	409.65	136.6	119.35	41.007	2.4728e-06	50.726	0.00048881	0.00049079	0.00013555	1346	5.282e-06	5.3015e-06	1346.8	363.59	5.2311e-06	5.2707e-06	414.7	139.38	120.83	41.767	5.1921e-06	51.751	164.275	159.315	102.276	69.504	158.615	407.031	69.227	73.859	143.619	143.078	73.425	77.820	78.567	82.955	256.052	82.206	-8191	255	
983.323	1	1	0	0	0.23225	0.046348	0.079366	0.38132	0.036118	0.25524	0.5249	0.23277	0.21317	0.19726	0.14369	0.021167	0.24349	0.084419	0.16847	0.19407	-0.82292	-1.4458	-0.55625	-1.65	-1.0958	-0.89583	-1.7146	-0.84375	-1.1208	-1.4667	-0.76667	-1.5167	-1.2437	-0.67292	-1.7771	-0.86875	384.068	357.715	90.899	353.397	295.148	209.252	363.187	317.116	413.038	356.406	245.117	365.161	94.309	58.903	102.001	347.169	0.00043529	0.00030698	6.4012e-05	1335.2	8.4653e-06	3.5654e-06	1331.5	359.12	3.5049e-06	5.0973e-06	411.31	137.43	119.3	40.831	3.8928e-06	50.819	0.00047171	0.0004763	0.00013263	1346.1	5.1508e-06	5.2125e-06	1344.8	362.85	5.1993e-06	5.2358e-06	416.16	139.65	121.04	41.652	5.2029e-06	51.721	156.154	171.159	390.087	69.192	191.306	231.012	69.251	74.238	239.608	221.198	73.360	77.957	78.332	83.033	391.704	82.001	-8191	255	
983.444	1	1	0	0	0.21459	0.20688	0.1883	0.16492	0.14417	0.08642	0.3991	0.18878	0.11529	0.27032	0.13692	0.20434	0.22693	0.13684	0.080209	0.2877	-0.71667	-1.5646	-0.38958	-1.5771	-1.1667	-0.67083	-2.0167	-1.0875	-1	-1.5167	-0.83333	-1.3667	-1.3792	-0.69375	-1.4771	-1.0146	260.198	78.462	249.839	386.981	172.940	226.432	377.214	347.327	59.854	96.604	331.460	413.629	240.066	274.447	178.173	362.698	0.00038806	0.00052568	3.0697e-05	1327.9	3.4493e-06	5.2628e-06	1330.5	358.43	3.3861e-06	6.6704e-06	411.7	137.22	119.07	40.918	1.4714e-06	50.535	0.00047357	0.00047666	0.00013077	1344.4	5.206e-06	5.2273e-06	1345.3	363.08	5.2264e-06	5.2343e-06	414.78	139.58	120.96	41.714	5.2285e-06	51.65	154.541	135.106	62.336	69.247	185.378	194.600	69.216	73.807	168.045	123.057	73.295	77.906	78.262	82.792	263.932	81.945	-8191	255	
983.540	1	1	0	0	0.29514	0.18691	0.12739	0.25054	0.43666	0.53406	0.13561	0.09853	0.1093	0.11881	0.26453	0.064479	0.14057	0.24601	0.23659	0.47905	-0.51875	-1.5938	-0.61667	-1.6646	-1.5583	-0.48333	-1.6333	-1.0604	-1.0312	-1.7521	-0.91667	-1.2854	-1.4937	-0.7125	-1.5771	-1.1688	82.839	352.862	196.614	347.132	126.592	73.686	61.044	59.027	243.591	216.713	342.518	270.918	411.221	281.811	387.525	383.403	0.00044595	0.00041558	0.00014779	1331.5	6.1498e-06	4.196e-06	1329	356.35	2.1858e-06	3.7204e-06	409.04	136.32	118.38	40.917	2.4386e-06	50.856	0.00047727	0.00047637	0.0001303	1344.4	5.2076e-06	5.212e-06	1344.6	362.69	5.2076e-06	5.1909e-06	414.44	139.37	120.85	41.641	5.1724e-06	51.701	164.007	133.696	122.767	69.428	213.197	206.580	69.195	73.794	179.813	181.546	73.607	77.967	78.248	82.822	177.980	81.828	-8191	255	
983.636	1	1	0	0	0.16016	0.078171	0.14503	0.45657	0.23388	0.077602	0.13598	0.23802	0.18842	0.18521	0.04913	0.086181	0.47183	0.14249	0.068701	0.26485	-0.37917	-1.7021	-0.88958	-1.2083	-1.6375	-0.67292	-1.5979	-1.4458	-0.67708	-1.5042	-0.80417	-0.97083	-1.6354	-0.6875	-1.4688	-1.3604	412.566	392.638	292.101	361.807	343.254	330.076	328.623	115.083	146.807	409.134	94.773	106.748	387.237	355.261	77.478	250.554	0.00044207	0.00079994	0.00019836	1332.7	5.6283e-06	7.4451e-06	1332.8	357.83	2.9626e-06	9.9758e-06	412.77	136.82	119.24	40.934	5.1874e-06	50.783	0.00047569	0.00047189	0.00013029	1344.6	5.1917e-06	5.1566e-06	1346	362.2	5.1924e-06	5.1292e-06	414.76	139.48	121.18	41.669	5.081e-06	51.666	156.716	159.882	93.411	69.258	187.924	277.376	69.248	73.857	241.650	244.348	73.328	77.905	78.402	83.040	216.200	82.225	-8191	255	
983.732	1	1	0	0	0.15622	0.18822	0.1137	0.14171	0.2259	0.1331	0.1561	0.33141	0.22982	0.33762	0.21706	0.16833	0.16157	0.37196	0.1804	0.19658	-0.31458	-1.5021	-0.71875	-1.1125	-1.5063	-0.37917	-1.4542	-1.3167	-0.60625	-1.5604	-1.125	-1.1208	-1.6604	-0.70833	-1.2104	-1.5375	85.379	64.774	115.006	390.937	288.778	185.733	382.444	405.508	320.115	220.304	375.241	330.946	359.184	350.864	275.865	381.272	0.00046265	0.00046232	9.5833e-05	1335.3	1.9916e-06	6.1797e-06	1334.8	357.7	1.8937e-06	5.6275e-06	411.4	137.32	118.92	40.726	3.4812e-06	50.86	0.00046942	0.0004654	0.00012879	1345.2	5.1324e-06	5.0809e-06	1344.2	362.74	5.2042e-06	5.1122e-06	415.7	139.57	121.08	41.609	5.1633e-06	51.705	155.153	237.621	63.803	69.299	259.338	197.199	69.264	74.148	198.959	147.042	73.317	78.089	78.490	82.910	194.118	81.978	-8191	255	
983.853	1	1	0	0	0.19678	0.38115	0.12	0.28416	0.2103	0.33115	0.10056	0.092399	0.053549	0.1747	0.061122	0.097873	0.071512	0.19198	0.095862	0.34162	-0.40833	-1.6729	-1.0063	-1.0729	-1.575	-0.8625	-1.5396	-1.8875	-0.47708	-1.5542	-1.0521	-0.85	-1.5875	-0.90208	-1.2292	-1.7146	372.678	67.831	147.409	406.524	406.507	285.854	342.476	182.494	160.500	358.183	107.548	365.413	329.950	241.770	341.406	374.243	0.0003812	0.0010591	0.00017863	1331.6	2.9177e-06	8.2797e-06	1335.8	358.27	5.9765e-06	7.0309e-06	409.81	136.79	119.36	40.82	4.638e-06	50.788	0.00047501	0.00046835	0.00013037	1345.6	5.2012e-06	5.1174e-06	1345.8	362.57	5.2038e-06	5.1212e-06	415.08	139.46	121.05	41.585	5.176e-06	51.696	153.822	161.353	168.654	69.377	187.596	252.714	69.226	74.124	199.986	150.972	73.426	77.677	78.597	83.065	249.992	82.197	-8191	255	
983.925	1	1	0	0	0.29808	0.16584	0.099492	0.39727	0.12264	0.11169	0.26519	0.2364	0.15656	0.1643	0.098095	0.14378	0.20189	0.11194	0.078733	0.22376	-0.35625	-1.6271	-1.125	-1.225	-1.5812	-0.82708	-1.0167	-1.6667	-0.74583	-1.5208	-1.4542	-1.0187	-1.5458	-0.975	-0.90417	-1.6542	351.408	219.750	233.175	388.815	101.440	184.896	402.828	379.865	229.051	348.685	388.516	335.608	367.238	389.743	359.593	326.532	0.00040206	0.00047893	6.6551e-05	1335.8	5.9382e-06	1.1691e-06	1335	358.39	3.1283e-06	4.291e-06	411.86	137.17	119.68	40.902	3.8498e-06	50.723	0.00047358	0.00046489	0.0001298	1346.5	5.1611e-06	5.0839e-06	1345.7	362.85	5.17e-06	5.1071e-06	415.04	139.44	121.16	41.612	5.2085e-06	51.705	163.123	177.928	144.655	69.409	198.706	204.940	69.064	74.202	221.014	164.213	73.540	77.652	78.246	82.826	180.765	82.121	-8191	255	
984.021	1	1	0	0	0.11718	0.12862	0.10168	0.1832	0.044416	0.24238	0.11706	0.17158	0.19063	0.11676	0.15973	0.24586	0.12106	0.24074	0.15645	0.090959	-0.37083	-1.1958	-1.2958	-0.69375	-1.3979	-1.0146	-1.0354	-1.7167	-0.71667	-1.25	-1.4625	-0.69792	-1.4521	-1.1208	-0.71875	-1.6688	66.777	113.629	354.065	362.767	310.175	248.127	415.620	83.674	351.374	389.793	73.801	405.855	381.414	368.122	316.590	355.031	0.00042619	0.00085647	6.3551e-05	1331.4	8.2188e-06	8.9196e-06	1335.6	359.79	8.4754e-07	6.0173e-06	412.9	136.7	119.27	41.055	4.1853e-06	51.098	0.00047152	0.00046754	0.00013138	1346	5.0868e-06	5.1248e-06	1346.7	363.2	5.1399e-06	5.1297e-06	415.69	139.32	121.15	41.689	5.2107e-06	51.869	151.597	161.534	224.912	69.363	198.780	210.601	69.230	74.027	257.481	189.933	73.497	78.003	78.555	83.056	165.228	82.179	-8191	255	
984.117	1	1	0	0	0.25371	0.19184	0.079112	0.34204	0.062135	0.067495	0.20198	0.24021	0.040441	0.26907	0.13999	0.12421	0.1685	0.26007	0.19265	0.15334	-0.27292	-1.3438	-1.4125	-0.91458	-1.5417	-1.2167	-0.97083	-1.6708	-0.72917	-1.1625	-1.5917	-0.81042	-1.5646	-1.2042	-0.66875	-1.6396	146.304	201.607	118.911	63.599	70.134	238.297	406.991	398.152	235.075	234.156	407.935	202.681	134.367	64.635	81.690	334.724	0.0003955	0.00081319	0.00011492	1338.8	9.3352e-06	3.1753e-06	1335.2	359.62	4.3572e-06	5.4335e-06	410.87	136.85	119.35	40.908	9.0361e-06	50.759	0.00046744	0.00046805	0.00013117	1346.4	5.1388e-06	5.1724e-06	1346	363.68	5.1196e-06	5.1766e-06	415.34	139.31	121.21	41.722	5.2531e-06	51.765	143.101	161.831	81.623	69.167	207.371	333.870	69.294	74.220	215.784	212.534	73.375	77.946	78.569	82.989	203.571	82.309	-8191	255	
984.213	1	1	0	0	0.067849	0.14147	0.21075	0.054149	0.18281	0.066417	0.21149	0.22381	0.088192	0.071509	0.4363	0.16255	0.051938	0.17786	0.1928	0.17545	-0.60417	-1.1125	-1.5979	-0.89583	-1.3312	-1.2417	-0.84167	-1.8125	-0.89792	-0.94792	-1.55	-0.75	-1.4104	-1.3687	-0.725	-1.6896	267.542	406.737	330.508	224.960	155.362	317.782	358.140	405.518	252.039	124.211	309.678	303.901	275.989	382.393	86.959	344.440	0.00046164	0.00029852	0.0002006	1334.5	9.1802e-06	2.2568e-06	1334.2	358.73	3.5069e-06	8.8703e-06	412.98	137.24	119.42	40.885	1.9801e-06	50.646	0.00047589	0.00047515	0.00013239	1346.2	5.197e-06	5.2241e-06	1345.1	363.77	5.1587e-06	5.2383e-06	416.03	139.51	121.15	41.694	5.27e-06	51.67	158.409	209.766	127.491	69.444	170.946	251.096	69.148	74.104	155.884	201.606	73.398	77.827	78.571	83.050	201.514	82.430	-8191	255	
984.332	1	1	0	0	0.096296	0.33827	0.32556	0.091662	0.084763	0.14824	0.26353	0.42007	0.07725	0.079419	0.288	0.04222	0.23218	0.3747	0.16565	0.082935	-0.6875	-0.79792	-1.4792	-0.9	-1.3583	-1.4292	-0.8375	-1.6771	-1.2458	-0.77917	-1.8188	-0.81458	-1.3104	-1.7729	-0.72083	-1.7125	399.272	263.421	383.231	355.379	223.169	293.113	347.941	233.621	280.199	401.831	392.954	330.815	71.861	89.055	218.167	264.559	0.00048834	0.00094465	8.2521e-05	1335.2	7.7976e-06	3.7012e-06	1336.3	359.09	6.5835e-06	6.268e-06	411.8	137.13	119.44	40.965	1.5253e-06	51.024	0.0004729	0.00047637	0.00013291	1345.1	5.2162e-06	5.2066e-06	1346.8	363.33	5.199e-06	5.2637e-06	415.49	139.55	121.24	41.733	5.3074e-06	51.813	169.572	178.286	58.375	69.353	202.441	259.216	69.090	74.035	196.798	190.186	73.396	77.820	78.511	82.664	295.192	82.252	-8191	255	
984.428	1	1	0	0	0.30127	0.33635	0.088062	0.14637	0.19479	0.040426	0.12395	0.16743	0.29672	0.64781	0.08892	0.14302	0.15333	0.18804	0.10493	0.23438	-0.70833	-0.87083	-1.5688	-1.1021	-0.98333	-1.5104	-0.73125	-1.475	-0.98333	-0.78333	-1.5583	-1.1083	-1.1125	-1.6479	-0.63958	-1.4979	354.193	140.294	315.888	90.340	345.758	256.244	312.728	374.606	389.818	64.218	89.497	402.135	121.257	79.092	345.257	375.013	0.00044026	0.00071138	0.00017762	1331.4	7.0675e-06	2.2825e-06	1332.2	358.52	2.9302e-06	4.8719e-06	413.62	137.05	119	40.863	5.4018e-06	51.017	0.00047897	0.00048104	0.00013267	1345.5	5.2433e-06	5.2755e-06	1344.6	363.18	5.2258e-06	5.2724e-06	416.89	139.43	121.2	41.673	5.2507e-06	51.827	156.273	116.983	176.472	69.204	227.941	229.460	69.190	74.018	200.145	165.928	73.446	77.871	78.301	82.981	264.279	82.201	-8191	255	
984.524	1	1	0	0	0.14364	0.12664	0.21273	0.24536	0.21597	0.1697	0.040785	0.20644	0.26018	0.16551	0.30896	0.086937	0.12847	0.085978	0.15275	0.040617	-0.84792	-0.69583	-1.475	-1.2125	-0.95208	-1.5583	-0.95	-1.3833	-1.3792	-0.74583	-1.7417	-1.0479	-0.99167	-1.9125	-0.8	-1.3271	275.119	153.463	294.925	383.584	346.109	415.722	242.324	331.571	277.518	206.280	340.034	409.680	384.183	409.558	379.521	215.842	0.00040289	0.00077108	0.00021083	1336.7	7.4126e-06	7.5031e-06	1337.9	358.3	4.1693e-06	4.228e-06	410.73	136.71	119.17	40.869	4.6904e-06	50.977	0.0004738	0.0004773	0.00013168	1346.1	5.1891e-06	5.2047e-06	1347	363.24	5.2186e-06	5.2341e-06	415.89	139.57	121.22	41.702	5.1907e-06	51.832	151.548	165.959	107.457	69.150	205.494	225.808	69.161	74.047	326.821	196.430	73.474	77.951	78.514	82.831	248.639	82.235	-8191	255	
984.620	1	1	0	0	0.18736	0.27278	0.11708	0.25578	0.052343	0.12191	0.37784	0.14062	0.30983	0.17156	0.30028	0.29986	0.13533	0.14272	0.21907	0.11847	-0.88958	-0.45833	-1.5063	-0.99792	-0.79375	-1.4542	-0.92083	-1.3417	-1.3854	-0.64792	-1.6375	-1.1021	-0.95	-1.5167	-0.925	-1.1562	402.810	345.931	379.626	117.592	304.432	179.491	347.417	409.821	346.230	309.389	71.728	139.547	254.817	293.297	272.364	336.474	0.00042822	0.00030589	0.00016662	1331.2	4.6801e-06	3.534e-06	1328.5	357.1	3.8436e-06	1.2767e-06	409.64	136.86	118.49	40.66	8.1045e-06	50.452	0.00048124	0.00047853	0.00013142	1345.5	5.27e-06	5.2534e-06	1344.1	362.52	5.2525e-06	5.2464e-06	414.74	139.53	121.17	41.717	5.2231e-06	51.73	160.557	381.332	244.427	69.353	195.271	288.959	69.428	74.116	170.338	140.857	73.647	77.921	78.500	83.007	181.201	82.097	-8191	255	
984.717	1	1	0	0	0.10393	0.14756	0.096855	0.34689	0.10667	0.17674	0.12218	0.37217	0.094845	0.11174	0.20906	0.14259	0.35758	0.16942	0.092742	0.1493	-1.0271	-0.51458	-1.2792	-1.4125	-0.84167	-1.6271	-1.1625	-1.0625	-1.5229	-0.58542	-1.5688	-1.4312	-0.71042	-1.6146	-0.88125	-1.1292	346.789	216.663	353.941	400.375	354.246	381.284	77.391	375.081	212.556	178.657	296.245	57.385	316.945	395.507	84.360	357.954	0.00043562	0.00036536	4.5993e-05	1322	6.3631e-06	3.8707e-06	1331.9	359.39	5.9186e-06	5.7852e-06	413.05	136.9	119.82	40.859	5.2177e-06	50.828	0.00048241	0.00047598	0.00013186	1343.2	5.3173e-06	5.283e-06	1345	363.71	5.3189e-06	5.2942e-06	416.61	139.8	121.56	41.835	5.3087e-06	51.84	152.769	58.865	109.550	69.241	244.490	145.770	69.078	74.054	185.466	135.087	73.819	78.041	78.488	83.229	151.743	82.599	-8191	255	
984.813	1	1	0	0	0.18176	0.03402	0.11676	0.35658	0.091931	0.072277	0.5356	0.13765	0.19706	0.25286	0.25771	0.23127	0.17378	0.091226	0.17011	0.21288	-1.1812	-0.7375	-1.1208	-1.4208	-0.57708	-1.6146	-1.1396	-1.1021	-1.5688	-0.97917	-1.1396	-1.6063	-0.83542	-1.5167	-1.0396	-0.90625	344.317	358.190	222.281	369.992	168.838	174.964	327.182	56.250	218.514	131.569	347.247	327.749	413.462	110.487	372.891	378.206	0.00035532	0.00023367	3.5356e-05	1326.1	6.2428e-06	5.5971e-06	1314.7	354.62	4.4974e-06	4.796e-06	408.21	136.41	118.76	40.863	4.8569e-06	50.706	0.000489	0.00048488	0.00013539	1346.2	5.3594e-06	5.3027e-06	1343.4	363.33	5.352e-06	5.3288e-06	415.89	139.64	121.18	41.717	5.3091e-06	51.844	156.585	339.058	175.516	69.413	226.021	220.669	69.118	74.110	280.905	238.503	73.681	78.054	78.702	83.315	196.477	82.479	-8191	255	
984.933	1	1	0	0	0.21284	0.052738	0.23777	0.45389	0.27771	0.18298	0.34101	0.20417	0.13504	0.10984	0.17253	0.20446	0.44648	0.040857	0.1161	0.19741	-1.3021	-0.78125	-1.0271	-1.6792	-0.49583	-1.3312	-1.3292	-0.925	-1.7167	-0.76875	-0.94167	-1.5979	-0.84583	-1.4542	-1.1833	-0.9125	131.910	247.875	367.946	79.580	103.361	123.996	315.968	342.629	92.701	177.734	374.611	103.199	379.413	327.051	172.381	415.522	0.00045952	0.00052433	0.00019437	1326.6	5.7678e-06	2.7713e-06	1316.1	354.04	2.928e-06	1.2788e-05	411.54	135.84	117.49	40.281	5.9167e-06	50.486	0.00048594	0.00048225	0.00013379	1344.1	5.2725e-06	5.218e-06	1342.4	362.82	5.2445e-06	5.2493e-06	416.09	139.4	120.77	41.59	5.2514e-06	51.885	164.580	173.114	150.219	69.384	183.747	139.937	69.143	74.102	204.641	216.723	73.609	78.147	78.301	82.886	192.474	82.215	-8191	255	
985.028	1	1	0	0	0.14626	0.23698	0.24748	0.15797	0.06386	0.20591	0.30776	0.29015	0.04199	0.27452	0.14015	0.14044	0.38096	0.10623	0.17664	0.17037	-1.375	-0.82083	-0.90417	-1.8333	-0.54792	-1.3062	-1.5854	-0.90625	-1.6583	-1.0479	-0.95208	-1.7083	-0.73125	-1.2812	-1.2583	-0.79167	376.057	117.504	229.978	63.788	334.622	379.452	304.628	355.354	359.238	386.955	404.171	224.108	361.438	318.767	56.510	305.793	0.00039979	0.00046311	0.00010149	1314.2	3.4589e-06	3.1314e-06	1312.5	354.4	5.5809e-06	5.9385e-06	408.61	136.86	118.62	40.814	5.8479e-06	50.625	0.00047569	0.00047385	0.00013254	1343	5.1965e-06	5.1953e-06	1342.3	362.75	5.2056e-06	5.1579e-06	415.48	139.68	120.99	41.711	5.29e-06	51.841	159.234	253.425	280.056	69.263	163.815	257.736	68.842	74.160	259.092	166.844	73.404	77.959	78.348	83.321	165.055	82.476	-8191	255	
985.124	1	1	0	0	0.14845	0.09722	0.33185	0.29657	0.12436	0.10052	0.38238	0.17032	0.17179	0.1856	0.37519	0.26538	0.13305	0.25909	0.048861	0.17726	-1.275	-0.95833	-0.84375	-2.0792	-0.76667	-1.45	-1.6083	-0.86667	-1.6021	-1.1229	-1.0063	-1.7896	-1.0042	-1.1021	-1.5396	-0.60833	226.894	399.911	353.303	311.061	358.444	182.646	366.490	369.285	253.955	250.206	284.473	69.685	376.966	396.093	97.599	386.811	0.00043067	0.00051594	0.00020732	1335.8	7.4231e-06	5.6732e-06	1333.7	358.26	7.1866e-06	9.8235e-06	411.9	137.47	119.18	40.903	4.0879e-06	50.806	0.0004776	0.00047183	0.00013213	1347.8	5.2426e-06	5.1908e-06	1346.6	363.33	5.2053e-06	5.1913e-06	415.9	139.58	121.17	41.711	5.2978e-06	51.805	159.246	140.397	173.842	69.636	185.417	207.698	69.493	74.278	208.186	180.212	73.759	78.299	78.596	83.083	167.145	82.651	-8191	255	
985.220	1	1	0	0	0.089688	0.17722	0.29121	0.30006	0.228	0.24754	0.10751	0.01621	0.098169	0.34817	0.09869	0.27705	0.064819	0.28326	0.20116	0.12701	-1.0708	-1.175	-0.66667	-1.7979	-0.71458	-1.1854	-1.6812	-0.82917	-1.4896	-1.1187	-0.67917	-1.7	-1.0562	-1.0312	-1.5042	-0.91042	117.114	229.909	172.037	364.988	393.522	349.123	330.250	281.708	131.727	371.986	371.160	415.703	164.720	405.525	403.161	300.470	0.00041655	0.00053161	0.00015554	1336.7	3.2769e-06	2.8919e-06	1333.7	358.92	4.5857e-06	1.6704e-06	412.22	137.13	119.27	40.911	5.5248e-06	50.909	0.00047369	0.00047239	0.00013321	1347	5.1373e-06	5.2224e-06	1346.1	363.21	5.1702e-06	5.1772e-06	416.24	139.63	121.2	41.737	5.2486e-06	51.834	162.173	89.851	127.017	69.643	151.683	239.671	69.473	74.598	176.157	137.430	73.628	78.462	78.947	83.410	174.543	82.693	-8191	255	
#DATA ENDS
