BOXY.EXE: ISS Imagent and Oximeter Data Acquisition Program Version 0.80
Ascii Record File

#ACQ INFORMATION
2  Detector Channels 
16  External MUX Channels 
1  Auxiliary Channels 
5000  Waveform (CCF) Frequency (Hz)
1  Waveforms Skipped 
30  Waveforms Averaged 
1  Cycles Averaged 
16  Acquisitions per Waveform 
10.0806  Updata Rate (Hz) 

#FILE INFORMATION
TRUE -- External MUX Channel results are PARSED.
FALSE -- AC DC and Phase are NOT grouped.
TRUE -- Companion Program Settings File CREATED.
FALSE -- AC data not excluded
FALSE -- DC data not excluded
FALSE -- Phase data not excluded
FALSE -- Auxillary Chn. data not excluded
Tab delimiters

#CALIBRATION STATE
TRUE -- Waveform Calibration Values APPLIED.


#AUX CALIBRATION VALUES
Val Type	aux-1	

Term	1.0000e+00	
Factor	0.0000e+00	


#WF CALIBRATION VALUES
A = Detector Channel
Val Type	A-AC1	A-AC2	A-AC3	A-AC4	A-AC5	A-AC6	A-AC7	A-AC8	A-AC9	A-AC10	A-AC11	A-AC12	A-AC13	A-AC14	A-AC15	A-AC16	A-DC1	A-DC2	A-DC3	A-DC4	A-DC5	A-DC6	A-DC7	A-DC8	A-DC9	A-DC10	A-DC11	A-DC12	A-DC13	A-DC14	A-DC15	A-DC16	A-Ph1	A-Ph2	A-Ph3	A-Ph4	A-Ph5	A-Ph6	A-Ph7	A-Ph8	A-Ph9	A-Ph10	A-Ph11	A-Ph12	A-Ph13	A-Ph14	A-Ph15	A-Ph16	

Term	0.00000e+00	0.00000e+00	0.00000e+00	0.00000e+00	0.00000e+00	0.00000e+00	0.00000e+00	0.00000e+00	0.00000e+00	0.00000e+00	0.00000e+00	0.00000e+00	0.00000e+00	0.00000e+00	0.00000e+00	0.00000e+00	0.00000e+00	0.00000e+00	0.00000e+00	0.00000e+00	0.00000e+00	0.00000e+00	0.00000e+00	0.00000e+00	0.00000e+00	0.00000e+00	0.00000e+00	0.00000e+00	0.00000e+00	0.00000e+00	0.00000e+00	0.00000e+00	0.00000e+00	0.00000e+00	0.00000e+00	0.00000e+00	0.00000e+00	0.00000e+00	0.00000e+00	0.00000e+00	0.00000e+00	0.00000e+00	0.00000e+00	0.00000e+00	0.00000e+00	0.00000e+00	0.00000e+00	0.00000e+00	
Factor	1.00000e+00	1.00000e+00	1.00000e+00	1.00000e+00	1.00000e+00	1.00000e+00	1.00000e+00	1.00000e+00	1.00000e+00	1.00000e+00	1.00000e+00	1.00000e+00	1.00000e+00	1.00000e+00	1.00000e+00	1.00000e+00	1.00000e+00	1.00000e+00	1.00000e+00	1.00000e+00	1.00000e+00	1.00000e+00	1.00000e+00	1.00000e+00	1.00000e+00	1.00000e+00	1.00000e+00	1.00000e+00	1.00000e+00	1.00000e+00	1.00000e+00	1.00000e+00	X	X	X	X	X	X	X	X	X	X	X	X	X	X	X	X	

B = Detector Channel
Val Type	B-AC1	B-AC2	B-AC3	B-AC4	B-AC5	B-AC6	B-AC7	B-AC8	B-AC9	B-AC10	B-AC11	B-AC12	B-AC13	B-AC14	B-AC15	B-AC16	B-DC1	B-DC2	B-DC3	B-DC4	B-DC5	B-DC6	B-DC7	B-DC8	B-DC9	B-DC10	B-DC11	B-DC12	B-DC13	B-DC14	B-DC15	B-DC16	B-Ph1	B-Ph2	B-Ph3	B-Ph4	B-Ph5	B-Ph6	B-Ph7	B-Ph8	B-Ph9	B-Ph10	B-Ph11	B-Ph12	B-Ph13	B-Ph14	B-Ph15	B-Ph16	

Term	0.00000e+00	0.00000e+00	0.00000e+00	0.00000e+00	0.00000e+00	0.00000e+00	0.00000e+00	0.00000e+00	0.00000e+00	0.00000e+00	0.00000e+00	0.00000e+00	0.00000e+00	0.00000e+00	0.00000e+00	0.00000e+00	0.00000e+00	0.00000e+00	0.00000e+00	0.00000e+00	0.00000e+00	0.00000e+00	0.00000e+00	0.00000e+00	0.00000e+00	0.00000e+00	0.00000e+00	0.00000e+00	0.00000e+00	0.00000e+00	0.00000e+00	0.00000e+00	-1.31583e+02	-1.21578e+02	-1.40012e+02	-1.81298e+02	-8.87385e+01	-6.29981e+01	-1.57795e+02	-1.62015e+02	-6.94921e+01	-9.60310e+01	-1.75953e+02	-1.70521e+02	-1.80371e+02	-1.76072e+02	-6.81803e+01	-1.48893e+02	
Factor	1.93261e-05	1.42640e-04	3.75110e-05	1.68919e-01	1.12948e-06	1.23653e-06	1.80120e-01	7.03469e-02	1.11070e-06	1.40164e-06	1.16901e-01	3.27342e-02	2.64059e-02	1.04235e-02	1.14977e-06	1.44954e-02	1.13826e-06	1.18118e-06	3.28429e-07	8.21832e-02	1.29226e-08	1.29492e-08	8.20368e-02	3.39068e-02	1.29380e-08	1.29875e-08	5.34765e-02	1.52769e-02	1.27878e-02	5.00872e-03	1.30016e-08	6.72239e-03	X	X	X	X	X	X	X	X	X	X	X	X	X	X	X	X	



#DISTANCE SETTINGS
A = Detector Channel
A-1	A-2	A-3	A-4	A-5	A-6	A-7	A-8	A-9	A-10	A-11	A-12	A-13	A-14	A-15	A-16	

2.5000e+00	3.0000e+00	2.5000e+00	3.0000e+00	2.0000e+00	3.0000e+00	1.5000e+00	3.0000e+00	3.0000e+00	3.0000e+00	3.0000e+00	3.0000e+00	3.0000e+00	3.0000e+00	1.5000e+00	3.0000e+00	

B = Detector Channel
B-1	B-2	B-3	B-4	B-5	B-6	B-7	B-8	B-9	B-10	B-11	B-12	B-13	B-14	B-15	B-16	

1.0000e+01	1.0000e+01	1.0000e+01	1.4400e+00	1.0000e+01	1.0000e+01	1.5100e+00	1.9400e+00	1.0000e+01	1.0000e+01	1.9900e+00	2.4900e+00	2.4100e+00	2.9000e+00	1.0000e+01	2.9800e+00	




#DATA BEGINS
time	group	step	mark	flag	A-AC1	A-AC2	A-AC3	A-AC4	A-AC5	A-AC6	A-AC7	A-AC8	A-AC9	A-AC10	A-AC11	A-AC12	A-AC13	A-AC14	A-AC15	A-AC16	A-DC1	A-DC2	A-DC3	A-DC4	A-DC5	A-DC6	A-DC7	A-DC8	A-DC9	A-DC10	A-DC11	A-DC12	A-DC13	A-DC14	A-DC15	A-DC16	A-Ph1	A-Ph2	A-Ph3	A-Ph4	A-Ph5	A-Ph6	A-Ph7	A-Ph8	A-Ph9	A-Ph10	A-Ph11	A-Ph12	A-Ph13	A-Ph14	A-Ph15	A-Ph16	B-AC1	B-AC2	B-AC3	B-AC4	B-AC5	B-AC6	B-AC7	B-AC8	B-AC9	B-AC10	B-AC11	B-AC12	B-AC13	B-AC14	B-AC15	B-AC16	B-DC1	B-DC2	B-DC3	B-DC4	B-DC5	B-DC6	B-DC7	B-DC8	B-DC9	B-DC10	B-DC11	B-DC12	B-DC13	B-DC14	B-DC15	B-DC16	B-Ph1	B-Ph2	B-Ph3	B-Ph4	B-Ph5	B-Ph6	B-Ph7	B-Ph8	B-Ph9	B-Ph10	B-Ph11	B-Ph12	B-Ph13	B-Ph14	B-Ph15	B-Ph16	aux-1	digaux	

2086.002	1	1	0	768	0.08699	0.29598	0.066287	0.15272	0.23012	0.2163	0.16602	0.073583	0.12551	0.14386	0.046988	0.30191	0.023628	0.41697	0.10685	0.28815	-0.33958	-0.95	-0.016667	-0.7875	-1.0146	-0.25625	-1.3458	-0.675	-0.55208	-1.1521	-0.37083	-0.93333	-0.98125	-0.27708	-0.94792	-0.7875	330.986	70.262	55.550	29.685	115.700	357.243	239.294	305.626	167.257	335.457	112.156	282.747	199.645	317.036	44.722	298.070	8.4782e-05	0.0026239	0.00036363	670.75	3.4941e-06	7.9135e-06	1006.1	164.29	3.6543e-06	1.0011e-05	364.23	155.57	69.164	31.958	1.5409e-05	68.405	0.00054848	0.00055565	0.00015562	522.12	6.2002e-06	6.1934e-06	773.15	133.86	6.0858e-06	5.9957e-06	278.48	118.6	55.123	25.14	6.0931e-06	52.16	190.622	103.038	70.963	14.261	273.047	48.169	14.208	18.582	219.869	92.805	18.029	22.688	24.926	27.757	131.710	26.873	-8191	255	
2086.098	1	1	0	0	0.064889	0.036498	0.01691	0.19607	0.087988	0.39006	0.15078	0.23261	0.0095363	0.15709	0.24642	0.34577	0.088647	0.21165	0.14187	0.14418	0.0020833	-1.1042	-0.35625	-0.90417	-0.90208	-0.18125	-1.2792	-0.70417	-0.28125	-1.1333	-0.39583	-0.69167	-0.95625	-0.19792	-1.0292	-0.87083	179.467	191.669	55.165	348.589	122.303	29.631	302.026	322.872	260.745	242.811	220.813	324.337	155.613	108.361	301.665	230.400	0.00021203	0.0011571	0.00022451	675.5	1.483e-05	7.8465e-06	1009.9	165.94	8.4602e-06	9.3973e-06	362.23	153.59	68.156	31.726	5.6189e-06	68.656	0.000549	0.00054715	0.00015519	521.33	6.15e-06	6.1561e-06	771.4	134.09	6.1482e-06	6.2117e-06	277.94	117.83	54.718	25.143	6.2618e-06	51.965	137.631	134.093	356.831	14.392	212.067	73.414	14.745	19.112	166.987	41.211	17.762	23.146	24.455	28.354	136.317	26.815	-8191	255	
2086.194	1	1	0	0	0.21677	0.11469	0.20775	0.1952	0.12446	0.066441	0.24007	0.23494	0.11194	0.088373	0.1632	0.1199	0.18371	0.092578	0.19219	0.2527	0.075	-1.0854	-0.67083	-0.50208	-1.0958	-0.25833	-1.1479	-0.76667	-0.34792	-1.3292	-0.525	-0.8375	-1.0354	-0.070833	-0.91042	-0.92917	145.423	218.740	251.958	76.265	53.829	44.394	225.091	11.185	254.225	38.861	108.321	35.861	253.567	262.331	92.552	44.303	0.00019385	0.00059849	0.00047276	666.75	6.6527e-06	5.6102e-06	1008	166.9	2.4732e-05	8.5082e-06	362.73	154.79	68.234	31.827	5.9934e-06	68.561	0.00054736	0.0005576	0.00015785	519.08	5.9946e-06	6.0385e-06	767.95	134.15	6.1125e-06	5.9471e-06	276.83	117.74	54.524	24.957	5.7131e-06	51.879	111.651	149.862	48.292	14.441	272.188	60.590	14.778	19.783	47.385	65.859	18.323	21.938	24.504	27.665	40.463	27.092	-8191	255	
2086.291	1	1	0	0	0.16677	0.36672	0.26097	0.14952	0.1019	0.20639	0.057914	0.24415	0.11006	0.21582	0.15231	0.23016	0.17197	0.2993	0.16378	0.30654	0.125	-1.0875	-0.43958	-0.43542	-0.93958	-0.37708	-1.0042	-0.85	-0.19583	-1.0396	-0.5625	-0.3625	-1.1729	-0.34792	-0.88125	-1.1667	137.118	1.176	260.292	240.827	262.126	3.300	293.274	353.789	249.117	225.402	357.782	357.902	161.219	348.669	240.047	343.131	0.00023562	0.0011537	0.00040701	677.82	2.4886e-06	2.1119e-05	1017.7	166.14	1.3762e-05	5.3855e-06	359.57	153.39	68.667	31.663	1.0319e-05	69.289	0.00051482	0.00051711	0.00014086	523.4	5.5701e-06	5.5738e-06	772.73	134.51	5.7389e-06	5.7114e-06	279.1	117.3	54.764	24.999	5.6605e-06	52.256	119.169	109.664	139.687	13.965	83.634	124.928	14.472	19.119	112.478	298.963	18.189	22.648	25.206	27.891	105.130	26.939	-8191	255	
2086.387	1	1	0	0	0.12088	0.40462	0.35635	0.25665	0.32773	0.16217	0.10162	0.12247	0.20475	0.15277	0.38303	0.15606	0.33558	0.071253	0.12895	0.055154	0.22292	-1.0812	-0.57292	-0.31667	-1.3146	-0.35	-0.85625	-0.85417	-0.27083	-1.1313	-0.86667	-0.57917	-1.1271	-0.31875	-0.47708	-1.1	173.279	224.561	361.269	317.031	93.616	43.855	237.123	230.991	233.263	241.954	180.553	123.792	349.550	131.220	321.055	307.999	0.00028578	0.0021598	0.0005931	670.65	5.1009e-06	6.8662e-06	1020.1	167.17	1.5636e-05	9.7506e-06	361.99	155.05	68.017	32.041	6.1789e-06	69.379	0.00049769	0.00051041	0.00014221	520.13	5.3872e-06	5.469e-06	772.96	133.21	5.4704e-06	5.4656e-06	278.28	117.88	54.397	25.028	5.351e-06	52.264	137.430	164.813	130.903	15.228	336.198	293.672	14.747	20.737	355.997	311.372	18.202	22.613	24.541	28.456	126.174	27.093	-8191	255	
2086.483	1	1	0	0	0.15146	0.14639	0.1626	0.10085	0.18017	0.18373	0.12043	0.068555	0.1903	0.18522	0.09602	0.37249	0.14529	0.22872	0.16089	0.29264	0.025	-0.86875	-0.78542	-0.28125	-1.0583	-0.27292	-0.75833	-1.2896	-0.25	-1.0917	-1.0458	-0.4375	-1.0958	-0.65417	-0.53958	-1.325	122.474	256.835	202.588	275.913	157.198	36.074	249.683	86.742	272.094	327.414	272.030	232.844	345.513	232.810	278.945	6.256	0.00035807	0.00029511	0.0002054	666.47	7.6674e-06	3.3148e-06	1017.1	167.34	6.0573e-06	9.4308e-06	364.33	154.36	68.081	31.911	7.1964e-06	67.956	0.00047723	0.00048683	0.00013497	517.96	5.2918e-06	5.2195e-06	771.98	132.43	5.0999e-06	5.1178e-06	275.26	115.98	53.884	24.662	5.038e-06	51.031	173.211	233.615	73.767	14.983	208.743	5.771	15.358	19.326	101.071	37.375	18.455	23.150	24.570	28.772	243.325	27.226	-8191	255	
2086.603	1	1	0	0	0.27335	0.15811	0.082935	0.26513	0.10558	0.12817	0.14083	0.20929	0.20166	0.16112	0.026072	0.25545	0.15488	0.51974	0.18255	0.1645	-0.08125	-0.85833	-0.91458	-0.175	-1.2229	-0.78333	-0.6375	-1.1771	-0.25417	-0.77083	-1.1979	-0.30833	-1.1083	-0.73542	-0.32292	-1.1812	66.467	350.291	150.147	308.802	347.545	156.657	326.628	300.362	257.741	104.244	293.157	295.204	92.778	31.672	273.271	4.328	0.00021907	0.001158	7.4002e-05	674.13	1.347e-05	2.0692e-05	1011.7	167.67	9.5555e-07	3.9534e-06	362.97	151.06	68.848	31.191	1.0308e-05	67.632	0.00045283	0.00044662	0.00012396	516.33	4.9694e-06	5.0189e-06	764.37	132.51	5.0355e-06	5.0402e-06	275.31	114.77	54.199	24.452	4.9179e-06	50.854	121.609	153.176	198.643	15.032	190.067	22.773	15.242	19.295	191.725	166.623	18.425	22.793	25.147	27.887	272.983	27.456	-8191	255	
2086.700	1	1	0	0	0.10928	0.069516	0.16704	0.10897	0.12013	0.051173	0.026698	0.089415	0.22553	0.21481	0.12203	0.21511	0.26062	0.10206	0.30249	0.21142	-0.066667	-0.47917	-0.95833	-0.33542	-0.96875	-0.93542	-0.68958	-1.2042	-0.52292	-0.85625	-1.3	-0.48958	-1.0417	-0.79792	-0.24167	-1.3188	235.005	290.266	202.013	49.705	299.696	282.138	61.253	329.830	9.147	205.435	42.806	345.661	62.493	267.962	215.632	319.338	0.00014739	6.8874e-05	0.00054667	667.32	1.1629e-05	1.9147e-05	1005.2	165.75	5.0114e-06	1.06e-05	361.61	152.87	68.217	31.762	1.5465e-05	68.099	0.00045918	0.00045288	0.0001267	511.74	5.0227e-06	5.1159e-06	761.12	132.26	5.2263e-06	5.1579e-06	274.8	115.93	54.026	24.71	5.5225e-06	51.28	176.744	114.929	61.012	14.472	242.075	109.264	15.358	20.100	355.016	34.254	18.564	23.001	24.335	28.773	134.401	27.533	-8191	255	
2086.796	1	1	0	0	0.29816	0.087103	0.098249	0.33092	0.16315	0.37076	0.16903	0.12546	0.10328	0.30678	0.15639	0.25123	0.16126	0.17417	0.20679	0.15225	-0.070833	-0.63333	-0.95	-0.41042	-0.96042	-1.0104	-0.43542	-1.1417	-0.59167	-0.47917	-1.1104	-0.35	-0.98333	-1.1354	-0.19583	-1.1562	32.843	346.004	287.363	322.261	250.764	264.379	299.050	248.933	29.098	259.997	348.398	339.580	249.366	169.279	264.619	292.954	0.00035597	0.0025552	0.00019861	670.85	9.1263e-06	8.675e-06	1003.5	164.73	1.2284e-05	1.5123e-05	359.9	153.5	68.377	31.56	1.4598e-05	68.763	0.00051093	0.00050665	0.00013701	513.77	5.5816e-06	5.4575e-06	762.44	132.57	5.5047e-06	5.3762e-06	275.65	116.17	54.237	24.757	5.5532e-06	51.706	156.893	147.131	12.453	14.567	331.781	67.991	15.103	19.651	271.936	248.686	18.174	23.190	25.144	28.171	357.370	27.710	-8191	255	
2086.892	1	1	0	0	0.18584	0.050668	0.22541	0.13619	0.11226	0.25534	0.20945	0.27793	0.33924	0.22497	0.25762	0.23097	0.25975	0.21091	0.24125	0.18821	-0.27708	-0.275	-1.0958	-0.3875	-0.50417	-0.82292	-0.19167	-0.98333	-0.52917	-0.1875	-1.1417	-0.54792	-0.71458	-1.0812	-0.28958	-1	196.767	126.974	13.987	252.355	61.289	151.605	277.840	31.545	122.936	304.244	264.557	341.229	5.752	282.172	70.098	172.530	0.00011254	0.0010337	0.0003122	669.33	5.2647e-06	1.0689e-05	1000	169.07	8.5664e-06	5.4925e-06	360.41	151.3	67.911	31.471	9.7877e-06	67.627	0.00050394	0.00049661	0.0001394	516.6	5.3507e-06	5.338e-06	762.46	133.22	5.4583e-06	5.4323e-06	275.63	115.21	53.766	24.58	5.5236e-06	51.021	273.498	350.171	125.891	15.080	61.494	96.683	14.683	18.976	207.866	92.540	18.072	24.033	24.858	28.312	164.046	27.853	-8191	255	
2086.986	1	1	0	0	0.2794	0.18367	0.26134	0.45603	0.18769	0.069013	0.23954	0.19662	0.19232	0.15383	0.081652	0.23625	0.35931	0.14746	0.10668	0.15435	-0.325	-0.29167	-1.075	-0.54167	-0.66875	-1.1146	-0.35625	-1.0063	-0.85	-0.2625	-1.1125	-0.52083	-0.68542	-1.2	-0.22083	-0.9375	185.854	358.915	255.102	299.652	293.571	70.863	272.756	18.407	86.895	23.272	345.994	350.008	35.343	277.589	216.879	244.395	0.00017168	0.0014776	0.0004525	661.74	1.834e-05	1.1102e-05	1006	166.98	1.122e-06	1.039e-05	350.27	150.47	67.598	31.535	1.3036e-05	67.358	0.00048581	0.00048102	0.00013653	513.4	5.3125e-06	5.2529e-06	761.38	132.36	5.3066e-06	5.2669e-06	271.1	114.45	53.426	24.525	5.2155e-06	50.799	91.776	218.559	186.265	14.721	130.804	91.208	14.905	19.303	67.965	231.956	17.940	22.391	24.858	28.414	135.769	26.877	-8191	255	
2087.082	1	1	0	0	0.20707	0.46509	0.22147	0.055365	0.090362	0.055414	0.28734	0.32156	0.11712	0.26492	0.097025	0.29611	0.16469	0.34621	0.12277	0.26847	-0.62083	-0.42083	-1.2625	-0.51875	-0.28958	-1.2583	-0.42083	-0.86667	-1.0646	-0.0875	-1.2	-0.90417	-0.4125	-1.2167	-0.29167	-0.78333	324.660	193.039	213.488	175.945	31.518	168.444	2.246	318.951	12.015	165.417	122.276	282.217	80.960	314.969	15.883	305.621	0.00019975	0.00096713	0.000404	666.78	5.8354e-06	7.3548e-06	1007.8	165.39	6.1969e-06	1.6185e-05	361.94	151.03	68.536	32.196	9.4576e-06	69.055	0.00046371	0.00046892	0.00013452	516.34	5.2413e-06	5.2662e-06	761.5	132.06	5.1648e-06	5.2774e-06	274.57	114.54	53.797	24.9	5.1746e-06	51.385	98.010	141.978	57.296	14.820	110.353	241.900	15.049	19.025	127.998	184.863	18.206	23.112	24.804	28.326	211.554	27.026	-8191	255	
2087.203	1	1	0	0	0.20954	0.22954	0.11271	0.18515	0.22908	0.35929	0.3855	0.31348	0.10348	0.19948	0.11319	0.12971	0.087465	0.15431	0.10494	0.11221	-0.51458	-0.1125	-1.0312	-0.73333	-0.32708	-1.2271	-0.57292	-0.68333	-1.1521	-0.36875	-1.0021	-0.86458	-0.33542	-1.1	-0.38333	-0.775	94.925	141.227	192.007	325.158	41.878	28.937	187.421	290.821	85.942	8.881	308.963	231.906	88.949	121.466	212.750	293.321	0.00019906	0.00086541	0.00040546	668.72	5.3654e-06	9.9238e-06	1007.1	164.6	4.5087e-06	1.6102e-05	358.49	152.31	67.15	31.86	5.7484e-06	68.949	0.00045932	0.00046895	0.00013231	514.63	5.0356e-06	5.1194e-06	764.32	131.21	4.9678e-06	4.9239e-06	273.4	115.05	53.071	24.625	4.9318e-06	51.58	145.553	359.293	137.532	14.966	322.348	206.828	14.869	19.080	1.937	7.731	18.512	22.239	24.408	28.283	147.797	26.982	-8191	255	
2087.299	1	1	0	0	0.11054	0.1592	0.24405	0.07242	0.14637	0.15911	0.23042	0.31076	0.17189	0.16869	0.11895	0.29739	0.22853	0.13009	0.063692	0.25067	-0.7	-0.22292	-0.91667	-0.96042	-0.49375	-1.15	-0.6625	-0.50208	-1.0667	-0.37917	-1	-0.85208	-0.20625	-1.1042	-0.40833	-0.45	277.351	336.345	160.733	110.299	88.133	190.922	275.290	347.349	170.698	162.241	341.617	327.642	270.004	225.921	283.255	18.528	0.00017233	0.00026629	0.00017721	667.06	1.0765e-05	2.2444e-06	1006.3	165.89	1.2358e-05	1.3904e-05	354.21	150.97	67.127	31.412	4.1756e-06	67.31	0.00043856	0.00044707	0.00012994	511.87	4.9048e-06	4.8372e-06	761.32	131.35	4.8749e-06	4.8629e-06	270.68	114.5	53.128	24.323	4.7272e-06	50.635	115.573	235.277	240.430	14.812	161.281	157.837	14.648	20.017	214.542	94.261	18.339	22.386	24.542	27.106	39.689	26.838	-8191	255	
2087.395	1	1	0	0	0.17922	0.31385	0.13565	0.10927	0.2003	0.25079	0.1717	0.24594	0.055917	0.17115	0.21961	0.41648	0.16862	0.062138	0.15989	0.23032	-0.8625	-0.23542	-0.92917	-0.92917	-0.21042	-1.0521	-0.73333	-0.6	-0.97083	-0.30833	-0.77708	-1.0125	-0.22917	-1.1896	-0.64375	-0.3375	140.835	297.816	135.681	213.843	177.286	45.403	34.394	171.504	20.870	52.094	263.169	11.174	187.092	53.822	298.003	283.848	0.00043643	0.00063846	0.00040173	677.84	4.4933e-06	7.4479e-06	1016.4	166.29	1.088e-05	4.9952e-06	353.25	150.57	67.999	31.377	4.0211e-06	66.981	0.00042532	0.0004274	0.00011731	513.71	4.5241e-06	4.5981e-06	762.87	130.06	4.5103e-06	4.5499e-06	267.81	113.01	52.623	24.073	4.3936e-06	50.163	118.144	53.342	124.828	15.123	334.677	119.546	14.226	19.705	253.138	63.297	18.265	22.951	24.109	28.754	303.372	27.307	-8191	255	
2087.492	1	1	0	0	0.21083	0.31227	0.1005	0.041602	0.21669	0.28994	0.23312	0.25371	0.18366	0.38469	0.53785	0.26098	0.20456	0.064205	0.30741	0.097235	-0.82917	-0.34167	-0.6375	-1.1708	0.060417	-1.0271	-0.98542	-0.20833	-1.1688	-0.54167	-0.56875	-1.1625	-0.26667	-0.90417	-0.7375	-0.27917	16.867	49.998	19.249	170.561	84.442	64.686	235.361	94.765	136.414	117.377	360.195	344.934	298.632	159.794	351.301	184.760	0.00024315	0.00053392	9.1594e-05	674.86	6.6733e-06	8.2267e-06	1010.5	165.9	9.6997e-06	8.3593e-06	356.78	150.25	66.926	31.376	1.3797e-05	66.593	0.0004004	0.00038666	0.00011054	513.73	4.3047e-06	4.3035e-06	760.37	129.43	4.1878e-06	4.2882e-06	268.13	112.67	52.241	23.994	4.1537e-06	49.875	130.090	354.609	305.928	14.793	192.825	236.589	15.159	19.171	108.665	68.704	18.003	22.407	25.096	28.398	135.822	27.553	-8191	255	
2087.588	1	1	0	0	0.23253	0.23056	0.044664	0.11138	0.26515	0.17848	0.4305	0.30671	0.17628	0.059301	0.032352	0.48879	0.10341	0.10073	0.1235	0.23088	-0.85417	-0.37083	-0.34375	-1.2563	-0.325	-0.91667	-0.91667	-0.23958	-1.15	-0.58333	-0.55625	-1.1104	-0.38125	-0.7375	-0.87708	-0.36042	309.697	243.860	180.491	141.235	285.769	71.043	310.050	22.237	149.837	229.961	198.080	356.836	174.991	46.461	111.363	323.483	0.00020028	0.00078945	4.2654e-05	673.72	5.5558e-06	1.1859e-05	999.45	165.56	6.7211e-06	5.7805e-07	354.79	149.55	66.481	31.113	4.5085e-06	66.665	0.00038422	0.00038648	0.00010799	510.01	4.2521e-06	4.211e-06	751.28	129.75	4.3415e-06	4.4354e-06	266.47	112.99	52.32	23.904	4.5065e-06	50.195	148.851	31.586	52.421	15.210	136.198	15.072	14.883	19.839	56.539	247.464	18.997	23.102	25.640	28.471	245.122	27.982	-8191	255	
2087.684	1	1	0	0	0.36377	0.11591	0.20103	0.2764	0.1345	0.19899	0.23746	0.15219	0.2815	0.15323	0.17894	0.07283	0.30895	0.084524	0.24453	0.2904	-0.69375	-0.5625	-0.40625	-1.0958	-0.16042	-0.85833	-1.1854	-0.34583	-1.0583	-0.72708	-0.28333	-1.2083	-0.40417	-0.62292	-0.82917	-0.25	346.531	74.429	36.710	253.617	35.279	97.091	299.155	299.594	326.249	178.512	160.631	31.454	301.752	341.585	144.130	256.288	0.0003448	0.0012516	0.00020083	664.28	4.0081e-06	1.8629e-05	997.27	163.95	1.7113e-05	1.2346e-05	356.18	149.5	66.097	31.089	3.981e-06	65.965	0.00041622	0.00042039	0.00011548	508.06	4.5648e-06	4.655e-06	752.64	128.99	4.7016e-06	4.7496e-06	269.78	113.53	52.048	23.999	4.8383e-06	50.17	143.388	320.372	294.123	14.707	190.712	128.326	15.037	18.808	163.453	28.199	18.769	23.203	24.876	29.387	101.776	27.080	-8191	255	
2087.780	1	1	0	0	0.204	0.10438	0.18264	0.078555	0.037825	0.13025	0.19937	0.24706	0.20237	0.15537	0.18433	0.23331	0.28546	0.19514	0.16101	0.21711	-0.525	-0.66458	-0.19792	-1.0667	-0.46458	-0.49375	-1.125	-0.10625	-1.0771	-1.0604	-0.3375	-1.2042	-0.43958	-0.42292	-1.1812	-0.35625	230.127	32.686	161.964	210.921	65.474	48.787	293.731	269.546	240.023	145.816	253.099	334.416	193.706	257.381	124.666	352.004	0.00057	0.00097198	0.00029705	664.31	2.2094e-05	6.3691e-06	994.48	164.26	9.36e-06	1.4169e-05	349.36	148.91	65.62	31.116	6.1927e-06	66.523	0.00044519	0.00044804	0.00012371	511.02	4.9924e-06	5.1433e-06	751	130.52	5.1676e-06	5.2888e-06	268.38	112.93	52.346	24.163	5.4239e-06	50.238	116.714	338.069	277.254	15.011	211.242	146.052	14.769	19.345	56.776	90.162	18.447	23.643	25.337	28.521	308.504	27.767	-8191	255	
2087.876	1	1	0	0	0.1074	0.15121	0.17576	0.33899	0.26719	0.26997	0.29585	0.12257	0.23567	0.35161	0.33312	0.10022	0.41151	0.02457	0.08141	0.23136	-0.41875	-0.83542	-0.12292	-1.1938	-0.50208	-0.27292	-1.1146	-0.43333	-0.87917	-0.94792	-0.225	-1.2479	-0.57292	-0.56458	-1.2208	-0.53333	91.391	242.015	283.082	253.934	140.215	107.167	82.718	79.795	31.683	174.218	69.736	5.560	21.405	155.823	241.686	303.344	0.00028524	0.00033299	0.00033539	665.01	1.2177e-05	1.014e-05	997.88	160.9	8.3999e-06	1.7497e-05	350.95	149.26	65.998	30.954	7.5104e-06	67.36	0.00049417	0.00049694	0.00013592	513.04	5.4739e-06	5.4596e-06	755.5	130.86	5.7678e-06	5.8431e-06	269.74	113.78	52.921	24.355	5.6798e-06	50.733	140.728	46.563	266.991	15.678	149.233	184.235	14.944	19.607	306.470	3.811	18.725	23.409	25.034	28.471	74.904	27.499	-8191	255	
2087.972	1	1	0	0	0.061287	0.11661	0.077655	0.081794	0.15334	0.18262	0.54475	0.42977	0.19326	0.089388	0.29149	0.26116	0.22288	0.20082	0.12418	0.3078	-0.47708	-1.0812	-0.25208	-1.1792	-0.56667	-0.35208	-1.2792	-0.22083	-0.59167	-1.0146	-0.36667	-1.2271	-0.87708	-0.41875	-1.1	-0.48542	108.733	289.618	221.985	225.649	170.007	128.413	301.746	242.703	216.041	76.223	206.234	299.116	146.336	287.508	298.749	302.891	0.00047706	0.00011958	7.1538e-05	660.42	4.4307e-06	1.0559e-05	1000.4	162.76	3.0436e-06	2.2035e-05	352.22	151.69	66.155	30.962	3.2942e-06	67.938	0.00051745	0.0005091	0.00014137	512.1	5.6989e-06	5.5393e-06	762.06	130.17	5.5464e-06	5.4881e-06	270.27	114.88	52.941	24.5	5.6204e-06	51.179	96.537	230.720	208.839	14.381	332.769	342.480	15.065	20.193	259.492	113.534	18.373	22.964	24.659	28.715	61.642	27.066	-8191	255	
2088.091	1	1	0	0	0.066907	0.1734	0.10374	0.19977	0.17539	0.045199	0.079772	0.19713	0.094097	0.10418	0.29774	0.21994	0.40667	0.18508	0.26421	0.28645	-0.38542	-1.1083	-0.21458	-0.92708	-0.57083	-0.23958	-1.2875	-0.41667	-0.55208	-1.2375	-0.36458	-0.91458	-0.8875	-0.38125	-1.1708	-0.77083	206.359	90.752	217.805	247.239	54.048	356.762	184.666	221.841	86.194	71.979	188.772	258.172	351.959	290.097	240.886	285.497	8.5335e-05	0.0022216	0.00013776	657.71	9.767e-06	1.676e-06	1007.1	163.03	8.1395e-06	5.7994e-06	355.53	150.85	66.942	31.218	5.7776e-06	68.757	0.00049482	0.00050035	0.00014151	511.29	5.5428e-06	5.5962e-06	764.73	131.57	5.5165e-06	5.485e-06	273.42	115.67	52.945	24.534	5.5649e-06	51.996	138.583	335.104	104.327	14.820	2.256	189.590	15.057	19.561	220.839	69.478	17.832	23.141	24.527	28.300	250.840	27.332	-8191	255	
2088.165	1	1	0	0	0.21517	0.20922	0.32172	0.20034	0.097948	0.27293	0.086184	0.18211	0.080384	0.26746	0.1468	0.23423	0.11765	0.12802	0.10237	0.20581	0.010417	-1.0542	-0.125	-0.85625	-1.1562	-0.28958	-1.3021	-0.73542	-0.23958	-1.2104	-0.38125	-0.9125	-1.0792	-0.26042	-1.0542	-0.89792	285.444	285.994	98.583	40.505	241.955	69.109	258.656	153.770	14.594	94.942	288.794	296.305	262.429	104.494	338.708	40.304	0.00040161	0.00055086	0.00035518	667.59	1.1757e-05	9.7864e-06	1009.8	162.4	1.174e-05	1.3695e-05	354.67	152.02	65.944	31.539	1.9086e-05	67.958	0.00050154	0.00050631	0.00014164	514.19	5.4818e-06	5.6602e-06	767.51	130.77	5.5725e-06	5.5642e-06	271.29	115.24	52.973	24.566	5.3862e-06	51.134	91.962	251.004	179.201	14.242	128.793	268.390	14.296	19.146	80.010	315.709	17.667	22.296	24.813	27.793	142.234	26.446	-8191	255	
2088.283	1	1	0	0	0.11125	0.22446	0.10705	0.091795	0.27581	0.12159	0.192	0.11417	0.089107	0.16854	0.16857	0.12636	0.12404	0.14021	0.10201	0.12936	0.13958	-0.94167	-0.26042	-0.55	-0.99167	-0.25208	-1.2938	-0.65208	-0.09375	-1.225	-0.38958	-0.70833	-1.1604	-0.28542	-0.9	-0.76042	49.662	301.482	85.325	269.555	153.415	80.012	292.828	148.174	311.031	220.086	288.000	355.326	38.662	319.541	119.093	118.246	0.00011458	0.00025805	0.000114	671.89	1.5863e-06	5.0062e-06	1007.8	161.72	1.4082e-05	1.038e-05	356.65	153.93	66.262	30.974	8.3776e-06	67.724	0.00047886	0.00050445	0.00014063	517.48	5.3933e-06	5.4175e-06	765.49	130.38	5.3016e-06	5.4637e-06	272.03	116.06	52.989	24.36	5.4049e-06	51.312	222.756	333.104	94.361	14.172	127.901	261.949	14.402	18.632	2.370	116.101	18.155	22.033	24.162	27.592	279.594	27.024	-8191	255	
2088.380	1	1	0	0	0.24475	0.13954	0.053984	0.46831	0.21415	0.16929	0.17428	0.23796	0.29522	0.048834	0.099297	0.28362	0.23128	0.25964	0.15316	0.33403	0.04375	-1.0438	-0.55208	-0.5875	-1.125	-0.052083	-0.96042	-0.94792	-0.12708	-1.1208	-0.78333	-0.43958	-1.1063	-0.13958	-0.71875	-0.99167	28.516	203.664	301.654	329.348	25.333	36.564	279.057	158.539	354.459	33.936	57.720	124.474	317.082	99.521	292.210	351.890	0.00037598	0.00099677	0.00034649	676.79	9.497e-06	1.0418e-05	1021.7	161.86	7.1256e-06	8.3933e-06	357.1	153.29	67.487	31.494	7.0714e-06	68.442	0.00047971	0.00049335	0.00014002	519.83	5.4689e-06	5.4027e-06	772.95	130.38	5.4225e-06	5.5069e-06	273.47	116.78	53.286	24.593	5.4716e-06	51.998	136.863	95.067	28.076	14.224	146.912	143.642	14.273	19.139	288.039	56.735	17.615	22.554	24.168	26.636	187.327	26.978	-8191	255	
2088.476	1	1	0	0	0.13432	0.053743	0.21302	0.1813	0.34749	0.019485	0.20824	0.14437	0.19117	0.044508	0.35974	0.11185	0.22006	0.20048	0.1339	0.073571	0.16667	-1.0208	-0.52292	-0.35	-1.1167	-0.32292	-0.72917	-0.87292	-0.33542	-0.9625	-0.67292	-0.40833	-1.175	-0.33125	-0.64167	-1.1063	26.033	142.194	290.774	332.107	237.439	67.094	14.505	252.799	235.104	351.414	16.921	25.341	20.121	35.792	229.279	193.424	0.00032004	0.00057317	0.00011925	675.64	4.119e-06	4.607e-06	1023.1	162.97	4.9541e-06	1.4449e-05	360.14	153.69	66.867	31.355	1.0866e-05	69.235	0.00048826	0.00049306	0.0001354	518.86	5.352e-06	5.3795e-06	774.54	130.75	5.2857e-06	5.3966e-06	275.46	116.96	53.418	24.619	5.2294e-06	52.143	160.445	57.098	330.644	14.084	86.283	100.781	14.077	18.726	292.255	52.248	17.060	22.432	24.620	28.094	87.608	27.003	-8191	255	
2088.572	1	1	0	0	0.19721	0.16419	0.2704	0.09633	0.17732	0.062757	0.085479	0.043525	0.059562	0.1455	0.21395	0.30899	0.34825	0.23757	0.10903	0.19363	0.060417	-0.89375	-0.81042	-0.30417	-0.97917	-0.36667	-0.6625	-0.97708	-0.175	-0.89583	-0.84375	-0.23542	-1.2313	-0.54375	-0.48333	-1.1229	214.323	231.436	327.611	286.652	306.867	239.891	309.802	298.346	192.683	50.009	270.878	13.865	26.138	65.548	299.465	184.495	0.00038318	0.00080547	0.00035585	677.89	7.7216e-06	7.1739e-06	1022.5	164.04	5.0886e-06	8.8055e-06	361.67	153.24	66.843	31.668	1.2252e-05	68.808	0.0004678	0.00046222	0.000128	518.16	5.0599e-06	4.979e-06	770.17	130.98	4.9267e-06	4.9285e-06	273.62	115.59	53.019	24.488	5.0019e-06	51.547	120.130	61.990	48.501	14.252	235.373	111.622	14.022	18.468	271.358	173.616	17.923	22.283	24.165	27.897	184.578	26.897	-8191	255	
2088.693	1	1	0	0	0.1745	0.27101	0.15853	0.34684	0.1887	0.13158	0.045413	0.065315	0.083117	0.039608	0.18357	0.31208	0.22527	0.35786	0.3683	0.15177	0.06875	-0.90417	-0.91875	-0.20833	-1.2938	-0.61875	-0.49167	-1.0521	-0.35833	-0.93125	-0.97083	-0.26458	-1.2292	-0.7125	-0.475	-1.1958	238.444	324.077	96.689	32.309	39.579	74.769	37.661	353.353	138.129	357.390	125.773	354.321	305.407	305.412	31.714	300.833	0.00042278	0.0023457	0.00059181	677.43	1.0365e-05	1.5073e-05	1023.3	164.64	9.6443e-06	1.3158e-05	354.23	152.56	67.474	31.178	6.3376e-06	68.449	0.00045372	0.00045289	0.00012753	517.01	5.0846e-06	4.9791e-06	773.07	131.39	5.1358e-06	5.1351e-06	271.21	114.91	52.843	24.324	5.0007e-06	51.133	115.537	45.203	212.745	14.635	326.579	163.446	13.968	18.614	321.773	168.248	17.219	22.130	24.631	27.417	111.656	26.584	-8191	255	
2088.789	1	1	0	0	0.20326	0.16325	0.15805	0.21344	0.13508	0.24172	0.22784	0.32395	0.040601	0.19597	0.20559	0.2252	0.16038	0.13936	0.18302	0.249	0.1125	-0.73958	-0.96042	-0.27708	-1.0083	-0.68958	-0.38333	-1.2	-0.42083	-0.60625	-1.0688	-0.17708	-1.0146	-0.72083	-0.27708	-1.3604	113.662	232.633	224.357	321.475	93.456	235.036	291.099	225.572	6.377	227.334	16.962	350.433	279.758	343.850	167.546	1.500	0.0002533	0.00050368	0.00024166	685.46	9.3217e-06	1.7593e-05	1018.7	166.8	1.5495e-05	9.9904e-06	360.23	153.5	67.919	31.113	1.0863e-05	68.361	0.00045488	0.00046095	0.0001257	524.5	5.0687e-06	5.0018e-06	769.22	132	4.8362e-06	4.8155e-06	273	115.64	53.306	24.361	4.8494e-06	51.635	177.396	157.690	190.350	14.368	93.596	112.947	13.925	18.676	223.509	86.732	17.501	22.763	24.713	27.752	210.889	27.178	-8191	255	
2088.885	1	1	0	0	0.088919	0.24333	0.16834	0.1417	0.17494	0.21737	0.078382	0.15163	0.48646	0.18642	0.38271	0.10882	0.21013	0.14566	0.11629	0.15298	-0.025	-0.48125	-1.2313	-0.45625	-0.92708	-0.6875	-0.45833	-1.1167	-0.44167	-0.49583	-1.2542	-0.29792	-0.92917	-1.0396	-0.33958	-1.0562	319.347	63.010	135.109	147.760	299.002	53.411	76.750	65.849	273.999	105.552	38.148	104.026	306.284	132.641	241.572	324.262	0.00016939	0.0020226	0.00035874	681.92	5.1966e-06	1.2336e-05	1014.8	167.07	8.6598e-06	9.6056e-06	360.61	153.75	67.989	32.112	1.9472e-05	69.428	0.0004457	0.00044071	0.00012381	519.79	4.7363e-06	4.9062e-06	769.42	131.94	4.8792e-06	4.8932e-06	273.55	116.54	53.174	24.7	4.9879e-06	51.896	136.078	73.449	63.071	14.398	271.090	239.427	14.597	19.164	26.455	230.253	18.559	21.937	24.493	27.469	143.398	26.641	-8191	255	
2088.979	1	1	0	0	0.23728	0.2087	0.043034	0.16122	0.03016	0.080645	0.16922	0.30518	0.2467	0.23622	0.090075	0.25978	0.071575	0.14334	0.28479	0.23621	-0.19375	-0.30208	-0.97083	-0.37292	-0.72292	-1.1208	-0.38333	-1.0229	-0.57292	-0.26667	-1.1521	-0.23333	-0.71458	-0.95625	-0.22708	-1.175	203.156	295.998	179.471	270.295	71.474	236.639	53.672	14.944	77.298	126.676	195.983	329.938	329.207	9.039	147.444	217.960	0.00025196	0.00098288	0.00047055	676.21	7.2515e-06	8.7248e-06	1022.4	168.07	7.4348e-06	8.0018e-06	357.02	153.57	67.419	31.342	7.34e-06	67.948	0.00044857	0.00044858	0.00012186	520.33	4.7279e-06	4.7826e-06	771.88	132.69	4.8751e-06	4.7574e-06	272.71	115.89	53.259	24.441	4.886e-06	51.357	136.917	127.923	24.569	14.487	123.640	79.000	13.783	19.108	334.500	332.272	17.592	22.718	24.883	28.225	50.605	26.862	-8191	255	
2089.075	1	1	0	0	0.11007	0.082791	0.057176	0.36234	0.24177	0.15803	0.12478	0.29519	0.15716	0.057464	0.22541	0.16315	0.12818	0.34264	0.17378	0.084275	-0.39375	-0.26667	-1.0958	-0.37917	-0.37292	-0.99583	-0.20833	-1.0146	-0.62917	-0.13125	-1.0187	-0.58333	-0.51458	-0.96667	-0.12083	-1.0354	337.963	321.590	249.122	278.224	221.893	73.771	280.861	289.186	200.728	204.087	57.579	267.868	108.312	353.927	144.418	236.874	0.00019896	0.00021756	0.00023573	681.11	1.3488e-05	5.4674e-06	1029.9	166.43	9.7075e-06	4.5546e-06	359.01	153.34	66.632	31.714	7.5833e-06	67.98	0.00042948	0.00043514	0.00011864	522.43	4.7488e-06	4.7883e-06	774.44	130.57	4.8013e-06	4.7176e-06	269.71	114.8	52.694	24.464	4.6282e-06	51.005	167.063	27.758	66.368	14.843	13.680	193.714	14.280	19.521	174.762	203.886	16.945	22.165	24.112	27.189	50.466	27.231	-8191	255	
2089.172	1	1	0	0	0.28478	0.1653	0.15309	0.23906	0.26988	0.09058	0.031801	0.33996	0.1802	0.12406	0.18355	0.18295	0.24365	0.20246	0.081291	0.28142	-0.46667	-0.12292	-1.0771	-0.4625	-0.32917	-1.125	-0.4375	-0.72083	-0.95208	-0.1875	-1.0896	-0.59792	-0.5625	-1.1542	-0.39375	-0.8875	228.475	152.828	171.897	317.481	154.936	51.489	261.559	260.455	257.372	276.956	325.773	245.848	322.286	52.252	273.796	265.433	0.00029837	0.0010771	9.1269e-05	684.55	7.8236e-06	1.3964e-05	1024	166.33	7.2571e-06	2.286e-06	358.28	151.64	67.485	31.952	1.0114e-05	67.51	0.0004232	0.00041785	0.00011909	520.27	4.5938e-06	4.5674e-06	770.15	131.14	4.6307e-06	4.6483e-06	270.78	114.65	52.804	24.466	4.7566e-06	51.144	157.423	206.278	11.136	14.840	117.383	276.947	14.183	19.027	45.686	34.173	18.070	21.695	24.491	28.095	182.155	26.837	-8191	255	
2089.268	1	1	0	0	0.10541	0.13476	0.083924	0.080021	0.30908	0.092412	0.18297	0.096571	0.053616	0.19943	0.3111	0.33322	0.21997	0.24951	0.084827	0.076389	-0.61042	-0.19167	-1.2125	-0.6875	-0.33958	-1.2062	-0.49792	-0.80417	-1.0229	-0.25208	-1.175	-0.76042	-0.12083	-1.1042	-0.36458	-0.4875	253.579	62.716	153.663	321.269	276.975	316.672	264.682	110.324	285.670	69.889	358.045	335.827	329.896	95.844	292.552	342.616	0.00039155	0.0014496	0.0005554	670.41	9.6103e-06	9.2394e-06	1014.1	166.29	6.1992e-06	1.6061e-05	357.59	152.49	67.054	31.872	6.3109e-06	67.994	0.0004433	0.00044979	0.00012539	517.21	4.9178e-06	4.9669e-06	769.91	131.37	5.082e-06	5.1982e-06	271.32	114.96	53.08	24.722	5.2692e-06	51.264	117.619	287.654	90.282	15.040	209.977	125.351	14.534	18.778	172.742	139.069	17.520	22.357	24.859	27.755	332.743	26.897	-8191	255	
2089.388	1	1	0	0	0.34011	0.18753	0.27589	0.14037	0.22713	0.21901	0.26069	0.23927	0.17326	0.28773	0.1161	0.24378	0.14968	0.054318	0.2375	0.24779	-0.7375	-0.10417	-0.85417	-0.64167	-0.25208	-1.0312	-0.56667	-0.36458	-1.1646	-0.25	-1.0646	-0.83958	-0.31875	-1.2729	-0.54583	-0.61042	4.232	359.689	212.870	303.484	324.407	211.618	282.272	306.221	305.990	30.329	134.469	41.863	87.424	56.447	20.498	7.202	0.00017833	0.0013168	0.00027466	668.96	1.2753e-05	1.9352e-05	999.9	163.15	6.1243e-06	5.3314e-06	351.86	153.25	65.847	31.784	9.8204e-06	68.267	0.00049109	0.00048714	0.00013904	518.63	5.4828e-06	5.5231e-06	763.01	131.89	5.6093e-06	5.5839e-06	270.55	116.21	53.115	24.82	5.6544e-06	51.728	153.176	167.734	316.695	13.951	38.204	115.415	13.596	19.146	272.343	291.159	18.628	22.017	24.359	27.834	157.053	26.619	-8191	255	
2089.460	1	1	0	0	0.14537	0.04955	0.071334	0.3079	0.32016	0.37811	0.068723	0.094296	0.030153	0.13636	0.17253	0.056528	0.030736	0.13461	0.30328	0.021385	-0.84375	-0.2375	-0.68333	-0.8875	-0.20833	-1.1646	-0.78542	-0.21875	-1.1146	-0.42292	-0.86458	-1.2021	-0.38333	-1.2167	-0.60208	-0.61875	240.442	227.079	18.303	254.789	229.165	261.289	257.473	97.734	37.413	223.566	238.324	303.836	155.151	96.398	337.365	20.152	7.8303e-05	0.00083599	0.00039628	669.35	1.5865e-06	1.3469e-05	995.13	162.98	1.1061e-05	1.4183e-05	347.09	151.31	64.406	30.939	2.8256e-06	66.743	0.00051323	0.0005238	0.00014475	516.55	5.7038e-06	5.7265e-06	760.03	131.31	5.7912e-06	5.7599e-06	269.66	114.36	52.082	24.446	5.7065e-06	50.723	110.856	343.935	222.306	13.543	231.771	88.567	14.052	18.940	67.737	9.111	18.010	22.480	24.453	28.328	19.736	26.876	-8191	255	
2089.556	1	1	0	0	0.08683	0.19752	0.1844	0.38926	0.27484	0.19832	0.15188	0.20791	0.15495	0.17545	0.16055	0.20874	0.020114	0.42148	0.23125	0.17835	-0.77292	-0.36042	-0.55208	-1.1542	-0.2875	-1.0667	-0.98542	-0.3375	-1.2062	-0.46458	-0.81875	-1.3333	-0.26667	-1.0917	-1.0167	-0.57292	256.805	77.118	115.359	289.781	222.032	209.121	12.195	341.215	182.862	65.310	308.048	81.949	11.068	300.771	161.654	243.857	0.00040053	0.0016169	0.00033045	665.07	1.3302e-05	1.4798e-05	997.07	161	1.0908e-05	9.9072e-06	352.95	150.27	65.571	31.057	1.0381e-05	67.418	0.00051046	0.0005181	0.00014484	515.62	5.634e-06	5.6059e-06	756.92	130.87	5.7046e-06	5.6378e-06	269.05	113.59	52.264	24.296	5.7613e-06	50.861	146.351	155.469	156.366	14.597	156.417	273.502	14.741	19.041	151.974	227.405	17.878	22.603	24.481	28.778	257.920	27.203	-8191	255	
2089.652	1	1	0	0	0.45779	0.168	0.28377	0.24024	0.2331	0.28498	0.17808	0.082692	0.01567	0.20055	0.040166	0.25446	0.47523	0.11971	0.10676	0.13146	-0.725	-0.4375	-0.60625	-1.2771	-0.22708	-1.0833	-0.975	-0.425	-1.1542	-0.52917	-0.575	-1.2979	-0.575	-0.97708	-0.87292	-0.3	291.114	331.648	206.213	16.625	11.294	273.334	266.903	256.892	283.584	153.800	340.558	352.900	335.332	289.152	255.437	227.959	0.00037429	0.0015517	0.00037224	666.12	1.4491e-05	8.6493e-06	990.07	160.87	1.4075e-05	2.4424e-05	352.18	148.91	65.474	31.733	1.2456e-05	67.462	0.00050628	0.00051131	0.00014446	515.1	5.6954e-06	5.6257e-06	755.28	130.24	5.7084e-06	5.7258e-06	268.68	113.86	52.349	24.613	5.7807e-06	51.199	193.949	198.522	340.967	15.213	245.289	80.595	14.099	18.501	151.508	138.802	17.848	22.609	24.234	27.805	119.394	26.637	-8191	255	
2089.773	1	1	0	0	0.14418	0.22017	0.22585	0.047185	0.15019	0.065116	0.38818	0.14902	0.23932	0.077857	0.22628	0.16137	0.23047	0.067083	0.090879	0.095764	-0.76667	-0.67708	-0.42083	-1.4312	-0.16042	-0.77917	-1.1854	-0.0875	-1.0292	-0.61875	-0.34167	-1.2021	-0.40208	-0.84375	-1.1229	-0.44375	126.454	152.454	43.507	6.430	176.606	220.174	9.808	300.487	53.778	287.196	256.825	229.632	281.606	225.050	234.275	12.160	0.0003003	0.00038439	0.00033668	659.26	1.0668e-05	4.6436e-06	993.04	162.45	3.512e-06	2.0744e-05	355.01	151.79	65.834	31.077	7.595e-06	67.817	0.00052152	0.00051464	0.00014536	512.63	5.7876e-06	5.7141e-06	754.98	131.32	5.806e-06	5.7329e-06	272.8	115.24	52.503	24.455	5.7929e-06	51.645	88.174	337.002	52.433	14.714	284.196	156.274	14.565	18.742	23.825	137.792	18.001	21.869	23.968	27.492	171.963	26.741	-8191	255	
2089.869	1	1	0	0	0.065757	0.21124	0.25691	0.07474	0.24577	0.39331	0.1706	0.2736	0.23888	0.3287	0.022316	0.38614	0.20083	0.10273	0.2895	0.29294	-0.64792	-0.58958	-0.3375	-1.2062	-0.44792	-0.49167	-1.4	-0.30417	-0.95	-0.90417	-0.24375	-1.3062	-0.43958	-0.53125	-1.1437	-0.39583	49.749	107.152	267.732	30.748	353.298	236.615	292.616	250.079	5.063	259.843	305.341	353.491	92.786	233.190	133.464	332.584	0.00012697	0.00061748	0.00036388	662.71	9.6452e-06	5.2014e-06	1001.2	159.29	9.0525e-06	2.1934e-06	351.99	148.92	64.887	30.939	7.7107e-06	67.59	0.00051656	0.00052229	0.00014404	512.2	5.6645e-06	5.7106e-06	757.16	129.22	5.5832e-06	5.8315e-06	270.46	114.13	52.158	24.387	5.7561e-06	51.379	103.015	111.089	22.592	14.502	306.170	214.964	14.579	18.568	269.828	306.124	17.998	22.562	24.360	27.408	158.474	27.269	-8191	255	
2089.965	1	1	0	0	0.31481	0.23874	0.49743	0.096168	0.14232	0.31934	0.17791	0.14512	0.14736	0.13972	0.12909	0.36354	0.36858	0.24119	0.22615	0.15987	-0.63542	-1.0792	-0.18958	-0.99583	-0.47083	-0.35833	-1.3396	-0.23333	-0.93542	-0.95208	-0.16458	-1.1229	-0.46875	-0.41667	-1.0562	-0.44167	29.859	333.855	117.311	314.635	55.873	167.441	292.136	31.903	253.660	321.106	191.216	335.499	231.328	75.866	281.996	317.019	0.00037836	0.00035916	0.00024767	658.94	6.6167e-06	6.7108e-06	1003.2	161.93	8.6153e-06	4.8216e-06	349.93	150.61	65.046	30.861	1.7816e-05	67.437	0.00051452	0.00051302	0.00014284	511.34	5.7145e-06	5.5185e-06	759.01	129.48	5.6001e-06	5.7277e-06	269.34	114.78	52.249	24.272	5.5236e-06	51.174	140.797	107.399	128.762	14.378	119.908	79.760	14.824	19.049	213.436	275.146	17.774	22.176	23.974	28.671	175.626	27.390	-8191	255	
2090.060	1	1	0	0	0.15966	0.1248	0.16195	0.065278	0.34732	0.13814	0.17816	0.10828	0.26825	0.20507	0.1534	0.19148	0.20837	0.26359	0.048831	0.25171	-0.38125	-1.1333	-0.20625	-1.0854	-0.64167	-0.44583	-1.3708	-0.50208	-0.85625	-1.0354	-0.22083	-1.3146	-0.65833	-0.36875	-1.2083	-0.52083	310.003	189.081	149.612	56.709	275.842	49.037	300.393	209.153	43.763	155.760	164.907	1.823	75.866	16.908	299.830	351.815	0.00016986	0.00071804	0.00038256	673.84	3.075e-06	1.3456e-05	1008.1	160.75	7.4455e-06	2.6897e-06	347.58	150.8	65.948	31.115	5.0962e-06	68.048	0.00049595	0.00050104	0.00013915	517.58	5.5431e-06	5.5404e-06	766.5	129.44	5.5633e-06	5.5058e-06	269.62	115.77	52.68	24.363	5.5862e-06	51.601	55.411	66.940	22.804	14.711	33.513	55.491	14.453	18.601	143.959	28.906	17.641	21.784	23.830	27.863	8.724	26.867	-8191	255	
2090.156	1	1	0	0	0.11622	0.19075	0.2473	0.26644	0.088399	0.19847	0.15725	0.25791	0.325	0.24299	0.3039	0.33874	0.1809	0.16698	0.27185	0.12186	-0.15208	-1.2375	-0.16667	-0.95625	-0.88333	-0.21042	-1.1042	-0.42292	-0.68958	-1.0812	-0.32917	-1.075	-0.92083	-0.38958	-1.1333	-0.55208	93.875	49.260	182.357	324.308	50.312	286.593	332.247	304.292	258.675	294.900	241.625	331.493	242.238	292.063	220.302	32.691	0.00036092	0.0015293	0.0002276	669.41	1.3358e-05	1.3051e-05	1012.5	163.52	7.7138e-06	2.6567e-06	355.38	153.77	64.504	31.651	7.4725e-06	68.862	0.00050295	0.00051098	0.00013986	514.28	5.5406e-06	5.6676e-06	766.63	129.62	5.6211e-06	5.5658e-06	271.04	116.44	52.274	24.543	5.5699e-06	51.99	126.432	72.926	304.816	14.969	161.232	226.946	14.201	18.071	284.797	16.915	17.910	22.176	24.509	28.276	146.385	27.063	-8191	255	
2090.254	1	1	0	0	0.11221	0.13091	0.12082	0.24168	0.16271	0.25526	0.10299	0.16016	0.16663	0.17417	0.17961	0.23811	0.28081	0.2064	0.049838	0.14293	-0.016667	-1.0812	-0.30208	-0.99167	-0.97083	-0.25625	-1.1875	-0.59792	-0.4125	-1.0667	-0.3625	-0.94375	-1.0354	-0.375	-1.0208	-0.6625	202.520	284.319	193.443	13.984	206.091	243.247	217.217	226.830	287.252	148.682	246.562	360.444	285.773	286.662	278.448	14.880	0.00038511	0.0008411	0.00046312	658.73	3.2839e-07	1.0621e-05	1014	161.24	1.1379e-05	5.0947e-06	353.67	151.3	65.467	31.24	5.291e-06	68.955	0.00050397	0.00049867	0.00013784	513.57	5.3742e-06	5.4582e-06	765.26	130.31	5.3413e-06	5.3526e-06	270.62	115.37	52.221	24.372	5.13e-06	51.659	141.524	41.536	104.209	14.398	296.647	168.799	14.646	19.060	121.033	136.040	17.974	22.506	24.240	27.451	222.442	26.457	-8191	255	
2090.373	1	1	0	0	0.1641	0.10163	0.10969	0.14359	0.18298	0.16843	0.138	0.078704	0.030481	0.16965	0.20466	0.2136	0.3235	0.076393	0.19591	0.36311	-0.20417	-1.1583	-0.39792	-0.90625	-1.0583	-0.31875	-0.86667	-0.4375	-0.28958	-1.0917	-0.50625	-0.64167	-1.0542	-0.28958	-1.0792	-1.0396	269.818	41.762	267.642	342.883	67.175	122.135	130.311	284.740	160.497	48.600	80.793	271.474	121.460	25.307	246.515	270.356	0.00025218	0.0005374	0.00039896	670.4	8.516e-06	1.0674e-05	1001.9	163.74	9.0608e-06	6.9805e-06	352.08	149.42	65.473	31.253	8.4861e-06	67.951	0.00045717	0.00045832	0.00012724	517.12	4.9977e-06	4.9804e-06	760.74	129.29	4.8357e-06	4.7942e-06	267.23	113.56	51.552	24.147	4.9773e-06	50.853	138.162	305.458	234.558	14.929	187.827	337.448	14.320	19.567	137.244	73.390	17.219	22.210	23.931	27.953	305.541	26.800	-8191	255	
2090.469	1	1	0	0	0.16385	0.23646	0.27084	0.022161	0.15282	0.27723	0.21344	0.31028	0.12721	0.11152	0.16232	0.29636	0.13001	0.10567	0.16068	0.17857	0.12083	-1.0604	-0.33542	-0.55	-0.9625	-0.24583	-0.77917	-0.96875	0	-1.1479	-0.61667	-0.51667	-1.2687	-0.42292	-0.64583	-1.1229	351.652	58.543	37.586	194.385	276.189	13.708	341.476	276.278	330.681	78.596	308.500	25.067	174.262	340.007	283.018	307.085	0.00029656	0.0030701	0.00016143	679.24	4.7758e-06	5.5386e-06	999.69	163.06	3.283e-06	5.5791e-06	352.86	153.33	65.281	31.388	5.3215e-06	67.795	0.00043356	0.00045017	0.00011993	517.92	4.9308e-06	4.8917e-06	758.84	129.64	4.8548e-06	4.8378e-06	268.16	115.02	51.719	24.247	4.8716e-06	51.049	91.909	138.250	185.255	14.244	61.083	204.325	14.453	18.820	128.487	342.742	17.816	22.586	24.953	28.630	208.335	26.812	-8191	255	
2090.565	1	1	0	0	0.16211	0.11028	0.31029	0.33883	0.060169	0.18043	0.15447	0.25314	0.24314	0.14484	0.1216	0.08868	0.12204	0.1519	0.32363	0.20612	0.19375	-0.89375	-0.64792	-0.50208	-1.1333	-0.1625	-0.76458	-1.0125	-0.0625	-0.89375	-0.64167	-0.37083	-1.1854	-0.225	-0.525	-1.1583	258.318	304.969	271.716	287.542	77.397	358.789	213.690	170.808	234.817	328.130	56.994	23.703	231.588	31.723	336.340	340.561	0.000381	0.0016083	4.5855e-05	668.75	8.2299e-06	1.0973e-06	1003.6	164.17	5.5512e-06	9.8419e-06	360.26	150.87	65.952	31.37	1.545e-05	68.226	0.00042945	0.0004358	0.00012263	516.66	4.8674e-06	4.844e-06	763.78	129.98	4.8956e-06	4.9869e-06	270.52	114.14	52.3	24.259	5.0185e-06	51.425	168.613	10.449	146.607	14.443	68.551	158.487	14.672	18.592	99.250	287.442	17.422	22.554	24.884	28.362	196.958	26.801	-8191	255	
2090.685	1	1	0	0	0.20796	0.27102	0.19867	0.081371	0.26811	0.038905	0.036313	0.34894	0.098254	0.090401	0.33987	0.029009	0.23609	0.070453	0.1346	0.055434	0.10208	-0.95625	-0.73125	-0.325	-1.1187	-0.33958	-0.77708	-0.98542	-0.039583	-0.82917	-0.89167	-0.29167	-1.3563	-0.45	-0.38125	-1.2646	113.887	253.147	256.194	72.888	59.969	221.402	253.897	265.786	122.946	8.518	310.266	49.680	162.594	35.456	180.587	350.153	0.00011792	0.00024494	0.00012957	667.24	9.8516e-06	5.0798e-06	1004.8	163.36	1.4136e-05	9.4641e-06	351.58	151.5	64.939	30.665	3.7913e-06	67.932	0.00044347	0.00044616	0.00012525	511.98	4.8424e-06	5.0726e-06	760.58	130.3	4.9703e-06	4.9623e-06	268.25	115.04	51.625	23.979	5.0399e-06	51.101	95.993	176.733	37.476	14.090	159.805	42.263	14.959	19.226	119.024	110.432	17.623	22.290	24.647	27.222	195.850	27.066	-8191	255	
2090.757	1	1	0	0	0.25509	0.20965	0.058182	0.2334	0.13135	0.084226	0.15867	0.36083	0.09993	0.21646	0.11212	0.26392	0.042178	0.26016	0.20396	0.24923	0.085417	-0.85	-0.87917	-0.35208	-1.1875	-0.65625	-0.675	-1.1375	-0.26875	-0.775	-0.84375	-0.18333	-1.0375	-0.45208	-0.375	-1.3813	16.998	42.580	258.067	319.704	11.063	180.524	304.375	247.361	227.068	156.703	128.389	328.464	300.215	6.458	134.667	31.675	0.00042359	0.001247	0.00034365	666.34	3.5101e-06	4.0256e-06	1000.4	161.09	4.462e-06	8.5163e-06	349.94	149.31	64.492	30.685	5.4937e-06	66.88	0.00044701	0.00045363	0.00012717	510.43	5.0385e-06	4.9041e-06	757.48	128.57	4.959e-06	5.1259e-06	265.66	112.69	51.029	23.83	4.9563e-06	50.28	123.121	181.142	27.628	14.196	269.336	294.091	14.121	19.353	130.244	138.840	17.965	22.552	23.830	28.159	53.253	26.573	-8191	255	
2090.853	1	1	0	0	0.17065	0.43603	0.089412	0.11708	0.14463	0.14217	0.37494	0.16037	0.10359	0.23829	0.13518	0.19909	0.11513	0.42392	0.18382	0.19913	0.0083333	-0.63333	-0.99375	-0.1875	-0.98542	-0.89792	-0.45833	-1.1562	-0.2125	-0.69792	-1.0021	-0.32917	-1.1375	-0.99792	-0.17917	-1.1771	317.150	356.691	210.664	281.532	347.394	62.352	279.375	263.478	14.136	46.853	35.728	65.745	253.417	327.500	342.116	309.892	0.00020761	0.0022596	0.00020881	670.75	1.1613e-05	3.9185e-06	1002	161.8	6.6769e-06	1.0179e-05	351.53	151.01	65.044	30.689	1.5251e-05	67.449	0.00043265	0.00043976	0.00011988	509.68	4.7014e-06	4.8815e-06	753.99	128.59	4.8225e-06	4.7299e-06	266.24	113.28	51.154	23.811	4.8916e-06	50.704	86.813	48.503	36.083	14.388	208.590	103.175	14.340	19.263	177.079	216.283	18.035	21.946	24.501	27.609	73.737	26.431	-8191	255	
2090.949	1	1	0	0	0.11059	0.11734	0.1945	0.1732	0.16647	0.084682	0.19222	0.11579	0.075682	0.34824	0.46801	0.14509	0.17486	0.14742	0.057959	0.052887	-0.11875	-0.62708	-1.0896	-0.19167	-0.93333	-0.88125	-0.29792	-1.1229	-0.53125	-0.33333	-1.2271	-0.45	-0.975	-0.9625	-0.37083	-1.2417	31.323	203.112	298.263	63.322	251.479	231.478	3.442	270.034	305.410	355.081	296.465	32.905	313.905	267.770	176.742	290.914	0.00032475	0.00063713	0.00018435	662.42	5.437e-06	5.7534e-06	989.58	158.78	1.1109e-05	8.5084e-06	352.56	149.18	64.139	30.587	4.7643e-06	67.431	0.0004435	0.00044711	0.00012143	508.41	4.8418e-06	4.8865e-06	751.54	127.63	4.9098e-06	4.8153e-06	266.76	113.11	50.835	23.765	4.8064e-06	50.872	97.391	75.096	290.456	13.789	90.577	342.277	14.735	19.319	68.625	66.503	17.990	22.207	23.992	28.070	256.801	26.844	-8191	255	
2091.068	1	1	0	0	0.18072	0.17266	0.23506	0.17543	0.28804	0.2906	0.39861	0.13325	0.45354	0.14916	0.37612	0.051132	0.26788	0.24857	0.13994	0.14598	-0.083333	-0.43542	-1.175	-0.29375	-0.86875	-0.99375	-0.44792	-1.3125	-0.66042	-0.38542	-1.2083	-0.3875	-0.7625	-0.97917	-0.32292	-1.0792	6.761	104.513	26.288	15.339	30.625	358.845	305.478	102.599	220.944	182.393	309.416	74.816	293.849	299.205	221.910	340.503	0.00043856	0.00081109	0.0003039	655.24	5.2947e-06	1.3187e-05	997.07	161.78	5.6349e-06	1.2358e-05	354.43	150.38	64.578	30.665	7.318e-06	66.907	0.0004412	0.00043915	0.00012372	506.89	4.9099e-06	4.7834e-06	754.22	128.49	4.8034e-06	4.777e-06	267.49	113.49	51.171	23.807	4.7893e-06	50.885	147.261	106.450	88.519	14.341	176.791	136.384	15.222	19.142	36.376	187.823	17.924	21.927	24.952	28.166	291.391	27.771	-8191	255	
2091.164	1	1	0	0	0.0076529	0.16122	0.050097	0.028365	0.03423	0.12226	0.054685	0.19647	0.18372	0.13064	0.19861	0.01633	0.23938	0.30805	0.1161	0.28993	-0.30833	-0.44583	-1.1979	-0.58958	-0.62917	-0.99375	-0.39167	-1.1521	-0.64167	-0.23958	-1.2125	-0.28125	-0.75833	-1.4042	-0.22917	-1.075	211.663	332.853	145.492	49.985	266.081	187.180	94.270	338.190	26.140	258.838	346.014	198.914	89.858	353.652	126.495	301.309	0.00031104	0.0016281	0.00032538	653.62	4.1192e-06	1.6629e-05	990.05	160.97	2.3698e-06	5.5969e-06	348.16	148.48	62.889	30.651	3.2877e-06	66.833	0.00043042	0.00042544	0.00012056	505.4	4.8533e-06	4.73e-06	747.63	127.42	4.7085e-06	4.7468e-06	264.69	112.34	50.379	23.572	4.7973e-06	50.345	112.625	157.755	341.966	15.437	227.151	60.814	14.646	19.152	133.738	301.634	17.347	22.259	24.716	28.782	259.177	27.378	-8191	255	
2091.261	1	1	0	0	0.18871	0.18163	0.36641	0.41058	0.048155	0.2565	0.21765	0.23481	0.071022	0.27053	0.23429	0.26025	0.18667	0.3131	0.026318	0.13804	-0.50417	-0.18958	-1.0917	-0.52708	-0.5375	-1.2021	-0.3875	-0.88333	-1.025	-0.31875	-1.2812	-0.49792	-0.34792	-1.0896	-0.31875	-0.825	63.426	249.118	62.186	8.108	135.377	95.305	315.214	158.516	199.417	192.549	6.840	314.820	339.581	66.298	331.919	238.985	0.00035204	0.000269	0.00034196	657.49	1.2019e-05	3.4247e-06	993.54	162.37	1.1419e-05	7.252e-06	351.22	146.64	64.038	30.281	8.633e-06	67.893	0.0004368	0.00042229	0.00012289	505.64	4.7099e-06	4.8197e-06	748.81	127.83	4.6915e-06	4.5813e-06	266.4	111.89	50.474	23.605	4.7607e-06	50.5	122.365	77.367	72.950	14.477	144.094	338.641	14.663	20.113	99.753	90.778	18.685	22.458	24.407	27.845	161.675	26.921	-8191	255	
2091.334	1	1	0	0	0.19521	0.11053	0.062372	0.17486	0.14616	0.10154	0.28385	0.079007	0.27987	0.1683	0.11959	0.1571	0.1185	0.22902	0.15718	0.11285	-0.65417	-0.31667	-1.0917	-0.69792	-0.28542	-1.225	-0.66875	-0.73333	-0.93125	-0.36458	-1.2437	-0.81875	-0.43125	-1.2354	-0.39375	-0.89167	189.958	232.627	93.589	349.609	335.679	189.849	353.617	20.370	168.600	347.666	331.529	246.142	123.793	46.298	135.187	74.699	0.00011025	0.0018368	5.7163e-05	659.85	6.1616e-06	7.5042e-06	995.81	162.03	8.5017e-06	1.4286e-05	351.96	150.1	64.64	30.411	1.196e-05	68.304	0.00042425	0.00042749	0.00012036	506.17	4.874e-06	4.7658e-06	754.06	127.51	4.9478e-06	4.8674e-06	267.98	113.18	50.807	23.741	4.9357e-06	51.134	108.917	198.188	93.649	14.586	291.241	94.880	14.104	17.848	193.249	178.002	18.033	22.267	24.372	27.830	90.614	26.479	-8191	255	
2091.453	1	1	0	0	0.26327	0.22084	0.24814	0.094926	0.1634	0.12411	0.054991	0.29308	0.096952	0.073888	0.2407	0.11565	0.19234	0.058863	0.20752	0.30924	-0.80208	-0.29583	-1.025	-0.66458	-0.058333	-1.1938	-0.43333	-0.51875	-1.0417	-0.34167	-1.1354	-0.85625	-0.28542	-1.2062	-0.48333	-0.4875	139.538	255.237	273.390	247.331	266.071	121.759	107.932	67.581	148.507	79.931	209.606	242.694	233.027	339.705	178.644	330.204	0.00044176	0.00056546	0.00010762	656.56	1.684e-06	2.5154e-05	1000.6	158.65	4.6345e-06	1.9302e-05	354.53	148.84	62.923	30.399	1.3047e-05	68.328	0.00045453	0.00044234	0.00012656	504.81	4.9972e-06	5.037e-06	755.21	126.9	5.0218e-06	5.0001e-06	268.8	113.55	50.597	23.854	5.1503e-06	51.681	134.503	302.100	92.221	14.846	247.496	119.420	15.198	18.895	31.879	52.977	18.183	22.317	25.423	27.042	84.621	27.346	-8191	255	
2091.549	1	1	0	0	0.14171	0.11422	0.13204	0.15589	0.12838	0.10433	0.22314	0.13991	0.18354	0.15443	0.40235	0.16212	0.038029	0.20851	0.15473	0.2091	-0.72292	-0.37917	-0.71875	-0.77292	-0.11042	-1.025	-0.61667	-0.53958	-1.025	-0.45833	-0.86667	-1.0562	-0.30417	-1.0688	-0.76042	-0.6375	6.600	142.669	358.991	206.704	279.832	309.150	279.250	45.523	238.360	228.231	33.762	349.674	166.904	308.302	206.389	230.121	0.00014306	0.0003753	0.00072272	659.68	1.5076e-06	2.5002e-06	1007.4	158.07	3.5394e-06	4.5523e-06	354.8	151.14	65.216	30.677	1.7176e-05	67.497	0.00045202	0.00045873	0.00012737	506.62	5.0181e-06	4.9664e-06	758.39	127.83	5.0766e-06	5.1004e-06	268.69	114.19	51.215	23.872	5.0878e-06	51.059	200.050	4.593	16.321	14.127	250.079	340.894	14.765	19.070	292.897	30.398	18.168	22.827	24.545	28.665	178.256	27.305	-8191	255	
2091.645	1	1	0	0	0.030915	0.13633	0.2848	0.27177	0.2423	0.045046	0.16417	0.092182	0.094847	0.08305	0.15458	0.11601	0.13515	0.19662	0.08113	0.11752	-0.90833	-0.45	-0.78333	-1.0667	-0.17708	-1.1271	-0.78958	-0.23542	-1.1812	-0.46875	-0.93333	-1.3396	-0.46042	-1.0417	-0.83958	-0.45208	271.729	324.196	239.651	4.952	212.302	324.548	240.666	321.073	341.182	31.400	92.262	310.098	303.998	25.133	203.639	298.810	0.00023565	0.00033291	0.00026288	663.45	1.5977e-05	8.123e-06	991.35	160.92	1.3998e-05	1.9847e-05	351.05	148.31	64.381	31.135	8.6216e-06	67.631	0.00045906	0.00045841	0.00012948	508.68	4.9862e-06	5.1097e-06	755.54	128.19	5.0153e-06	5.0485e-06	268.99	112.92	51.025	24.117	5.0705e-06	51.047	135.325	135.018	39.293	14.768	189.890	177.217	14.877	19.116	135.524	176.794	17.862	22.716	24.576	27.808	228.838	27.228	-8191	255	
2091.766	1	1	0	0	0.092301	0.26633	0.22899	0.20268	0.35903	0.1956	0.1737	0.13448	0.12298	0.20865	0.40925	0.047822	0.10416	0.26689	0.17069	0.20987	-0.82083	-0.4375	-0.7	-1.1521	-0.19167	-1.1729	-1.0125	-0.47708	-1.2104	-0.63958	-0.56667	-1.3667	-0.43333	-1.0375	-1.0208	-0.64375	321.715	287.708	305.179	334.912	198.101	285.464	59.037	51.876	33.509	269.516	322.312	42.362	118.240	269.562	39.360	141.704	0.00021999	0.0009689	0.00018466	662.98	1.1048e-05	1.6933e-05	1002.5	160.94	7.81e-06	1.1279e-05	355.59	151.16	64.425	30.491	5.9213e-06	67.978	0.00045878	0.00046541	0.00012946	508.06	4.9356e-06	5.0041e-06	756.79	128.94	4.9656e-06	5.0272e-06	268.56	114.12	50.935	23.825	4.7827e-06	51.245	111.966	113.803	69.321	14.689	93.574	118.684	14.536	20.197	148.625	40.018	17.942	22.904	25.012	28.428	94.156	27.490	-8191	255	
2091.860	1	1	0	0	0.082325	0.039296	0.14098	0.15692	0.037982	0.27858	0.19884	0.11134	0.074679	0.097696	0.24186	0.26776	0.19481	0.06831	0.065191	0.22061	-0.81042	-0.66875	-0.5125	-1.1771	-0.25208	-0.99167	-1.1667	-0.3625	-1.0896	-0.60625	-0.4125	-1.2375	-0.39167	-0.74792	-1.0979	-0.35833	2.668	8.314	112.741	22.492	303.663	130.202	325.969	222.720	89.481	6.002	292.384	0.778	342.935	229.498	337.305	85.197	8.2143e-05	0.0017852	0.00016555	665.56	1.3591e-05	2.9026e-06	1006.2	164.22	6.8382e-06	1.4516e-05	355.6	150.22	64.981	30.451	4.6472e-06	68.463	0.00044744	0.0004392	0.00012033	509.7	4.7876e-06	4.7432e-06	756.97	129.39	4.8282e-06	4.7549e-06	268.4	114.34	51.115	23.797	4.7204e-06	51.337	106.922	344.339	221.926	14.935	221.286	182.071	14.192	18.674	119.023	160.094	17.936	22.899	24.553	28.713	322.815	28.112	-8191	255	
2091.956	1	1	0	0	0.19183	0.14844	0.21887	0.21611	0.23229	0.11034	0.1161	0.38939	0.19747	0.087355	0.018645	0.055388	0.073467	0.11569	0.13967	0.10562	-0.58125	-0.73125	-0.3625	-1.2354	-0.4125	-0.76458	-1.1562	-0.21042	-0.97708	-0.76667	-0.36667	-1.3833	-0.55833	-0.62917	-0.99792	-0.40833	204.862	260.552	6.493	255.189	343.700	44.066	300.661	314.805	38.016	104.976	62.931	97.819	19.804	264.487	40.207	113.033	0.00041331	0.00034796	0.00012995	668.84	5.8061e-06	9.8681e-06	1004.2	165.26	3.649e-06	7.5374e-06	350.68	152.05	64.084	31.042	4.3263e-06	67.968	0.00042388	0.00042612	0.00011823	510	4.7597e-06	4.7503e-06	760.16	129.33	4.7841e-06	4.7284e-06	268.95	114.54	51.024	23.89	4.7853e-06	51.147	145.660	166.707	191.339	14.726	160.142	330.976	15.439	19.425	42.445	260.240	18.399	22.993	24.099	28.277	205.324	27.508	-8191	255	
2092.054	1	1	0	0	0.013618	0.22582	0.20607	0.11122	0.16828	0.13177	0.21746	0.26611	0.20279	0.20618	0.20154	0.27067	0.065341	0.12473	0.30348	0.18252	-0.78333	-0.85417	-0.19375	-1.2521	-0.65625	-0.65833	-1.3646	-0.33125	-0.88958	-1.1042	-0.33958	-1.2	-0.58542	-0.5	-1.3417	-0.56667	346.427	92.545	299.552	322.974	48.190	325.152	323.700	93.381	111.132	215.147	118.714	290.683	305.236	19.633	244.630	301.873	0.00050387	0.00094998	8.9265e-05	667.51	1.04e-05	1.752e-05	1005.4	164.97	8.8319e-06	1.2919e-05	354.71	150	63.504	30.574	4.5067e-06	68.432	0.00042876	0.0004225	0.00011861	508.29	4.8173e-06	4.6981e-06	756.27	128.69	4.8149e-06	4.6803e-06	267.47	113.1	50.667	23.705	4.884e-06	50.956	136.531	100.882	20.267	14.863	194.204	124.123	15.619	19.579	213.001	126.654	18.237	23.096	24.927	27.717	292.082	26.729	-8191	255	
2092.149	1	1	0	0	0.24938	0.1011	0.2183	0.2443	0.088826	0.13881	0.057731	0.15777	0.13026	0.15281	0.2834	0.35528	0.39253	0.20395	0.38685	0.10194	-0.50833	-0.94583	-0.11458	-1.0521	-0.72083	-0.64375	-1.475	-0.475	-0.8125	-1.025	-0.39167	-1.1333	-0.77917	-0.425	-1.2021	-0.53125	270.279	326.102	256.025	346.028	98.787	255.403	51.843	31.601	2.787	72.600	284.058	340.164	345.716	344.717	238.570	8.326	0.00039328	0.0012238	0.00022644	664.66	7.2077e-06	1.2392e-05	1004.5	160.96	1.1117e-05	1.5914e-05	349.32	151.83	64.831	31.089	1.0578e-05	68.193	0.00044268	0.00043574	0.00012422	509.89	4.8758e-06	4.9008e-06	756.85	128.84	5.0699e-06	5.1337e-06	267.94	114.72	51.407	24.067	5.5515e-06	51.449	103.428	15.702	195.164	14.660	96.519	119.640	14.641	18.385	158.076	114.747	18.401	22.412	23.938	27.882	159.408	26.989	-8191	255	
2092.245	1	1	0	0	0.11834	0.14568	0.1715	0.10028	0.35489	0.094165	0.10782	0.21192	0.18867	0.23647	0.13958	0.43691	0.18967	0.21146	0.27601	0.1076	-0.35208	-1.0917	-0.17292	-1.125	-0.83958	-0.12083	-1.2417	-0.66875	-0.75833	-1.2146	-0.27292	-1.0771	-0.98333	-0.35833	-1.1604	-0.475	105.716	22.599	77.552	317.886	115.479	289.558	242.828	298.758	147.881	153.845	99.399	273.667	312.653	262.824	90.637	120.445	0.00033725	0.00096552	9.5531e-05	654.99	1.5774e-06	1.956e-06	995.78	160.6	3.54e-06	9.0709e-06	357.47	152.16	64.195	30.829	1.1451e-05	69.072	0.00050297	0.00048956	0.00013705	509.1	5.4991e-06	5.3717e-06	755.4	128.91	5.5603e-06	5.5685e-06	272.45	115.45	51.411	24.191	5.6231e-06	51.92	143.540	178.138	65.094	14.795	360.677	322.916	15.096	18.904	157.434	289.468	18.086	22.911	24.410	28.613	53.259	27.123	-8191	255	
2092.365	1	1	0	0	0.21948	0.048457	0.23616	0.16435	0.54892	0.10431	0.096579	0.39566	0.36326	0.1708	0.13724	0.31249	0.19275	0.11663	0.28166	0.21606	-0.14583	-1.15	-0.30417	-1.0438	-0.84167	-0.39167	-1.2833	-0.575	-0.41667	-1.2375	-0.49792	-0.92708	-1.125	-0.125	-1.2229	-1.0104	339.710	334.529	168.439	28.412	120.380	134.877	164.084	328.663	247.202	83.876	166.927	234.789	257.170	52.579	359.960	21.610	0.00052782	0.00095087	2.5968e-05	651.2	6.4943e-06	1.171e-05	998.38	159.75	1.0226e-05	1.3463e-05	356.89	152.61	64.487	30.913	2.9864e-06	68.658	0.00050666	0.00050368	0.00014274	506.13	5.682e-06	5.6199e-06	759.22	129.14	5.7308e-06	5.645e-06	272.91	116.62	51.853	24.354	5.7535e-06	52.168	110.877	110.414	47.100	14.367	334.912	194.270	14.897	19.482	91.485	94.200	18.476	22.540	24.138	27.745	62.627	27.026	-8191	255	
2092.462	1	1	0	0	0.26571	0.08051	0.063019	0.029993	0.17936	0.083828	0.30902	0.041105	0.10048	0.2987	0.10834	0.24446	0.096588	0.3655	0.14656	0.089196	-0.020833	-1.1271	-0.41458	-0.78958	-1.0896	-0.31042	-1.2896	-0.80417	-0.27917	-1.175	-0.54792	-0.77083	-1.0938	-0.36458	-1.1458	-0.70625	151.579	307.799	338.394	156.234	36.671	329.308	331.125	254.506	4.170	139.652	251.496	314.147	286.602	69.484	103.316	222.241	0.00031515	0.0012753	0.00057454	651.18	7.1743e-06	2.0598e-05	994.34	158.37	7.0718e-06	1.0898e-05	349.45	151.92	63.761	30.525	1.4991e-06	68.863	0.00052135	0.00052743	0.00014527	507.41	5.6969e-06	5.7834e-06	758.39	128.93	5.6177e-06	5.7347e-06	269.66	115.64	51.354	24.038	5.7073e-06	51.865	134.787	79.387	78.864	14.578	54.195	149.052	13.961	18.707	136.574	169.990	17.817	22.546	23.964	27.376	78.394	26.375	-8191	255	
2092.558	1	1	0	0	0.23063	0.24011	0.15078	0.14468	0.12625	0.095611	0.29919	0.14721	0.13942	0.17914	0.10425	0.17819	0.138	0.29636	0.20306	0.063412	0.022917	-1.3	-0.30625	-0.44792	-1.0812	-0.275	-1.2583	-0.83958	-0.375	-1.1792	-0.60625	-0.55208	-1.3312	-0.23125	-0.90417	-1.0896	5.764	140.923	10.746	251.654	128.389	294.374	323.512	0.599	77.217	171.443	131.317	190.392	357.288	317.484	22.553	182.648	0.00036377	0.00030859	4.5707e-05	653.76	3.8748e-06	9.8495e-06	999.5	161.33	5.4884e-06	9.041e-06	356.34	152.23	64.015	30.768	7.3006e-06	68.657	0.00050479	0.00051464	0.0001434	508.04	5.6666e-06	5.5924e-06	757.01	129.37	5.712e-06	5.8418e-06	272.25	116.55	51.534	24.147	5.8608e-06	51.941	110.009	67.466	114.019	14.488	176.654	192.280	14.287	18.106	42.489	48.400	17.345	21.965	23.955	27.434	68.358	26.317	-8191	255	
2092.629	1	1	0	0	0.10519	0.13601	0.34227	0.11434	0.16929	0.1711	0.42243	0.14956	0.3459	0.23486	0.35961	0.35434	0.15154	0.067764	0.1378	0.091705	0.0875	-1.0875	-0.55625	-0.46042	-1.2625	-0.34167	-0.90208	-0.90208	-0.44792	-1.0646	-0.74583	-0.53958	-1.4188	-0.59167	-0.69167	-1.2062	101.039	315.273	81.947	334.030	248.726	60.606	301.241	349.553	55.279	294.037	334.953	301.365	83.683	237.906	236.584	353.086	0.00038758	0.0013201	0.00023205	651.19	6.0185e-06	6.7314e-06	991.36	160.59	4.2217e-06	5.0866e-06	353.31	154.41	64.67	31.015	1.3659e-05	68.957	0.00052269	0.00052176	0.00014847	508.99	5.832e-06	5.7232e-06	758.54	130	5.8656e-06	5.7431e-06	273.57	117.03	52.158	24.388	5.8633e-06	52.261	117.520	176.112	294.314	14.828	195.107	288.044	14.618	18.857	246.430	169.635	18.099	22.609	24.239	27.608	148.253	26.317	-8191	255	
2092.750	1	1	0	0	0.17667	0.17761	0.062679	0.13535	0.10091	0.30475	0.1967	0.19825	0.17813	0.23418	0.12412	0.26139	0.20638	0.24323	0.065589	0.086317	0.2	-1.0333	-0.7625	-0.48333	-1.1208	-0.38125	-0.89375	-1.1854	-0.27708	-1.2021	-0.83125	-0.32917	-1.2396	-0.45417	-0.39167	-1.0979	253.030	176.177	81.537	212.547	198.130	355.569	312.065	265.279	91.347	347.912	264.217	300.146	356.315	69.692	26.994	167.346	0.00045868	0.00072701	0.00062129	657.26	8.5424e-06	4.6234e-06	1008.5	163.04	2.5291e-06	1.2266e-05	355.28	153.51	65.396	30.811	6.4472e-06	69.331	0.00052194	0.00052849	0.00014655	509.9	5.7383e-06	5.9273e-06	764.38	131.15	5.8798e-06	5.9298e-06	273.13	117.63	52.483	24.414	5.8534e-06	52.619	160.835	317.430	102.319	14.544	291.431	107.759	14.082	18.447	314.721	341.465	17.548	22.245	24.005	27.838	329.452	26.471	-8191	255	
2092.846	1	1	0	0	0.081378	0.33837	0.21398	0.059132	0.076988	0.21699	0.32094	0.11825	0.34709	0.10549	0.25913	0.16347	0.036442	0.12309	0.13082	0.14909	0.10833	-0.87292	-0.975	-0.32292	-1.1646	-0.58125	-0.65417	-1.1125	-0.29792	-0.88125	-1.025	-0.43125	-1.1313	-0.77917	-0.38958	-1.3854	239.923	300.135	149.961	140.148	288.472	116.498	339.146	260.842	329.169	181.962	328.498	2.670	238.471	265.003	28.750	280.586	0.00042546	0.0011638	0.0003368	649.65	5.4501e-06	8.489e-06	986.7	161.03	4.6218e-06	1.69e-05	355.05	152.54	64.263	30.234	5.1752e-06	67.531	0.00052755	0.00054154	0.00014748	506.57	5.7972e-06	5.8478e-06	755.9	131.54	6.028e-06	5.996e-06	273.51	116.8	52.184	24.148	6.0875e-06	51.477	121.656	326.696	2.465	14.627	113.863	108.240	14.542	18.609	27.506	157.316	17.997	22.435	24.452	28.193	258.839	26.528	-8191	255	
2092.942	1	1	0	0	0.15458	0.18727	0.12652	0.29606	0.16999	0.12131	0.18144	0.17691	0.15642	0.26428	0.38582	0.27359	0.20927	0.062769	0.10355	0.13897	-0.14792	-0.85208	-1.1083	-0.39167	-1.0917	-0.81667	-0.46667	-1.2417	-0.48958	-0.69792	-1.1458	-0.25	-1.2188	-0.83542	-0.22292	-1.3687	57.071	93.191	302.091	346.067	315.681	101.266	316.932	273.272	78.284	289.993	336.574	280.165	324.801	323.040	119.677	275.768	0.00020853	0.00065057	6.2757e-05	648.5	1.051e-05	6.3158e-06	972.53	164.16	6.5567e-06	1.4347e-05	354.67	150.55	64.095	29.847	7.9648e-06	65.792	0.00055376	0.00057532	0.00015686	506.97	6.2488e-06	6.2254e-06	745.14	132.63	6.1673e-06	6.199e-06	273.8	115.27	52.057	23.888	6.2885e-06	50.507	122.326	223.490	68.670	14.563	135.118	217.756	14.300	18.946	253.347	300.384	17.730	22.323	24.313	27.756	238.610	27.010	-8191	255	
2093.037	1	1	0	0	0.031516	0.17456	0.022716	0.26177	0.26215	0.026427	0.2461	0.16934	0.22131	0.12764	0.18518	0.40195	0.12534	0.20632	0.28915	0.10682	-0.225	-0.73333	-1.1979	-0.32708	-0.94167	-0.9125	-0.28542	-1.1833	-0.34167	-0.74792	-1.0708	-0.27917	-0.99167	-0.93333	-0.21458	-1.2479	349.609	33.787	264.707	317.186	37.926	141.278	348.701	315.374	319.826	139.018	333.192	317.657	312.908	322.779	316.609	34.846	0.00031831	0.00084261	0.00045205	648.84	3.0714e-06	1.5927e-05	969.66	161.09	1.1394e-05	1.0193e-05	356.82	151.26	64.865	30.294	7.8221e-06	67.201	0.00058039	0.00058014	0.00016211	508.45	6.4695e-06	6.1911e-06	746.17	133.51	6.3238e-06	6.3e-06	276.68	116.12	52.382	24.028	6.3212e-06	51.211	134.777	147.333	41.725	14.311	115.290	76.239	14.637	18.377	139.795	184.855	17.689	21.844	25.127	27.117	106.373	27.017	-8191	255	
2093.135	1	1	0	0	0.25389	0.02327	0.36792	0.30226	0.12553	0.15976	0.23221	0.10097	0.036359	0.18965	0.36272	0.27524	0.079963	0.032536	0.039277	0.27618	-0.30833	-0.62917	-1.0417	-0.40625	-0.86875	-0.97292	-0.20833	-1.3312	-0.61875	-0.25833	-1.3583	-0.43542	-0.8375	-0.91458	-0.375	-1.1646	184.317	17.784	188.915	8.682	336.604	19.589	267.729	351.575	50.699	278.582	308.001	2.059	352.423	235.514	123.117	260.757	0.00042202	0.0009726	0.00011384	656.42	1.4519e-05	7.1487e-06	984.93	167.58	7.7248e-06	8.954e-06	363.98	153.98	65.792	30.481	2.0242e-05	68.519	0.00057053	0.0005695	0.00015508	512.07	6.2119e-06	6.0595e-06	750.93	135.17	6.1154e-06	6.0488e-06	280.61	117.85	53.071	24.132	6.1644e-06	51.857	150.493	335.790	110.126	14.702	114.137	124.635	14.366	19.794	80.177	109.785	18.163	22.791	24.402	27.905	134.405	27.562	-8191	255	
2093.229	1	1	0	0	0.039477	0.15259	0.10848	0.24547	0.047411	0.28114	0.15913	0.19168	0.084646	0.28811	0.044895	0.30253	0.16099	0.19233	0.2209	0.15782	0	-0.54583	-0.94375	-0.54583	-0.70833	-1.0417	-0.35208	-0.94375	-0.70208	-0.28125	-1.2104	-0.36458	-0.59375	-1.0479	-0.13958	-1.2479	10.782	325.394	315.750	309.911	137.000	1.085	276.160	116.414	341.338	182.753	46.968	19.337	216.285	357.001	316.266	251.345	0.00035545	0.00054312	0.00046423	661.24	7.2583e-06	8.4468e-06	992.62	166.53	6.2255e-06	1.4294e-05	361.67	154.19	65.045	30.211	8.8392e-06	68.211	0.00055417	0.00055481	0.00015685	512.46	6.0008e-06	6.0742e-06	756.95	135.07	5.9531e-06	5.9277e-06	278.99	117.44	52.537	23.925	6.0028e-06	51.491	134.359	96.309	62.670	15.043	72.320	223.260	14.671	19.023	135.897	88.123	17.534	22.534	23.615	28.040	188.615	27.049	-8191	255	
2093.325	1	1	0	0	0.11402	0.21452	0.075768	0.10787	0.047477	0.21198	0.11194	0.2241	0.19652	0.40769	0.13587	0.18087	0.1315	0.14541	0.076609	0.20982	-0.23958	-0.42292	-1.1167	-0.65417	-0.40625	-1.1792	-0.44792	-0.92708	-0.77917	-0.1375	-1.175	-0.72083	-0.51458	-0.92917	-0.42083	-0.95417	247.688	41.233	145.827	137.390	116.451	202.022	282.626	68.588	249.407	213.284	335.434	4.415	306.577	349.874	123.177	260.291	0.00040564	0.0011263	0.00025792	667.64	9.5887e-06	1.5984e-05	996.52	167	1.8259e-05	7.8719e-06	356.72	152.37	65.233	30.297	2.1142e-06	67.682	0.00052928	0.0005498	0.00014938	513.9	5.8651e-06	5.718e-06	756.65	134.29	5.8228e-06	5.8071e-06	276.5	116.34	52.479	23.796	5.9752e-06	51.175	147.310	60.191	125.007	14.063	160.255	139.978	14.448	18.068	301.615	100.472	17.967	22.149	25.133	27.621	236.541	27.081	-8191	255	
2093.446	1	1	0	0	0.27667	0.074333	0.29147	0.14806	0.27815	0.063392	0.19785	0.18363	0.34434	0.17424	0.12229	0.35179	0.16733	0.22024	0.12909	0.20851	-0.60625	-0.27917	-0.91042	-0.66667	-0.33958	-1.2875	-0.3875	-0.61875	-1.1	-0.18958	-1.1833	-0.80417	-0.22917	-1.3875	-0.50417	-0.87917	220.591	322.815	159.824	130.900	69.882	289.845	318.517	254.084	254.511	284.683	322.394	298.012	12.944	316.640	314.920	281.513	0.00038575	0.0023179	0.00024234	659.67	2.8273e-06	5.456e-06	994.23	167.08	1.3694e-06	2.0194e-05	364.78	153.11	64.63	29.881	6.4399e-06	67.746	0.00053582	0.00054556	0.00015265	513.5	5.8559e-06	5.8478e-06	758.2	134.88	5.8635e-06	5.7925e-06	278.85	116.73	52.336	23.727	5.9043e-06	51.361	156.030	129.015	132.586	14.493	268.294	187.106	14.359	18.218	85.837	232.876	18.139	22.829	24.334	27.480	105.255	27.313	-8191	255	
2093.542	1	1	0	0	0.079551	0.32487	0.15663	0.27637	0.13797	0.0651	0.45389	0.17821	0.15566	0.098786	0.22971	0.19127	0.16093	0.2925	0.1286	0.27065	-0.72083	-0.28125	-1.0646	-0.79375	-0.38542	-1.2208	-0.375	-0.55	-1.0562	-0.38958	-0.98125	-0.91875	-0.225	-1.2854	-0.58542	-0.61042	68.930	20.263	197.074	334.804	91.338	44.292	319.420	161.880	35.265	132.553	144.824	6.510	84.679	262.829	279.832	283.625	0.00043583	0.0016365	0.000155	651.15	1.0042e-05	8.0911e-06	999.13	167.22	7.4215e-06	4.2216e-06	360.27	152.98	64.265	29.921	3.4447e-06	68.092	0.00053295	0.0005324	0.00014905	510.37	5.8213e-06	5.7559e-06	756.97	134.98	5.6903e-06	5.9049e-06	278	116.67	51.838	23.814	5.7224e-06	51.348	81.303	248.534	175.424	14.766	122.401	155.236	14.065	19.433	244.862	272.257	18.024	22.213	23.982	28.271	243.137	27.285	-8191	255	
2093.638	1	1	0	0	0.22132	0.11583	0.14098	0.17504	0.18197	0.10407	0.16138	0.032451	0.33162	0.20056	0.18975	0.11838	0.19377	0.34072	0.29017	0.24089	-0.77083	-0.20417	-0.95208	-0.9625	-0.19792	-1.0542	-0.675	-0.53542	-1.2604	-0.33542	-1.0521	-1	-0.24583	-1.2208	-0.36875	-0.47917	291.622	309.268	287.361	261.020	265.995	184.248	238.622	15.175	11.199	268.953	346.172	283.755	353.678	302.465	339.335	36.725	0.00012201	0.0022271	0.00023149	666.12	7.7609e-06	1.3188e-05	995.58	166.28	9.8789e-06	4.4876e-06	364.67	153.49	64.108	29.791	7.8012e-06	67.276	0.00051279	0.00051953	0.00014821	515.41	5.6384e-06	5.7155e-06	760.63	134	5.6639e-06	5.8035e-06	280.02	116.6	51.872	23.549	5.722e-06	51.097	148.194	331.748	349.959	14.656	144.780	118.163	14.818	18.432	112.021	251.251	17.729	23.080	24.016	28.246	74.339	26.905	-8191	255	
2093.734	1	1	0	0	0.15546	0.039738	0.2141	0.14872	0.14803	0.20705	0.1323	0.30243	0.13239	0.2459	0.060988	0.25817	0.081544	0.12287	0.096423	0.17586	-0.93958	-0.26875	-0.7	-1.1063	-0.22708	-1.2542	-0.77292	-0.45417	-1.2167	-0.55417	-0.76458	-1.1292	-0.22292	-1.0542	-0.72708	-0.56042	221.099	275.145	248.301	197.963	10.777	314.143	297.688	296.350	121.025	352.900	294.963	87.392	105.492	96.035	326.586	322.837	0.00023504	0.00052878	0.00018018	659.59	4.4604e-06	1.363e-05	988.87	165.34	1.5921e-05	6.3626e-06	356.78	151.55	64.099	29.55	5.8119e-06	65.871	0.00050833	0.00051125	0.00013981	511.34	5.5977e-06	5.5962e-06	755.96	133.02	5.4493e-06	5.5507e-06	276.96	115.36	51.213	23.341	5.4652e-06	50.234	107.687	119.391	21.651	13.479	94.866	216.358	14.136	19.500	147.879	175.057	18.078	23.185	24.521	28.765	155.450	27.441	-8191	255	
2093.855	1	1	0	0	0.19858	0.10542	0.072154	0.030258	0.28265	0.12375	0.21329	0.18535	0.32218	0.09861	0.21812	0.20913	0.1295	0.19909	0.23669	0.23874	-0.96458	-0.47292	-0.6	-1.175	-0.37083	-0.98333	-0.98958	-0.39167	-1.2125	-0.49167	-0.47292	-1.3396	-0.40625	-0.98958	-0.92292	-0.44167	244.691	2.154	329.237	37.091	129.475	91.626	19.676	15.040	232.763	353.823	18.844	294.227	86.530	4.077	268.823	262.123	0.0001788	0.0018835	7.2517e-05	654.29	5.1574e-06	9.987e-06	993.96	164.76	3.6039e-06	3.6772e-06	370.24	153.2	64.564	30.174	9.0755e-06	67.416	0.00049315	0.00050949	0.00014026	508	5.5414e-06	5.4578e-06	755.38	132.37	5.5807e-06	5.4176e-06	280.1	116.27	51.494	23.335	5.3074e-06	50.8	106.242	271.198	238.482	14.036	88.065	216.812	14.722	18.798	31.734	319.374	18.121	22.510	24.866	28.497	238.119	27.350	-8191	255	
2093.927	1	1	0	0	0.18239	0.17338	0.16534	0.080911	0.16214	0.01632	0.13846	0.32479	0.23578	0.21849	0.20137	0.12673	0.21589	0.20936	0.082969	0.078138	-0.725	-0.52292	-0.30417	-1.2354	-0.19167	-0.86875	-1.1688	-0.035417	-1.0688	-0.61875	-0.52083	-1.2979	-0.48333	-0.89375	-1.1104	-0.13542	330.815	43.967	290.331	297.234	207.076	279.111	313.952	348.139	191.494	301.010	339.731	181.352	184.021	348.218	104.345	159.144	0.00027533	0.0015617	0.00031558	659.79	7.8551e-06	9.5865e-06	995.92	165.83	5.9734e-06	2.0196e-05	363.4	154.25	63.832	29.547	1.2258e-05	67.393	0.00048439	0.00048461	0.00013824	507.61	5.4052e-06	5.3335e-06	757.82	132.55	5.5099e-06	5.4332e-06	279.25	117.1	51.191	23.186	5.3884e-06	50.915	116.720	52.396	86.515	14.769	211.629	324.542	14.887	19.681	21.657	145.348	18.679	23.196	24.279	27.800	130.263	27.338	-8191	255	
2094.045	1	1	0	0	0.15868	0.27231	0.18798	0.081677	0.14544	0.24073	0.26298	0.41016	0.091435	0.087949	0.17289	0.10907	0.27355	0.17136	0.22614	0.31977	-0.775	-0.64167	-0.28542	-1.2083	-0.55625	-0.70417	-1.275	-0.22708	-0.9625	-0.96875	-0.45	-1.1792	-0.47292	-0.62292	-0.95	-0.39792	150.942	150.945	320.064	330.790	124.363	297.105	246.613	11.458	205.579	100.901	2.424	223.285	317.058	89.271	12.195	349.475	0.00015472	0.0022469	0.00028624	663.09	1.8433e-05	1.6353e-05	1005.8	163.87	8.3505e-06	5.5191e-06	369.33	155.08	63.959	29.707	5.4757e-06	67.508	0.00050034	0.00050086	0.00014061	510.83	5.5037e-06	5.5104e-06	760.11	132.78	5.4868e-06	5.6288e-06	283.77	118.11	51.656	23.282	5.557e-06	50.915	236.139	73.756	235.899	14.471	189.982	248.943	14.247	18.899	177.462	162.425	18.376	22.891	24.748	28.228	137.602	27.080	-8191	255	
2094.142	1	1	0	0	0.14122	0.16828	0.043203	0.24442	0.261	0.27562	0.20158	0.082062	0.17299	0.34695	0.3304	0.28645	0.31468	0.23952	0.27689	0.17975	-0.64792	-0.79167	-0.31458	-1.2875	-0.41458	-0.76042	-1.4458	-0.47708	-0.65417	-1.0792	-0.34167	-1.1979	-0.54167	-0.51458	-1.275	-0.275	285.744	130.605	95.767	346.242	138.109	81.788	341.313	329.903	100.592	142.339	35.214	330.866	29.921	359.239	18.329	263.761	0.00039948	0.0003598	0.00011648	662.17	9.8337e-06	9.4236e-06	995.81	166.85	9.3494e-06	8.9102e-06	364.99	154.44	64.299	29.15	5.6571e-06	67.278	0.00050185	0.00051013	0.00013852	509.29	5.5026e-06	5.4407e-06	760.63	132.45	5.4785e-06	5.3675e-06	280	116.42	51.247	23.06	5.4398e-06	50.382	114.433	144.121	304.643	14.235	162.413	109.807	14.744	18.648	94.814	123.978	18.384	23.004	24.933	27.961	257.245	27.280	-8191	255	
2094.238	1	1	0	0	0.24503	0.19479	0.15579	0.22412	0.12768	0.15473	0.23624	0.10324	0.11622	0.21055	0.03181	0.1751	0.18593	0.069775	0.20248	0.15836	-0.4875	-0.81042	-0.44167	-1.3208	-0.48125	-0.54792	-1.3292	-0.47292	-0.88958	-1.1562	-0.36042	-1.0438	-0.6375	-0.26042	-1.125	-0.42292	22.833	71.174	147.054	115.696	77.606	187.538	307.726	174.894	98.177	181.020	227.701	291.784	348.299	88.246	12.078	84.846	0.00038191	0.0025708	0.000282	655.98	7.3386e-06	8.6961e-06	1001	163.81	3.2422e-06	1.2635e-05	365.99	154.27	64.705	29.161	3.9549e-06	66.657	0.00051174	0.00050798	0.00013949	509.36	5.6391e-06	5.6568e-06	760.52	133.12	5.6822e-06	5.6973e-06	281.04	117.1	51.771	23.171	5.7767e-06	50.827	95.003	70.379	311.803	14.238	119.771	238.834	14.783	18.940	74.978	134.022	19.196	23.016	24.359	28.235	28.692	27.858	-8191	255	
2094.334	1	1	0	0	0.058813	0.2726	0.19268	0.12543	0.15103	0.21422	0.13453	0.15847	0.16648	0.24138	0.30194	0.14392	0.35052	0.17531	0.18845	0.18525	-0.4625	-1.1125	-0.45208	-1.1729	-0.71875	-0.30625	-1.2792	-0.58542	-0.68125	-1.025	-0.35417	-1.0646	-0.91667	-0.24583	-1.0187	-0.59167	36.063	334.975	195.804	350.837	28.947	137.327	214.413	215.185	288.262	342.828	34.644	327.928	303.587	143.760	261.521	271.042	0.00021001	0.0012253	0.0002057	652.41	2.3399e-06	1.0084e-05	1011.1	165.56	5.7432e-06	1.4414e-05	365.59	152.81	64.607	29.181	8.8076e-06	67.429	0.00051823	0.00053094	0.00014714	506.54	5.7033e-06	5.8869e-06	766.25	132.55	5.782e-06	5.852e-06	283.03	117.09	51.857	23.187	6.0059e-06	51.167	164.314	134.619	117.295	14.933	39.848	253.468	14.307	19.146	187.319	177.322	18.334	23.906	24.416	28.101	101.739	27.821	-8191	255	
2094.430	1	1	0	0	0.15997	0.17771	0.24571	0.25725	0.29126	0.10942	0.13262	0.23217	0.29555	0.12961	0.11743	0.091521	0.097162	0.10753	0.13568	0.26578	-0.175	-1.25	-0.40625	-0.99792	-0.90208	-0.40417	-1.3979	-0.50208	-0.41042	-1.3292	-0.51042	-0.94583	-0.94583	-0.37083	-1.1396	-0.73125	317.192	189.668	189.355	338.814	278.911	277.703	328.611	336.695	64.604	327.480	111.222	326.220	268.941	192.928	145.725	263.931	0.00015182	0.002263	0.00017409	655.79	6.0122e-06	1.7025e-05	995.89	165.45	1.3215e-06	8.6359e-06	364.07	153.93	63.621	28.546	8.7401e-07	66.554	0.00053606	0.00055755	0.00015643	510.68	5.9446e-06	6.1944e-06	760.21	133.43	6.2349e-06	6.3468e-06	283.81	118.04	51.811	23.308	6.592e-06	51.132	95.692	96.731	178.307	14.880	23.294	139.630	14.932	18.781	131.479	73.103	17.678	22.779	25.248	28.170	62.875	27.545	-8191	255	
2094.526	1	1	0	0	0.11891	0.043873	0.099186	0.19293	0.16892	0.10133	0.10656	0.2379	0.1955	0.29083	0.18134	0.33925	0.2484	0.30789	0.14072	0.2106	-0.079167	-1.1271	-0.44375	-0.7375	-0.93542	-0.225	-1.2771	-0.55417	-0.43542	-1.1042	-0.37083	-0.66875	-1.0063	-0.25833	-1.1042	-0.90833	19.656	3.899	85.879	287.526	220.709	182.560	337.549	31.041	72.794	46.028	325.532	300.192	324.590	297.832	269.038	23.718	0.0002237	0.0019614	0.0001035	644.55	2.2585e-05	1.7407e-06	979.99	163.52	3.0109e-06	9.8651e-06	363.33	150.48	62.587	28.692	1.7464e-05	65.362	0.00058762	0.00060341	0.00017037	506.12	6.5937e-06	6.6156e-06	754.06	134.61	6.4752e-06	6.565e-06	283.38	116.48	51.32	23.036	6.4823e-06	50.326	126.394	101.545	185.719	15.040	123.759	314.290	14.404	19.026	279.838	114.620	17.944	23.108	24.355	27.725	112.235	27.534	-8191	255	
2094.622	1	1	0	0	0.17375	0.1446	0.29622	0.3	0.18276	0.1428	0.254	0.065495	0.050753	0.27845	0.25511	0.11172	0.12942	0.17562	0.035491	0.1994	-0.054167	-1.0875	-0.60208	-0.59792	-0.98333	-0.2625	-1.3083	-1.1208	-0.26042	-1.2938	-0.45208	-0.58958	-1.1375	-0.34375	-0.8875	-0.87917	161.539	258.274	43.623	297.699	19.944	3.519	314.007	299.353	249.375	111.465	17.195	12.527	88.435	160.791	146.060	133.932	0.00036116	0.0010265	0.00017847	646.39	6.3661e-06	8.2243e-06	975.98	163.14	1.1704e-05	1.2213e-06	364.67	153.79	63.354	28.549	1.6341e-05	66.015	0.00056665	0.00056736	0.00015461	503.73	6.0323e-06	6.0089e-06	749.34	131.3	5.8375e-06	5.9162e-06	281.24	116.38	51.179	22.768	5.708e-06	50.145	138.583	251.951	106.386	14.828	334.243	267.358	14.488	19.058	128.717	173.248	18.216	22.925	24.901	27.995	91.221	27.091	-8191	255	
2094.719	1	1	0	0	0.39782	0.27546	0.33309	0.35343	0.1562	0.21642	0.060625	0.38619	0.12641	0.2024	0.083345	0.086512	0.26805	0.021606	0.19972	0.26817	0.05	-1.1667	-0.74375	-0.43958	-1.3542	-0.375	-0.91042	-1.0271	-0.3625	-1.0292	-0.7125	-0.53333	-1.2292	-0.34167	-0.68125	-1.1292	305.836	227.243	158.096	317.507	155.061	163.897	276.912	6.068	349.807	30.160	135.339	31.001	45.365	285.675	136.738	247.138	0.00037569	0.00068299	0.00023358	640.76	4.2283e-06	9.4083e-06	1007.5	166.58	9.457e-06	3.9465e-06	368.92	155.04	64.235	28.679	1.1118e-05	66.424	0.00050468	0.00050648	0.00013984	499.29	5.4503e-06	5.5542e-06	763.88	131.54	5.3293e-06	5.6397e-06	282.89	117.23	51.449	22.872	5.6472e-06	50.786	109.609	59.944	234.095	14.499	272.381	73.727	14.318	18.709	106.639	275.609	18.609	22.699	24.818	28.262	234.163	27.335	-8191	255	
2094.815	1	1	0	0	0.11069	0.20635	0.30492	0.16428	0.14915	0.19271	0.18794	0.23852	0.19351	0.058185	0.12434	0.095773	0.18907	0.14217	0.28658	0.095172	0.15417	-1.2292	-0.61875	-0.425	-1.2375	-0.35625	-1.1104	-1.2917	-0.0625	-1.0917	-0.88542	-0.36458	-1.0479	-0.54167	-0.56875	-1.3208	150.696	86.584	257.942	313.360	220.121	169.017	229.484	196.324	321.346	251.101	327.454	329.829	38.402	162.579	266.615	50.872	7.3889e-05	0.00095872	7.5803e-05	648.2	7.9763e-06	1.7503e-05	997.27	163.71	2.93e-06	2.1384e-05	370.65	153.53	63.692	29.003	3.5804e-06	67.3	0.00050632	0.00050385	0.00014492	505.1	5.7321e-06	5.623e-06	760.22	132.6	5.6793e-06	5.8471e-06	285.42	117.1	51.281	22.96	5.7819e-06	51.084	120.660	290.381	112.476	14.467	217.885	250.643	14.565	18.567	241.636	42.111	17.826	22.339	24.903	27.924	286.373	27.349	-8191	255	
2094.934	1	1	0	0	0.033291	0.13119	0.21483	0.13443	0.24261	0.22185	0.24582	0.22183	0.33113	0.18456	0.26855	0.2413	0.021043	0.16244	0.16877	0.16033	0.19167	-0.98333	-0.71875	-0.39792	-1.2167	-0.56875	-0.7125	-1.3417	-0.36875	-0.79792	-0.84167	-0.23333	-1.1979	-0.55833	-0.47708	-1.4292	171.627	39.011	139.583	152.797	248.310	320.941	267.347	147.901	223.994	114.813	2.343	44.211	25.566	270.271	347.616	350.722	0.00017699	0.00084452	0.00034154	650.42	8.2268e-06	1.5889e-05	1012.5	164.53	2.6776e-06	1.055e-05	372.87	152.98	62.709	28.703	9.4907e-06	66.048	0.00051463	0.00050303	0.00013903	500.73	5.3228e-06	5.2918e-06	761.83	130.65	5.1215e-06	5.1127e-06	282.69	115.73	50.154	22.35	5.0311e-06	49.783	29.611	126.626	44.776	14.503	315.959	42.834	14.747	19.427	161.825	265.989	18.722	22.879	24.746	27.922	21.755	26.981	-8191	255	
2095.030	1	1	0	0	0.26514	0.18167	0.15679	0.43473	0.14787	0.07389	0.27664	0.15617	0.10923	0.070964	0.09667	0.14239	0.24687	0.23711	0.22256	0.22601	-0.00625	-0.79167	-1.0562	-0.25833	-0.98333	-0.57917	-0.71042	-1.0583	-0.26458	-0.81667	-1.1771	-0.40208	-1.1646	-0.75208	-0.40833	-1.3792	223.069	175.499	274.374	14.598	262.507	62.839	341.446	333.884	11.225	233.816	337.343	313.651	14.710	146.664	309.062	245.049	0.00036525	0.0013892	0.00027667	645.16	6.7762e-06	1.4493e-05	999.11	163.57	2.9645e-06	1.3178e-05	368.52	151.77	62.617	28.569	1.1757e-05	65.8	0.00044875	0.00044364	0.00012292	494.66	4.8095e-06	4.848e-06	756.64	129.91	4.8238e-06	5.016e-06	279.54	114.65	49.856	22.362	4.907e-06	49.671	132.483	79.260	134.885	14.194	143.600	189.601	14.826	18.797	130.424	49.323	18.191	22.368	24.438	27.248	57.281	27.180	-8191	255	
2095.128	1	1	0	0	0.078101	0.10631	0.1501	0.32376	0.21935	0.17295	0.17417	0.20827	0.13319	0.11473	0.061613	0.18613	0.096239	0.27837	0.18851	0.31006	0.0020833	-0.69583	-1.0417	-0.36667	-1.1958	-0.9375	-0.64583	-1.2083	-0.57083	-0.70417	-1.1812	-0.44375	-0.98542	-0.9875	-0.32292	-1.2375	173.357	206.902	105.949	324.496	328.531	97.351	288.335	56.256	2.087	274.633	260.958	356.618	345.634	27.438	245.766	342.704	0.00027584	0.00065146	0.00049057	634.8	9.5103e-06	1.152e-05	1001.4	166.39	3.4479e-06	1.4324e-05	368.55	153.24	62.341	28.56	1.4216e-05	66.157	0.00045154	0.00047106	0.00012924	497.32	5.0708e-06	5.0725e-06	755.92	131.05	5.1293e-06	5.2657e-06	280.68	115.37	50.3	22.507	5.2014e-06	49.935	92.689	190.433	56.547	14.181	293.662	112.982	14.836	18.762	71.892	126.684	18.230	23.384	24.690	27.690	218.330	28.098	-8191	255	
2095.222	1	1	0	0	0.19018	0.12243	0.17411	0.12009	0.39014	0.1959	0.34108	0.30856	0.088092	0.27987	0.32124	0.33851	0.14022	0.13374	0.16938	0.26103	-0.29375	-0.39792	-1.1063	-0.31875	-0.83125	-0.95	-0.51875	-1.2854	-0.6375	-0.49792	-1.3604	-0.52083	-0.95	-1.0542	-0.175	-1.4667	98.961	308.544	231.361	8.359	240.023	316.135	337.313	175.058	108.447	116.442	290.869	340.189	361.394	289.071	339.224	73.690	0.00037548	0.00020637	0.0001618	647.16	1.226e-05	8.7303e-06	1007.9	164.22	9.7897e-06	1.6485e-05	371.92	153.99	63.183	28.726	4.6935e-06	67.107	0.00046563	0.00047981	0.00013198	499.85	5.1831e-06	5.1724e-06	760.55	131.26	5.2942e-06	5.335e-06	282.49	116.53	50.631	22.516	5.2889e-06	50.604	142.731	231.164	7.123	14.444	229.338	186.820	14.601	19.525	296.587	313.369	18.229	22.780	24.530	28.027	166.062	27.203	-8191	255	
2095.318	1	1	0	0	0.090887	0.032528	0.11807	0.29546	0.077884	0.22248	0.046908	0.27107	0.26096	0.2172	0.085716	0.12472	0.16344	0.064465	0.23408	0.27131	-0.3	-0.44167	-1.1667	-0.40417	-0.85	-0.95625	-0.30417	-1.1167	-0.75833	-0.53958	-1.2	-0.67917	-0.79792	-1.25	-0.22708	-1.1521	330.944	353.948	301.766	19.947	338.515	144.828	16.048	342.109	113.606	342.591	291.473	56.304	305.016	97.908	23.613	358.314	0.00031072	0.00056019	0.00032195	649.01	6.6104e-06	9.4858e-06	1010.2	164.91	1.0326e-05	1.2217e-05	367.52	154.42	63.43	28.786	5.7967e-06	65.96	0.00048476	0.00048045	0.0001333	499.4	5.2729e-06	5.3309e-06	763.79	131.11	5.3452e-06	5.3532e-06	282.72	116.8	50.441	22.575	5.3676e-06	50.13	117.875	350.918	23.813	14.545	22.924	205.734	14.813	19.783	192.547	170.313	18.704	22.961	24.778	28.519	346.688	27.520	-8191	255	
2095.414	1	1	0	0	0.029097	0.15763	0.18048	0.17276	0.18267	0.14386	0.16607	0.18196	0.065072	0.095943	0.27767	0.24249	0.27936	0.069229	0.18883	0.070742	-0.47708	-0.31875	-1.2729	-0.48958	-0.56667	-1.1542	-0.3625	-0.82917	-0.80208	-0.20208	-1.1917	-0.79792	-0.6	-1.1417	-0.23958	-1.0063	193.372	300.890	288.120	48.065	169.913	219.650	7.942	25.434	63.631	321.688	318.414	352.284	300.927	320.450	123.683	252.755	0.00037625	0.00045904	0.00018754	647.64	3.9504e-06	6.8682e-06	1010	161.34	5.9242e-06	3.4418e-06	371.17	152.49	62.852	28.741	1.4998e-05	65.531	0.00047998	0.00048085	0.00013423	497.55	5.2344e-06	5.1937e-06	761.35	128.65	5.1342e-06	5.1155e-06	281.39	115.7	50.058	22.348	5.0867e-06	49.702	116.017	316.400	96.537	14.460	353.994	148.887	14.552	19.306	159.357	93.899	18.374	23.343	24.431	28.454	1.868	27.378	-8191	255	
2095.535	1	1	0	0	0.25112	0.093942	0.11848	0.20186	0.05043	0.17563	0.31413	0.20702	0.023955	0.1017	0.1553	0.030451	0.093643	0.20751	0.33532	0.095096	-0.57917	-0.25417	-1.1313	-0.675	-0.38542	-1.1354	-0.33542	-0.77083	-0.79583	-0.30833	-1.1208	-0.71458	-0.38125	-1.1708	-0.39375	-0.86042	61.026	226.923	286.235	13.823	199.102	133.715	279.215	322.701	149.628	223.382	313.627	192.942	193.343	45.848	63.558	314.925	0.00043225	0.0017037	0.0003237	647.19	5.6959e-06	1.4782e-06	1014.6	163.62	5.3389e-06	1.1294e-05	372.71	154.35	63.596	29.091	3.2113e-06	66.473	0.00046544	0.00046349	0.00013466	500.16	5.0774e-06	5.1916e-06	765.33	130.4	5.0669e-06	5.0612e-06	282.59	116.14	50.553	22.537	5.1632e-06	50.254	112.497	21.796	88.289	15.065	193.206	354.024	15.146	19.591	117.484	17.077	18.466	22.586	24.469	27.550	11.411	27.235	-8191	255	
2095.631	1	1	0	0	0.21335	0.11833	0.23488	0.25081	0.1374	0.18637	0.31237	0.25036	0.28897	0.036975	0.25218	0.15576	0.12085	0.07792	0.24261	0.43208	-0.72708	-0.058333	-1.1	-0.8125	-0.3625	-1.0917	-0.51042	-0.6625	-0.98958	-0.33125	-0.89792	-0.95625	-0.28958	-1.1979	-0.30417	-0.59583	136.207	26.758	52.157	206.675	103.180	302.670	299.659	15.200	167.434	99.735	104.377	12.257	224.942	280.124	81.163	349.627	0.00013606	0.00095568	0.000344	643.39	5.6264e-06	2.1393e-05	1006.8	165.29	3.9685e-06	7.417e-06	381.35	155.08	63.451	28.223	5.4716e-06	67.445	0.00045921	0.00046765	0.00013055	497.4	5.1301e-06	5.3024e-06	762.2	131.02	5.1024e-06	5.1268e-06	286.26	117.27	50.824	22.485	5.0552e-06	50.758	124.793	353.967	105.952	14.102	123.581	140.702	14.894	18.937	349.185	139.399	18.484	22.391	25.094	28.500	109.890	26.990	-8191	255	
2095.727	1	1	0	0	0.1	0.14394	0.096552	0.253	0.10361	0.12382	0.19538	0.26083	0.022308	0.061664	0.3819	0.18491	0.13591	0.19683	0.085172	0.23271	-0.70417	-0.15625	-0.96042	-0.92917	-0.27292	-1.25	-0.62292	-0.74375	-0.9375	-0.23958	-1.0167	-1.0354	-0.24375	-1.3375	-0.60417	-0.53125	292.199	147.987	30.107	359.590	174.258	43.752	6.177	338.349	234.879	12.889	295.428	259.961	356.506	13.604	217.241	247.619	0.00023171	0.00067622	0.00012248	647.62	1.2729e-05	7.9467e-06	1019.1	164.18	2.8788e-06	9.3035e-06	381.02	154.12	63.452	28.751	4.5793e-06	67.47	0.00045851	0.00045846	0.00013064	499.81	5.0981e-06	5.0941e-06	767.54	130.63	5.0271e-06	5.0511e-06	286.34	117.61	50.607	22.548	4.8828e-06	50.585	159.722	228.709	144.095	14.233	200.279	56.419	14.594	18.696	59.751	155.748	18.969	22.504	25.156	28.167	236.263	27.919	-8191	255	
2095.823	1	1	0	0	0.19012	0.15423	0.20393	0.26418	0.2484	0.11952	0.22008	0.25077	0.2583	0.092832	0.19452	0.28688	0.30035	0.083932	0.13057	0.046674	-0.98125	-0.18958	-0.81875	-1.2542	-0.11458	-0.8625	-0.94792	-0.41875	-1.2958	-0.41042	-0.53125	-1.1146	-0.35833	-1.1729	-0.7625	-0.54167	339.222	46.433	56.967	336.435	169.946	216.615	259.202	334.783	178.380	351.132	346.318	330.563	294.010	278.670	122.618	232.683	9.1889e-05	0.00073168	0.00011702	652.31	1.7617e-05	1.3885e-05	1008.4	165.32	4.2959e-06	1.0678e-05	374.15	153.42	63.712	28.835	9.5018e-06	66.661	0.00044479	0.00045614	0.00012995	501.15	4.9242e-06	5.0195e-06	763.67	130.91	4.8709e-06	4.8608e-06	282.82	115.54	50.368	22.41	4.842e-06	49.877	113.174	81.076	320.480	14.379	262.346	246.930	14.687	18.895	91.575	24.535	18.143	22.845	24.543	28.117	299.848	26.922	-8191	255	
#DATA ENDS
