BOXY.EXE: ISS Imagent and Oximeter Data Acquisition Program Version 0.80
Ascii Record File

#ACQ INFORMATION
2  Detector Channels 
16  External MUX Channels 
1  Auxiliary Channels 
5000  Waveform (CCF) Frequency (Hz)
1  Waveforms Skipped 
30  Waveforms Averaged 
1  Cycles Averaged 
16  Acquisitions per Waveform 
10.0806  Updata Rate (Hz) 

#FILE INFORMATION
TRUE -- External MUX Channel results are PARSED.
FALSE -- AC DC and Phase are NOT grouped.
TRUE -- Companion Program Settings File CREATED.
FALSE -- AC data not excluded
FALSE -- DC data not excluded
FALSE -- Phase data not excluded
FALSE -- Auxillary Chn. data not excluded
Tab delimiters

#CALIBRATION STATE
TRUE -- Waveform Calibration Values APPLIED.


#AUX CALIBRATION VALUES
Val Type	aux-1	

Term	1.0000e+00	
Factor	0.0000e+00	


#WF CALIBRATION VALUES
A = Detector Channel
Val Type	A-AC1	A-AC2	A-AC3	A-AC4	A-AC5	A-AC6	A-AC7	A-AC8	A-AC9	A-AC10	A-AC11	A-AC12	A-AC13	A-AC14	A-AC15	A-AC16	A-DC1	A-DC2	A-DC3	A-DC4	A-DC5	A-DC6	A-DC7	A-DC8	A-DC9	A-DC10	A-DC11	A-DC12	A-DC13	A-DC14	A-DC15	A-DC16	A-Ph1	A-Ph2	A-Ph3	A-Ph4	A-Ph5	A-Ph6	A-Ph7	A-Ph8	A-Ph9	A-Ph10	A-Ph11	A-Ph12	A-Ph13	A-Ph14	A-Ph15	A-Ph16	

Term	0.00000e+00	0.00000e+00	0.00000e+00	0.00000e+00	0.00000e+00	0.00000e+00	0.00000e+00	0.00000e+00	0.00000e+00	0.00000e+00	0.00000e+00	0.00000e+00	0.00000e+00	0.00000e+00	0.00000e+00	0.00000e+00	0.00000e+00	0.00000e+00	0.00000e+00	0.00000e+00	0.00000e+00	0.00000e+00	0.00000e+00	0.00000e+00	0.00000e+00	0.00000e+00	0.00000e+00	0.00000e+00	0.00000e+00	0.00000e+00	0.00000e+00	0.00000e+00	0.00000e+00	0.00000e+00	0.00000e+00	0.00000e+00	0.00000e+00	0.00000e+00	0.00000e+00	0.00000e+00	0.00000e+00	0.00000e+00	0.00000e+00	0.00000e+00	0.00000e+00	0.00000e+00	0.00000e+00	0.00000e+00	
Factor	1.00000e+00	1.00000e+00	1.00000e+00	1.00000e+00	1.00000e+00	1.00000e+00	1.00000e+00	1.00000e+00	1.00000e+00	1.00000e+00	1.00000e+00	1.00000e+00	1.00000e+00	1.00000e+00	1.00000e+00	1.00000e+00	1.00000e+00	1.00000e+00	1.00000e+00	1.00000e+00	1.00000e+00	1.00000e+00	1.00000e+00	1.00000e+00	1.00000e+00	1.00000e+00	1.00000e+00	1.00000e+00	1.00000e+00	1.00000e+00	1.00000e+00	1.00000e+00	X	X	X	X	X	X	X	X	X	X	X	X	X	X	X	X	

B = Detector Channel
Val Type	B-AC1	B-AC2	B-AC3	B-AC4	B-AC5	B-AC6	B-AC7	B-AC8	B-AC9	B-AC10	B-AC11	B-AC12	B-AC13	B-AC14	B-AC15	B-AC16	B-DC1	B-DC2	B-DC3	B-DC4	B-DC5	B-DC6	B-DC7	B-DC8	B-DC9	B-DC10	B-DC11	B-DC12	B-DC13	B-DC14	B-DC15	B-DC16	B-Ph1	B-Ph2	B-Ph3	B-Ph4	B-Ph5	B-Ph6	B-Ph7	B-Ph8	B-Ph9	B-Ph10	B-Ph11	B-Ph12	B-Ph13	B-Ph14	B-Ph15	B-Ph16	

Term	0.00000e+00	0.00000e+00	0.00000e+00	0.00000e+00	0.00000e+00	0.00000e+00	0.00000e+00	0.00000e+00	0.00000e+00	0.00000e+00	0.00000e+00	0.00000e+00	0.00000e+00	0.00000e+00	0.00000e+00	0.00000e+00	0.00000e+00	0.00000e+00	0.00000e+00	0.00000e+00	0.00000e+00	0.00000e+00	0.00000e+00	0.00000e+00	0.00000e+00	0.00000e+00	0.00000e+00	0.00000e+00	0.00000e+00	0.00000e+00	0.00000e+00	0.00000e+00	1.75774e+01	-1.46235e+02	-1.17124e+02	-1.81868e+02	-8.91195e+01	-6.48731e+01	-1.55593e+02	-1.62015e+02	-9.75022e+01	-8.17833e+01	-1.72047e+02	-1.70197e+02	-1.80263e+02	-1.76670e+02	-7.13823e+01	-1.48961e+02	
Factor	4.51161e-05	1.29920e-04	3.80509e-05	1.84395e-01	1.28156e-06	1.39230e-06	1.71929e-01	6.00013e-02	1.74208e-06	1.47441e-06	9.93773e-02	3.72057e-02	2.45678e-02	1.02851e-02	1.73701e-06	1.47878e-02	1.01581e-06	1.03816e-06	2.88466e-07	9.16057e-02	1.13405e-08	1.13887e-08	8.04221e-02	2.97712e-02	1.13638e-08	1.13723e-08	4.69853e-02	1.74268e-02	1.22168e-02	5.05173e-03	1.13582e-08	6.97409e-03	X	X	X	X	X	X	X	X	X	X	X	X	X	X	X	X	



#DISTANCE SETTINGS
A = Detector Channel
A-1	A-2	A-3	A-4	A-5	A-6	A-7	A-8	A-9	A-10	A-11	A-12	A-13	A-14	A-15	A-16	

2.5000e+00	3.0000e+00	2.5000e+00	3.0000e+00	2.0000e+00	3.0000e+00	1.5000e+00	3.0000e+00	3.0000e+00	3.0000e+00	3.0000e+00	3.0000e+00	3.0000e+00	3.0000e+00	1.5000e+00	3.0000e+00	

B = Detector Channel
B-1	B-2	B-3	B-4	B-5	B-6	B-7	B-8	B-9	B-10	B-11	B-12	B-13	B-14	B-15	B-16	

1.0000e+01	1.0000e+01	1.0000e+01	1.4400e+00	1.0000e+01	1.0000e+01	1.5100e+00	1.9400e+00	1.0000e+01	1.0000e+01	1.9900e+00	2.4900e+00	2.4100e+00	2.9000e+00	1.0000e+01	2.9800e+00	




#DATA BEGINS
time	group	step	mark	flag	A-AC1	A-AC2	A-AC3	A-AC4	A-AC5	A-AC6	A-AC7	A-AC8	A-AC9	A-AC10	A-AC11	A-AC12	A-AC13	A-AC14	A-AC15	A-AC16	A-DC1	A-DC2	A-DC3	A-DC4	A-DC5	A-DC6	A-DC7	A-DC8	A-DC9	A-DC10	A-DC11	A-DC12	A-DC13	A-DC14	A-DC15	A-DC16	A-Ph1	A-Ph2	A-Ph3	A-Ph4	A-Ph5	A-Ph6	A-Ph7	A-Ph8	A-Ph9	A-Ph10	A-Ph11	A-Ph12	A-Ph13	A-Ph14	A-Ph15	A-Ph16	B-AC1	B-AC2	B-AC3	B-AC4	B-AC5	B-AC6	B-AC7	B-AC8	B-AC9	B-AC10	B-AC11	B-AC12	B-AC13	B-AC14	B-AC15	B-AC16	B-DC1	B-DC2	B-DC3	B-DC4	B-DC5	B-DC6	B-DC7	B-DC8	B-DC9	B-DC10	B-DC11	B-DC12	B-DC13	B-DC14	B-DC15	B-DC16	B-Ph1	B-Ph2	B-Ph3	B-Ph4	B-Ph5	B-Ph6	B-Ph7	B-Ph8	B-Ph9	B-Ph10	B-Ph11	B-Ph12	B-Ph13	B-Ph14	B-Ph15	B-Ph16	aux-1	digaux	

988.264	1	1	0	256	0.22939	0.2162	0.23277	0.2531	0.30524	0.051496	0.41463	0.31179	0.2225	0.23707	0.23856	0.29827	0.16428	0.12932	0.22443	0.22688	0.84792	-0.09375	0.23542	0.22917	-0.12917	0.28333	-0.054167	-0.045833	0.575	-0.20208	0.0375	0.56042	-0.45625	0.375	0.11042	-0.3625	286.835	145.913	187.149	427.346	343.636	468.088	379.966	165.409	146.231	397.078	199.715	329.374	307.195	397.172	258.801	388.698	0.0014413	0.0016079	0.00016965	820.25	8.8157e-06	1.763e-05	738.03	347.44	1.4912e-05	1.9079e-05	339.23	135.71	141.77	69.929	1.9942e-05	68.743	0.0010709	0.0010704	0.00029766	853.53	1.1662e-05	1.1784e-05	764.57	349.47	1.1717e-05	1.1758e-05	354.57	139.36	142.64	69.328	1.1719e-05	69.249	320.641	201.680	447.531	139.279	249.856	270.620	137.722	144.344	194.596	403.910	141.710	146.107	148.521	152.505	243.602	148.463	-8191	255	
988.360	1	1	0	0	0.073183	0.091193	0.12699	0.15278	0.10948	0.19273	0.24605	0.27356	0.15375	0.16171	0.36839	0.24178	0.24233	0.209	0.2577	0.15652	0.86458	-0.16042	0.26458	0.43333	-0.30625	0.27917	0.21875	-0.30833	0.63542	-0.0125	0.079167	0.55625	-0.32083	0.47708	0.33958	-0.43542	145.268	482.751	269.986	416.657	481.830	484.082	411.063	478.327	126.625	144.121	462.557	389.096	441.705	354.623	464.160	446.397	0.0015997	0.0012621	0.00010117	815.01	6.5875e-06	4.0449e-06	731.71	346.79	1.785e-05	1.5502e-05	337.22	137.32	144.23	71.69	6.1092e-06	70.078	0.0010741	0.0010706	0.00029897	849.22	1.1769e-05	1.1804e-05	762.1	350.22	1.1819e-05	1.1875e-05	354.38	140.65	144.71	70.675	1.1902e-05	70.442	329.140	144.903	249.723	139.705	231.094	467.802	137.923	144.235	219.187	336.770	141.500	145.860	148.450	152.412	480.196	148.452	-8191	255	
988.431	1	1	0	0	0.075672	0.12706	0.080176	0.15393	0.11328	0.2691	0.082327	0.28397	0.099026	0.20944	0.26814	0.052833	0.27449	0.44401	0.18919	0.23938	1.0271	0.12083	0.13542	0.49375	-0.21458	0.37917	0.28958	-0.40417	0.61042	0.18958	-0.28333	0.62917	-0.28542	0.0375	0.50417	-0.33542	160.619	266.746	428.411	311.183	172.983	163.474	315.211	449.200	136.765	275.780	423.703	437.759	154.079	154.026	143.930	225.977	0.0018008	0.00094444	0.00034346	820.51	1.74e-06	3.1305e-06	737.51	350.55	1.7066e-05	1.7824e-05	340.35	139.76	146	71.783	3.8663e-06	70.882	0.0010891	0.001094	0.000302	854.54	1.1827e-05	1.1876e-05	764.54	352.79	1.1724e-05	1.1735e-05	356.26	142.09	145.7	71.079	1.1656e-05	70.977	340.517	234.995	170.261	139.306	441.904	427.687	138.178	144.296	245.820	261.083	141.910	145.779	148.692	152.314	434.650	148.604	-8191	255	
988.528	1	1	0	0	0.23512	0.041856	0.1278	0.37375	0.257	0.14602	0.083189	0.25188	0.17377	0.052979	0.23363	0.071576	0.26341	0.34882	0.24216	0.31241	0.84167	0.025	-0.06875	0.3375	-0.039583	0.23125	0.36458	-0.26042	0.43125	0.12708	-0.10833	0.43333	-0.19375	0.10625	0.58958	-0.54583	463.618	251.301	433.787	146.759	146.048	448.053	483.337	435.662	456.698	343.053	393.624	256.776	468.323	409.024	349.391	430.063	0.0016489	0.00051801	0.00024757	820.78	5.5808e-07	7.2608e-06	743.03	349.16	5.3326e-06	1.4252e-05	339.03	137.07	143.52	71.051	6.3321e-06	70.035	0.0010713	0.0010727	0.00029743	852.86	1.1769e-05	1.1846e-05	768.26	350.91	1.1827e-05	1.1925e-05	355.81	140.6	143.99	70.279	1.1944e-05	70.281	323.930	256.874	281.502	139.222	293.613	374.975	137.869	143.980	249.133	262.653	141.335	145.707	148.657	152.406	235.335	148.206	-8191	255	
988.648	1	1	0	0	0.076349	0.15564	0.10169	0.19092	0.31354	0.1398	0.31623	0.22519	0.23494	0.077311	0.39156	0.11361	0.20331	0.25492	0.058652	0.29949	0.68125	0.125	-0.125	0.4625	-0.2	0.15	0.41042	-0.45833	0.25208	0.3125	-0.475	0.45208	-0.15625	-0.225	0.47708	-0.17292	458.587	393.655	188.176	427.957	309.090	318.811	398.491	461.429	176.478	239.928	473.459	388.920	240.664	467.187	355.579	405.065	0.0015267	0.0004434	0.00038085	829.57	1.1892e-05	6.7453e-06	745.17	348.87	7.8898e-06	1.9422e-06	341.66	138.1	145.84	71.67	1.1335e-05	69.817	0.0011038	0.0010975	0.00030675	860.94	1.2034e-05	1.2114e-05	773.21	352.41	1.203e-05	1.2005e-05	358.62	141.79	145.61	70.735	1.2015e-05	70.39	323.253	156.885	268.455	139.108	225.758	471.980	137.640	143.931	231.206	267.944	141.658	145.532	148.072	151.987	181.189	147.954	-8191	255	
988.744	1	1	0	0	0.13113	0.24047	0.32806	0.3961	0.022241	0.059687	0.15526	0.14197	0.079891	0.057415	0.21898	0.14928	0.29672	0.3752	0.1626	0.28375	0.69792	0.37917	-0.18542	0.41875	0.010417	-0.29375	0.75208	-0.19167	0.20625	0.35833	-0.4375	0.50833	0.014583	-0.29375	0.4375	-0.32083	225.515	376.281	293.340	441.491	379.056	128.600	478.843	380.743	220.548	290.729	428.856	453.128	458.093	466.155	367.836	394.936	0.0019279	0.00056943	0.00032151	826.94	1.9991e-05	1.6876e-06	742.36	349.37	2.1569e-05	7.5826e-07	341.53	137.69	145.65	71.686	1.0226e-05	70.054	0.0011031	0.0010982	0.00030674	861.08	1.2093e-05	1.2118e-05	769.01	352.66	1.2035e-05	1.2084e-05	356.59	141.74	145.94	70.779	1.2109e-05	70.394	329.682	287.575	207.859	139.145	207.418	246.184	137.927	144.236	248.313	470.279	141.337	145.492	148.451	151.960	306.003	148.071	-8191	255	
988.840	1	1	0	0	0.098301	0.17238	0.30685	0.32585	0.28493	0.23754	0.090816	0.39908	0.17936	0.019386	0.019929	0.20294	0.23021	0.38776	0.17746	0.55092	0.49167	0.44792	-0.31042	0.18958	0.35	-0.15	0.45417	-0.41458	0.083333	0.64583	-0.3375	0.2375	0.13333	-0.43125	0.51458	-0.32917	448.518	212.883	173.797	457.834	419.182	282.019	139.633	424.946	396.565	409.698	297.888	470.425	142.230	128.977	137.798	442.409	0.0012407	0.00064681	0.00016184	820.85	1.3462e-05	1.39e-05	733.68	348.03	8.3236e-06	1.4627e-05	339	137.31	145.31	71.58	1.0937e-05	69.178	0.0011047	0.0011067	0.00030966	856.95	1.2121e-05	1.2243e-05	763.9	352.24	1.2137e-05	1.2228e-05	356.45	141.88	145.82	70.855	1.217e-05	70.318	339.828	252.493	313.647	139.376	270.680	326.953	137.692	144.168	227.013	296.062	141.053	145.826	148.355	152.435	300.551	148.260	-8191	255	
988.937	1	1	0	0	0.029036	0.16599	0.098134	0.10451	0.15146	0.059887	0.26621	0.12935	0.20358	0.38102	0.072402	0.24378	0.079091	0.14616	0.2478	0.157	0.32708	0.57292	-0.12292	0.33958	0.24167	-0.16458	0.16042	-0.10417	-0.1	0.44167	-0.23958	0.21875	0.275	-0.64792	0.6	-0.14583	268.275	296.101	160.524	351.854	422.132	452.147	460.494	366.935	259.231	199.512	396.797	474.137	458.013	474.774	370.599	367.126	0.0012799	0.00096189	0.00026836	812.19	5.9278e-06	5.1668e-06	734.27	348.35	2.1766e-05	8.4929e-06	338.03	137.96	144.95	72.044	1.7502e-05	70.607	0.001113	0.0011139	0.00031029	851.54	1.2203e-05	1.2228e-05	762.49	351.61	1.2142e-05	1.2277e-05	356.07	142.2	145.67	71.14	1.2221e-05	70.982	319.732	182.352	270.542	138.972	278.187	287.511	137.762	144.552	257.616	227.659	141.311	146.185	148.347	152.049	296.249	148.333	-8191	255	
989.033	1	1	0	0	0.028271	0.33606	0.16759	0.24124	0.11167	0.19232	0.048644	0.28746	0.13146	0.16423	0.25902	0.25022	0.2913	0.45968	0.13134	0.17745	0.10208	0.66667	-0.23542	0.05625	0.56042	-0.18333	0.027083	0.1375	-0.0375	0.56875	-0.25417	-0.22292	0.32708	-0.45417	0.53958	0.25833	359.901	234.411	451.068	466.823	275.144	155.855	136.212	457.070	468.417	126.800	247.841	460.543	129.647	405.202	459.057	462.615	0.0014961	0.0011895	0.00033357	816.84	2.8745e-06	7.8874e-06	736.06	350.21	5.3665e-06	8.1838e-06	341.41	138.03	145.5	72.251	1.3672e-05	70.341	0.0011201	0.0011222	0.00031161	853.51	1.2299e-05	1.2337e-05	765.62	352.8	1.2375e-05	1.2394e-05	358.15	142.31	146.08	71.278	1.2361e-05	70.993	335.605	243.578	216.373	139.248	135.282	288.041	137.503	144.192	331.665	384.721	141.684	145.936	148.277	152.164	360.530	148.353	-8191	255	
989.129	1	1	0	0	0.029282	0.10694	0.02732	0.13945	0.13632	0.24488	0.082193	0.20535	0.06529	0.2028	0.037535	0.2111	0.29232	0.12338	0.15583	0.27785	0.14375	0.69375	-0.0020833	0.022917	0.58542	-0.50833	0.045833	0.1875	-0.34167	0.45208	-0.22083	-0.0875	0.43958	-0.34375	0.34583	0.26458	344.313	140.651	402.281	399.391	360.751	410.298	225.250	472.914	314.916	385.019	482.972	441.011	450.368	210.913	333.425	189.461	0.0013977	0.00069011	0.00034124	813.17	8.4653e-06	1.514e-05	729.98	348.59	1.8711e-05	5.6159e-06	337.37	136.94	145.71	72.859	1.5296e-05	70.794	0.0011308	0.0011324	0.00031428	850.91	1.2357e-05	1.2515e-05	760.63	352.33	1.2372e-05	1.2403e-05	357.49	142.32	146.83	71.953	1.2489e-05	71.087	331.561	305.227	230.349	139.282	285.412	252.760	137.824	144.166	285.695	486.070	141.575	145.626	148.674	152.415	218.913	148.359	-8191	255	
989.248	1	1	0	0	0.14527	0.061045	0.1682	0.34753	0.17663	0.19859	0.20729	0.022845	0.10652	0.33232	0.15802	0.27982	0.42714	0.29087	0.095227	0.2162	0.18333	0.66458	0.054167	-0.11458	0.72917	-0.089583	0.11042	0.35833	-0.3	0.51042	-0.070833	-0.32917	0.5125	-0.325	0.12708	0.34792	465.659	266.804	240.879	421.488	207.382	301.256	456.909	400.276	263.540	140.185	177.710	444.372	485.750	155.205	309.519	215.291	0.0019413	0.00066645	0.00021156	808.81	4.5713e-06	1.9053e-06	722.78	348.08	1.7775e-05	1.1494e-05	337.46	138.56	145.97	73.21	7.7618e-06	70.818	0.0011346	0.0011435	0.00031651	847.83	1.2449e-05	1.2534e-05	756.58	352.04	1.2473e-05	1.2509e-05	357.33	143.15	147.25	72.378	1.2447e-05	71.206	328.159	246.705	203.891	139.074	270.474	225.535	137.757	144.278	194.590	316.307	141.533	146.150	148.599	152.355	159.172	147.985	-8191	255	
989.344	1	1	0	0	0.038377	0.17899	0.14887	0.37546	0.082998	0.23598	0.089384	0.29177	0.14764	0.24794	0.097251	0.23372	0.15445	0.20589	0.065565	0.10802	0.08125	0.39583	0.014583	-0.39167	0.58958	-0.30625	-0.15	0.41458	-0.47083	0.38958	0.19583	-0.32917	0.25	-0.2375	0.070833	0.48333	340.857	377.542	384.077	453.110	446.228	403.263	360.180	454.340	208.944	180.383	240.368	347.876	449.406	385.040	324.759	446.215	0.001412	0.00053963	0.0003314	809.15	5.9836e-06	1.2463e-05	724.09	344.87	5.4781e-06	6.464e-06	339.02	138.37	146.2	73.186	7.1191e-06	70.706	0.0011346	0.0011364	0.00031966	847.28	1.2491e-05	1.2508e-05	753.99	351.07	1.2511e-05	1.2486e-05	356.37	143.12	147.37	72.313	1.2566e-05	71.523	338.426	218.645	203.783	139.210	421.491	321.369	137.813	144.544	244.251	246.406	141.538	145.896	148.417	152.273	275.895	148.502	-8191	255	
989.440	1	1	0	0	0.029508	0.20871	0.17726	0.12553	0.13954	0.073492	0.3731	0.13415	0.080022	0.35134	0.035485	0.17253	0.017665	0.16259	0.1811	0.08088	0.03125	0.32292	0.4375	-0.25417	0.58542	0.05625	-0.15417	0.44167	-0.23125	0.37083	0.32917	-0.26875	0.25625	-0.060417	-0.22292	0.475	360.213	250.759	433.126	344.932	202.565	194.744	443.074	411.262	297.928	131.688	332.970	202.674	212.930	439.404	157.744	393.482	0.0019778	0.00077721	0.0001117	802.79	2.4772e-06	8.4035e-06	719.19	346.95	7.5607e-06	9.6375e-06	337.32	139.93	146.08	73.441	1.7375e-05	70.815	0.0011423	0.0011456	0.00031655	844.64	1.2539e-05	1.2606e-05	752.74	351.36	1.2486e-05	1.2488e-05	356.71	143.45	147.13	72.563	1.2492e-05	71.59	333.739	166.167	146.078	139.283	319.992	259.568	137.553	144.588	187.178	128.565	141.534	146.284	148.996	152.595	209.552	148.271	-8191	255	
989.536	1	1	0	0	0.31015	0.12716	0.19228	0.21429	0.15564	0.10504	0.15782	0.16573	0.1739	0.11811	0.22627	0.079273	0.36495	0.067694	0.11888	0.16334	0.24583	0.23125	0.62708	-0.39583	0.26458	0.14167	-0.20208	0.31042	-0.14167	0.22708	0.36667	-0.35625	0.025	-0.11875	-0.40417	0.59792	326.016	392.109	292.303	422.462	394.194	305.666	134.502	435.187	422.432	456.689	397.095	483.568	149.595	134.642	425.821	456.976	0.0016562	0.00041298	0.0001812	805.63	3.4627e-06	1.3741e-05	716.3	344.7	8.7648e-06	8.0861e-06	335.87	137.32	145.47	72.944	8.649e-06	70.005	0.0011345	0.0011291	0.00031592	841.83	1.2449e-05	1.2408e-05	748.5	350.21	1.2404e-05	1.243e-05	354.27	141.73	146.08	72.02	1.2285e-05	70.744	319.491	143.852	347.466	139.397	293.120	310.217	137.990	144.717	267.207	329.268	141.790	145.957	148.670	152.596	162.169	148.483	-8191	255	
989.657	1	1	0	0	0.13029	0.11793	0.11281	0.18037	0.16651	0.18234	0.095696	0.34221	0.1306	0.28256	0.064146	0.18313	0.27167	0.049787	0.10064	0.31534	-0.016667	0.09375	0.60833	-0.38125	0.30208	0.26667	-0.43542	0.46042	0.035417	-0.060417	0.49583	-0.29583	0.24792	0.23125	-0.09375	0.42917	343.553	377.512	290.066	417.394	429.661	284.871	369.843	442.055	216.404	480.263	479.064	440.552	390.089	422.730	162.619	429.849	0.0017828	0.00035024	0.00037687	803.32	7.8768e-06	7.5064e-06	712.74	342.15	1.2911e-05	2.6946e-06	334.45	136.61	145.23	72.619	3.0243e-06	70.766	0.0011225	0.0011163	0.0003125	838.42	1.2276e-05	1.2281e-05	745.57	347.53	1.2205e-05	1.2285e-05	352.82	141.36	145.86	71.993	1.2111e-05	70.954	333.671	332.992	245.415	139.110	244.082	245.736	137.914	144.389	217.845	430.379	141.574	146.301	148.725	152.628	263.973	148.323	-8191	255	
989.729	1	1	0	0	0.22014	0.34225	0.17499	0.24211	0.32351	0.12212	0.18619	0.40651	0.20982	0.16904	0.16492	0.17481	0.2008	0.18511	0.043513	0.20756	0.37708	-0.27708	0.55417	-0.31667	0.28542	0.57292	-0.40625	0.35417	0.13125	0.085417	0.5375	-0.2375	0.0125	0.20625	-0.083333	0.09375	390.938	175.374	201.095	141.468	179.814	132.403	355.206	309.898	354.808	430.865	340.664	442.183	463.699	370.747	324.971	462.236	0.0017456	0.00096445	0.00014727	805.25	1.8419e-05	6.0902e-06	713.95	344.33	1.1624e-05	1.3067e-05	332.98	138.55	146.29	73.121	1.2168e-05	70.348	0.0011045	0.0011029	0.00030593	840.84	1.1945e-05	1.2055e-05	745.09	347.95	1.1965e-05	1.1997e-05	351.62	141.5	146.18	72.112	1.1872e-05	70.857	318.976	265.664	302.725	139.257	308.396	249.120	138.041	144.377	220.206	275.961	141.303	146.290	148.539	152.190	170.028	148.395	-8191	255	
989.825	1	1	0	0	0.077589	0.13083	0.11626	0.28206	0.16801	0.15879	0.24303	0.31281	0.093901	0.10114	0.15296	0.075573	0.26569	0.086626	0.19357	0.1413	0.37292	-0.275	0.55	-0.15625	0.029167	0.41667	-0.27083	0.13542	0.58333	-0.28958	0.48542	-0.05625	-0.083333	0.47083	-0.1375	0.33542	445.946	450.786	390.181	411.824	388.195	136.248	466.696	421.602	336.663	468.304	216.791	365.161	443.475	418.960	231.761	463.552	0.001349	0.0023415	0.00028599	810.86	8.6641e-06	1.071e-05	721.49	344.32	7.0217e-06	1.7384e-05	333.96	137.97	145.39	72.733	9.7062e-06	70.364	0.0010891	0.001085	0.00030249	844.01	1.1902e-05	1.1902e-05	747.55	348.14	1.1921e-05	1.1963e-05	351.24	141.43	146.11	71.837	1.1823e-05	70.703	326.375	160.005	255.086	139.340	240.754	354.045	137.906	144.489	438.153	197.495	141.855	145.775	148.321	152.504	231.224	148.215	-8191	255	
989.944	1	1	0	0	0.079289	0.030268	0.11909	0.24624	0.059101	0.3794	0.19503	0.42261	0.26245	0.052224	0.18912	0.23909	0.35462	0.16768	0.15295	0.17773	0.675	-0.033333	0.44583	-0.0375	0.027083	0.63958	-0.48542	0.1125	0.52917	-0.47292	0.36458	0.045833	-0.22083	0.43125	-0.25833	0.0875	406.546	338.881	455.685	163.477	241.715	486.009	357.541	434.092	243.971	205.958	399.872	165.032	449.423	190.211	412.899	400.912	0.0016138	0.00061457	0.00015878	810.96	1.0759e-05	1.0083e-05	718.94	344.11	1.0594e-05	5.1388e-06	332.56	137.86	146.39	73.291	7.731e-06	70.356	0.0010859	0.0010791	0.00029828	841.74	1.1692e-05	1.1734e-05	744.21	347.64	1.1661e-05	1.1728e-05	349.33	140.78	146.45	72.106	1.1644e-05	70.405	336.840	411.701	284.735	139.248	373.269	209.421	137.706	144.312	329.063	211.292	141.508	145.974	148.597	152.562	167.787	148.180	-8191	255	
990.040	1	1	0	0	0.28193	0.11595	0.11786	0.3787	0.20399	0.39243	0.27476	0.25732	0.1797	0.30583	0.16659	0.018344	0.37337	0.2144	0.055101	0.13024	0.71458	-0.26667	0.56875	-0.10625	-0.1375	0.69375	-0.21042	-0.047917	0.40417	-0.53125	0.17083	0.225	-0.4625	0.49583	-0.095833	-0.12083	186.031	377.952	148.212	430.677	174.996	295.511	455.844	481.413	135.118	357.673	436.294	128.065	415.498	376.645	196.962	333.563	0.0017009	0.00043921	0.00026176	802.2	9.1363e-06	2.4438e-06	703.56	343.96	4.2535e-06	2.4407e-06	332.47	137.77	147.88	74.593	8.6255e-06	71.558	0.0010614	0.0010611	0.00029648	836.05	1.1576e-05	1.1631e-05	733.64	346.84	1.1583e-05	1.1658e-05	347.57	141.16	147.34	73.337	1.1552e-05	71.712	331.730	140.728	222.180	139.476	301.902	149.904	137.784	144.022	257.591	152.611	141.794	146.160	148.431	152.374	246.373	147.867	-8191	255	
990.136	1	1	0	0	0.071374	0.06888	0.0555	0.12646	0.2576	0.28631	0.32299	0.17068	0.10198	0.23384	0.16701	0.075996	0.16479	0.44976	0.18197	0.084482	0.98125	-0.33542	0.52708	0.19583	-0.23958	0.70625	-0.2375	0.020833	0.50833	-0.21458	0.21458	0.25417	-0.38542	0.34792	0.075	-0.28125	155.847	239.195	176.668	453.848	400.550	130.776	406.154	316.693	469.527	419.085	145.692	345.857	484.628	461.837	475.394	432.680	0.001781	0.0011016	0.00016305	798.86	4.5997e-06	1.6061e-05	701.09	346.69	2.2268e-05	8.2316e-06	335.3	140.83	150.41	76.834	4.5541e-06	73.458	0.0010553	0.0010662	0.00029391	829.34	1.1481e-05	1.1584e-05	728.92	347.92	1.1511e-05	1.148e-05	350.06	143.09	149.53	75.173	1.1445e-05	73.291	336.595	309.218	172.306	139.498	167.106	296.635	137.899	144.064	216.282	369.406	141.370	146.015	148.528	151.963	459.711	147.935	-8191	255	
990.232	1	1	0	0	0.28648	0.044733	0.17305	0.28032	0.14416	0.16906	0.13749	0.22807	0.3579	0.085709	0.16772	0.40282	0.10332	0.11754	0.14268	0.067969	1.1083	-0.15833	0.1875	0.31667	-0.14583	0.36042	-0.075	-0.50625	0.69167	-0.26667	0.12292	0.59792	-0.35625	0.36458	0.21458	-0.225	203.921	232.750	283.253	410.397	424.341	350.766	435.341	483.835	394.255	389.747	413.522	377.185	145.837	300.556	396.097	368.536	0.0017606	0.001324	0.00039313	804.33	4.2971e-06	1.115e-05	704.63	345.12	1.9301e-05	4.8443e-06	335.11	144.79	154.8	79.45	6.7184e-06	76.654	0.0010554	0.0010462	0.00028978	829.04	1.1342e-05	1.1423e-05	729.34	347.75	1.1413e-05	1.1428e-05	349.94	146.85	153.37	77.539	1.1373e-05	75.894	326.536	194.300	243.969	139.371	332.996	345.645	137.658	144.271	186.287	484.620	141.525	146.175	148.528	152.024	222.467	147.961	-8191	255	
990.328	1	1	0	0	0.25381	0.022303	0.058141	0.16664	0.121	0.074014	0.36135	0.16049	0.31412	0.39574	0.23081	0.11969	0.12917	0.13773	0.14545	0.22751	1.0146	0.0375	0.13333	0.55417	-0.32292	0.36458	0.29375	-0.16042	0.51458	-0.18333	0.070833	0.46875	-0.44375	0.26042	0.12083	-0.2125	466.124	136.725	174.671	177.915	294.003	222.376	340.384	476.543	196.930	272.295	376.419	238.443	444.407	418.566	391.260	415.679	0.0015812	0.00023861	0.00029487	797.95	7.2623e-06	7.5814e-06	709.38	355.18	1.9286e-05	4.1423e-06	347.71	152.75	164.15	84.881	1.1216e-05	80.587	0.0010569	0.0010481	0.00028889	832.68	1.1529e-05	1.1509e-05	733.02	357.45	1.1598e-05	1.1692e-05	362.36	154.5	163.13	82.762	1.1776e-05	79.847	335.500	208.616	251.671	139.361	298.753	305.372	137.803	144.506	220.656	165.389	141.279	145.897	148.643	151.663	294.450	147.670	-8191	255	
990.424	1	1	0	0	0.063696	0.35374	0.14341	0.10881	0.259	0.070547	0.046805	0.24113	0.038471	0.16448	0.11495	0.11275	0.18475	0.32776	0.060595	0.34334	0.87708	-0.03125	0.04375	0.62917	-0.23333	0.31875	0.21875	-0.32708	0.52292	0.27292	-0.19792	0.62917	-0.30417	0.10417	0.38542	-0.41875	327.910	258.638	470.703	249.530	317.186	393.188	325.455	429.310	483.543	290.513	290.912	420.462	455.864	449.813	182.112	232.347	0.0018784	0.001434	0.00023673	809.8	1.6085e-05	1.1522e-05	707.77	366.72	1.0644e-05	1.2638e-05	358.5	157.44	169.56	86.585	1.6985e-05	80.954	0.0010897	0.001086	0.00030368	843.62	1.205e-05	1.2037e-05	739.21	370.16	1.2016e-05	1.2e-05	371.62	159.35	168.2	84.12	1.2007e-05	80.209	327.748	214.217	201.533	139.206	228.968	156.662	138.065	144.169	241.718	283.461	141.377	145.535	148.328	151.387	271.333	147.517	-8191	255	
990.520	1	1	0	0	0.19753	0.15715	0.19534	0.097382	0.025033	0.22405	0.12631	0.29136	0.10618	0.14906	0.12851	0.15189	0.23897	0.43605	0.12875	0.3757	0.85417	0.16875	-0.070833	0.41667	-0.01875	0.17083	0.51042	-0.29792	0.45625	0.075	-0.15833	0.66042	-0.095833	-0.058333	0.5625	-0.41875	463.565	481.607	362.697	198.453	287.819	224.937	255.718	469.203	259.816	203.159	405.214	247.319	432.185	127.447	245.099	380.981	0.0016562	0.00096395	7.5632e-05	809.16	5.6486e-06	1.1307e-05	709.99	373.95	1.1511e-05	5.8905e-06	360.11	158.92	171.61	85.729	8.1324e-06	79.546	0.0011049	0.0011063	0.00030818	847.33	1.2051e-05	1.2124e-05	741.36	374.83	1.2101e-05	1.216e-05	374.89	160.45	169.6	83.6	1.2246e-05	79.106	327.656	269.456	259.395	139.045	240.449	245.422	137.699	144.429	312.095	195.257	140.857	145.644	148.313	151.752	335.911	147.752	-8191	255	
990.617	1	1	0	0	0.25765	0.099629	0.2517	0.070288	0.094029	0.11016	0.22302	0.19289	0.19064	0.30585	0.17433	0.1335	0.1951	0.26456	0.2516	0.13532	0.7875	0.33542	-0.14167	0.41667	-0.22708	-0.11042	0.36667	-0.28542	0.46458	0.52917	-0.225	0.44375	-0.045833	-0.27292	0.53125	-0.29792	298.735	206.095	163.958	435.255	382.756	145.335	419.082	378.215	126.727	256.841	371.176	424.557	138.777	470.496	241.621	189.842	0.0020187	0.0017412	0.00027358	819.09	9.1917e-06	1.1091e-05	707.44	376.87	1.4354e-05	9.6115e-06	361.41	159.93	171.94	84.951	1.6878e-05	78.586	0.0011247	0.0011182	0.00031283	854.78	1.2335e-05	1.2357e-05	743.08	379.06	1.242e-05	1.241e-05	377.69	161.79	170.76	83.047	1.2471e-05	78.652	327.502	187.215	421.992	139.147	201.174	210.407	137.831	144.311	148.811	199.074	141.640	145.331	148.568	151.660	358.571	147.842	-8191	255	
990.737	1	1	0	0	0.093172	0.29369	0.10798	0.29112	0.14938	0.080721	0.28577	0.030009	0.22282	0.068135	0.29219	0.4765	0.33168	0.21487	0.14842	0.068128	0.56667	0.56667	-0.21042	0.5	0.23125	-0.21875	0.40208	-0.24792	0.20833	0.61458	-0.21875	0.22292	-0.027083	-0.30833	0.70208	-0.29167	421.954	429.023	137.259	145.173	422.130	230.944	418.045	380.661	273.057	253.814	443.087	130.862	129.207	398.403	415.264	384.125	0.0015249	0.0011204	3.9298e-05	819.46	9.5296e-06	9.2387e-06	720.61	379.5	9.1254e-06	1.201e-05	361.45	159.53	171.38	83.397	5.2373e-06	76.612	0.0011435	0.0011472	0.00032046	861.71	1.2503e-05	1.2566e-05	748.86	381.69	1.2542e-05	1.2555e-05	377.72	161.29	170.21	81.688	1.2476e-05	76.76	322.688	220.404	440.372	139.076	201.640	362.643	137.802	144.343	301.526	340.462	141.819	145.122	148.417	151.786	295.826	147.803	-8191	255	
990.833	1	1	0	0	0.1787	0.072921	0.12404	0.2473	0.1555	0.092099	0.15443	0.21841	0.11856	0.2571	0.29488	0.13923	0.25267	0.349	0.097401	0.18127	0.475	0.54583	-0.17292	0.42917	0.3625	-0.13333	0.5625	-0.10833	0.15625	0.56458	-0.37708	0.28125	0.16458	-0.34167	0.46667	-0.19375	136.901	255.349	324.764	481.536	376.590	294.122	194.736	484.105	455.637	440.040	420.083	418.491	136.149	146.019	162.582	225.535	0.0016753	0.00061819	0.00013511	820.04	5.8597e-06	6.4755e-06	709.26	375.77	9.8344e-06	3.6596e-06	360.55	157.14	171.51	83.052	9.6957e-06	75.955	0.0011414	0.001139	0.00031638	859.42	1.2449e-05	1.2421e-05	741.74	379.25	1.2363e-05	1.2398e-05	375.87	159.87	169.85	81.189	1.2312e-05	76.071	325.112	154.052	480.579	139.045	348.095	314.030	137.736	144.501	174.203	300.935	141.834	145.658	148.468	151.797	171.607	147.778	-8191	255	
990.930	1	1	0	0	0.11207	0.083004	0.16216	0.20401	0.078581	0.27734	0.20759	0.12024	0.12502	0.068672	0.029008	0.12388	0.11288	0.25278	0.23627	0.4197	0.47083	0.82292	-0.15	0.075	0.50208	-0.16458	0.54792	-0.26458	-0.0875	0.79375	-0.40625	0.066667	0.425	-0.36875	0.6375	-0.14375	333.998	436.690	185.113	210.951	384.320	362.728	426.500	321.715	347.510	447.852	225.817	127.440	354.862	441.232	315.329	430.231	0.001712	0.00047358	0.00014968	824.73	4.4286e-06	1.1345e-05	703.2	376.2	8.8049e-06	1.0944e-05	359.16	158.73	171.75	83.839	1.6592e-05	77.414	0.0011319	0.0011402	0.00031344	856.46	1.2412e-05	1.2437e-05	735.7	378.39	1.2424e-05	1.2441e-05	376	160.78	170.48	81.891	1.2396e-05	77.025	331.673	316.937	234.305	139.007	473.878	250.304	137.795	144.166	248.268	319.545	141.576	145.530	148.395	151.677	295.041	147.580	-8191	255	
991.026	1	1	0	0	0.12409	0.057427	0.13688	0.55888	0.25546	0.071665	0.12399	0.087025	0.27475	0.29671	0.21478	0.27606	0.099626	0.23908	0.023124	0.34775	0.37917	0.61042	-0.0375	0.10833	0.58958	-0.20625	0.45833	0.15208	-0.085417	0.64167	-0.1875	0.11875	0.42292	-0.2	0.5125	0.15833	332.580	237.536	458.008	429.983	221.669	309.054	196.716	280.192	328.523	277.629	459.029	127.810	344.795	464.186	237.714	422.620	0.0016562	0.00066814	0.00014456	815.56	7.9098e-06	1.6283e-05	701.16	377.18	1.498e-05	9.6278e-06	361.02	159.72	173.58	84.979	1.6718e-05	78.586	0.0011405	0.0011475	0.00031497	850.42	1.248e-05	1.2579e-05	734.47	379.52	1.2582e-05	1.2663e-05	378.54	162.27	172.09	83.1	1.2628e-05	78.292	344.665	253.271	264.818	139.041	185.617	267.329	137.786	144.358	292.904	235.067	141.788	145.401	148.217	151.614	274.066	147.612	-8191	255	
991.120	1	1	0	0	0.25061	0.12986	0.20304	0.36568	0.094375	0.2155	0.17589	0.13627	0.1312	0.15336	0.16728	0.40972	0.15547	0.32215	0.035316	0.21436	0.25833	0.63333	-0.066667	0.016667	0.46042	-0.27083	0.2125	0.33542	-0.13333	0.575	-0.225	-0.18958	0.32708	-0.3875	0.15417	0.38542	195.151	264.365	426.892	453.993	442.042	145.811	410.262	363.587	138.410	388.568	159.965	447.846	417.514	466.124	309.469	399.367	0.001784	0.00097164	0.00049448	808.11	5.3837e-06	7.8141e-06	695.69	374.84	2.386e-05	1.2494e-05	362.72	161.56	174.94	86.331	1.1717e-05	78.897	0.0011592	0.0011585	0.00032247	847.44	1.2767e-05	1.2778e-05	732	379.64	1.2915e-05	1.2829e-05	380.82	163.61	173.58	84.522	1.2809e-05	79.018	319.590	148.144	217.434	139.053	298.594	138.804	137.825	144.625	226.795	308.599	141.603	145.723	148.217	151.691	288.626	147.446	-8191	255	
991.218	1	1	0	0	0.22414	0.11624	0.040161	0.11137	0.21273	0.096122	0.1853	0.086903	0.18134	0.2419	0.18143	0.32629	0.14479	0.29968	0.30643	0.12959	0.045833	0.57083	0.04375	-0.10417	0.55208	-0.12292	0.27083	0.22708	-0.375	0.47083	-0.014583	-0.3625	0.24375	-0.175	-0.029167	0.33333	446.341	474.967	321.187	208.986	162.786	302.216	440.571	164.789	269.269	287.925	450.160	400.945	164.041	388.012	304.155	210.251	0.0017617	0.00091672	0.00029112	799.92	4.2244e-06	1.0435e-05	686.21	375.7	1.3084e-05	1.4452e-05	359.03	159.47	173.86	86.466	5.6143e-06	79.28	0.001177	0.0011804	0.00032669	842.11	1.283e-05	1.2812e-05	725.24	379.45	1.2863e-05	1.2734e-05	376.85	162.32	172.82	84.753	1.2763e-05	79.068	323.435	266.249	213.702	139.465	249.787	200.759	137.672	144.132	233.433	227.495	141.263	145.510	148.303	151.722	265.468	147.680	-8191	255	
991.337	1	1	0	0	0.18471	0.075444	0.39227	0.11152	0.050654	0.044729	0.098077	0.18779	0.098922	0.14908	0.33767	0.13727	0.11849	0.17654	0.16253	0.15595	0.054167	0.66458	0.27083	-0.066667	0.58333	-0.125	0.05	0.56667	-0.24792	0.28958	0.24167	-0.46667	0.49792	-0.40625	-0.064583	0.52708	333.585	462.508	451.916	404.716	372.221	204.984	280.265	397.611	382.186	451.255	432.564	359.716	405.646	462.368	149.252	404.803	0.0015976	0.00091465	0.00013276	793.95	1.8485e-05	4.316e-06	678.45	375.12	5.7456e-06	6.1864e-06	357	159.83	173.86	86.652	2.0935e-05	79.435	0.0011642	0.0011667	0.0003217	834.57	1.2792e-05	1.2785e-05	719.29	378.15	1.2695e-05	1.2701e-05	375.53	162.3	172.57	84.715	1.2568e-05	79.347	323.119	171.756	451.571	139.265	270.365	260.650	138.190	144.552	441.079	219.634	141.442	145.599	148.388	151.700	217.638	147.599	-8191	255	
991.433	1	1	0	0	0.058157	0.30281	0.31047	0.046562	0.09247	0.18434	0.15974	0.14906	0.11616	0.19077	0.29194	0.068183	0.32351	0.38814	0.24103	0.16153	0.072917	0.41042	0.41667	-0.24167	0.61875	0.175	-0.11875	0.49583	-0.22708	0.23333	0.50417	-0.3125	0.34792	-0.052083	-0.20833	0.31458	481.849	201.116	309.291	129.232	422.676	386.785	221.676	465.319	484.700	485.812	426.592	194.868	463.034	432.335	134.936	417.771	0.0020826	0.0018321	0.00012939	787.79	7.8108e-06	1.8784e-05	676.73	370.5	1.067e-05	1.2749e-05	358.69	160.25	174.8	86.995	1.6877e-05	80.219	0.0011673	0.0011658	0.00032314	831.37	1.2711e-05	1.2824e-05	715.38	375.54	1.2753e-05	1.2716e-05	375.58	162.87	172.54	85.149	1.2742e-05	80.048	327.723	195.612	486.033	139.166	248.528	389.283	138.094	144.329	293.530	223.292	141.335	145.542	148.279	151.393	286.358	147.542	-8191	255	
991.529	1	1	0	0	0.27665	0.16463	0.22715	0.035917	0.14873	0.071993	0.3743	0.3008	0.095619	0.16968	0.10381	0.13091	0.15198	0.25814	0.03273	0.063343	0.1625	0.26042	0.67292	-0.47083	0.32292	0.08125	-0.2875	0.475	0.0020833	-0.04375	0.52292	-0.37917	0.13333	0.04375	-0.24375	0.56042	290.406	352.841	411.710	271.867	452.957	301.352	425.556	439.325	333.383	378.092	169.484	480.023	128.685	459.242	171.796	327.823	0.0018469	0.001199	0.00050515	788.13	1.8476e-05	1.6722e-06	678.71	371.05	4.4731e-06	4.6362e-06	356.33	160.27	172.96	86.875	1.2611e-05	80.204	0.0011588	0.0011572	0.00032345	828.31	1.2636e-05	1.2715e-05	713.35	374.97	1.2669e-05	1.2727e-05	374.01	162.16	171.93	84.98	1.2622e-05	79.643	332.093	177.165	255.220	139.144	252.405	236.842	137.784	144.522	261.539	309.730	141.808	145.607	148.267	151.606	224.348	147.515	-8191	255	
991.625	1	1	0	0	0.094313	0.23847	0.18516	0.1867	0.13651	0.15284	0.23036	0.22916	0.28225	0.27817	0.20843	0.26257	0.23929	0.051533	0.3524	0.20915	0.29792	0.089583	0.56458	-0.25	0.30417	0.48542	-0.16458	0.52708	0.16875	0.0375	0.66458	-0.24375	0.20208	0.25833	-0.3625	0.3875	281.802	150.265	265.629	376.295	129.292	310.149	429.264	373.982	184.051	201.600	441.287	436.097	454.849	235.073	361.580	395.358	0.0017799	0.00057497	0.00023405	780.75	1.4764e-05	6.9434e-06	670.84	368.3	7.8499e-06	1.2964e-06	353.58	158.95	171.65	86.678	1.4284e-05	79.538	0.0011571	0.0011542	0.00031907	821.34	1.2639e-05	1.2635e-05	707.53	371.38	1.2477e-05	1.2498e-05	370.27	160.62	170.84	84.716	1.2471e-05	79.363	331.917	286.115	436.343	139.370	211.823	307.204	137.632	144.683	198.226	371.723	141.493	145.466	148.267	151.562	207.018	147.398	-8191	255	
991.721	1	1	0	0	0.098288	0.080572	0.28002	0.18295	0.18627	0.10573	0.12619	0.32154	0.069898	0.22602	0.15131	0.13866	0.10284	0.042278	0.25896	0.10587	0.38333	-0.079167	0.71667	-0.24583	0.32292	0.39583	-0.2625	0.34583	0.19375	-0.18125	0.45417	-0.29792	-0.0041667	0.46875	-0.4375	0.30208	311.555	412.773	365.019	462.097	423.020	371.066	262.411	400.897	212.596	289.120	474.068	265.695	356.356	453.497	192.777	159.209	0.001632	0.0020206	0.00021622	777.48	8.7305e-06	6.1377e-06	663.79	369.14	9.2309e-06	1.0318e-05	353.37	157.82	172.45	86.932	2.747e-05	80.097	0.0011421	0.0011432	0.00031747	817.42	1.2461e-05	1.2497e-05	702.34	372.05	1.2443e-05	1.2475e-05	369	160.4	170.8	85.012	1.2371e-05	79.515	321.933	162.021	317.883	139.340	216.204	201.394	137.998	144.637	475.256	268.727	141.616	145.560	148.269	151.761	310.733	147.314	-8191	255	
991.818	1	1	0	0	0.25786	0.16046	0.14443	0.30269	0.26435	0.28136	0.24314	0.18472	0.10245	0.10763	0.040333	0.14672	0.24773	0.13971	0.10133	0.46954	0.63542	-0.17708	0.56667	-0.17083	0.13958	0.5875	-0.2375	0.2625	0.41875	-0.14792	0.60417	-0.1625	-0.12083	0.46875	-0.12292	0.25208	349.067	361.108	242.102	424.593	377.777	337.576	460.253	472.464	208.532	150.276	238.043	397.597	442.306	468.101	165.815	417.131	0.0022966	0.00030013	0.00013424	773.6	1.4618e-06	7.6887e-06	663.94	363.53	1.5868e-06	1.0263e-05	350.37	157.19	171.2	86.677	6.4013e-06	80.069	0.0011307	0.00113	0.00031263	813.92	1.2306e-05	1.2328e-05	698.6	368.24	1.2291e-05	1.2372e-05	366.48	159.89	169.8	84.657	1.233e-05	79.629	335.702	477.657	242.450	139.670	360.781	373.428	137.942	144.338	221.425	258.118	141.203	145.440	148.333	151.823	385.762	147.448	-8191	255	
991.914	1	1	0	0	0.066544	0.075454	0.18758	0.2317	0.19388	0.052241	0.26101	0.039464	0.34045	0.25342	0.11526	0.5146	0.059996	0.17374	0.31208	0.10726	0.77917	-0.24792	0.5125	0.025	-0.097917	0.59792	-0.19167	0.2125	0.45	-0.0625	0.4375	-0.052083	-0.19583	0.57083	-0.20208	-0.077083	448.443	159.899	401.746	302.200	133.773	143.739	173.732	216.464	302.363	347.380	338.806	131.778	266.447	419.933	286.899	410.708	0.0016629	0.00075806	0.00010983	761.61	5.0716e-06	1.0231e-05	654.63	363.25	8.4408e-06	7.6845e-06	347.62	157.09	169.14	86.338	2.0156e-05	79.637	0.0011306	0.0011215	0.00031419	805.16	1.2249e-05	1.2333e-05	693.25	365.45	1.2243e-05	1.2236e-05	364.65	159.02	168.52	84.167	1.2314e-05	79.351	319.126	416.990	130.780	139.590	319.157	224.250	138.412	144.401	133.134	389.243	141.594	145.997	147.995	151.544	289.286	147.480	-8191	255	
992.033	1	1	0	0	0.22949	0.15899	0.067679	0.072981	0.088632	0.28438	0.024705	0.49406	0.13212	0.2256	0.14126	0.11592	0.44123	0.38052	0.064574	0.16605	0.93542	-0.33125	0.39792	0.24167	-0.15208	0.47083	-0.30208	-0.010417	0.475	-0.19583	0.375	0.27917	-0.45625	0.47292	-0.17083	-0.047917	185.685	324.416	320.740	149.070	378.053	310.671	248.939	424.276	467.422	333.896	353.426	479.664	483.062	134.619	385.242	409.920	0.0020074	0.00087932	0.0003376	764.95	1.2807e-05	1.6633e-05	654.44	359	3.8207e-06	1.0041e-05	344.47	156.25	169.24	86.221	1.6296e-06	79.817	0.0011279	0.0011243	0.00031022	802.53	1.2211e-05	1.2383e-05	688.93	363.59	1.2251e-05	1.2305e-05	362.22	158.19	167.83	84.129	1.218e-05	79.076	334.960	180.329	232.500	139.243	269.405	344.055	138.133	144.315	293.892	369.267	141.194	145.791	148.177	151.634	284.031	147.249	-8191	255	
992.129	1	1	0	0	0.093529	0.29558	0.28151	0.29465	0.34328	0.13702	0.18292	0.14793	0.3473	0.10012	0.14672	0.20723	0.12629	0.040631	0.048298	0.23911	0.88125	-0.24167	0.4375	0.2875	-0.26458	0.48958	-0.054167	-0.18958	0.62292	-0.17917	0.17917	0.38333	-0.24583	0.30625	0.23542	-0.14792	446.628	180.637	434.693	170.062	196.710	405.995	344.063	469.757	462.150	220.026	170.559	385.677	387.598	179.215	201.029	135.445	0.0021496	0.00049478	0.00053048	754.72	2.0744e-05	1.3637e-05	648.45	359.39	1.557e-05	1.3662e-05	345.55	155.31	169.88	86.849	1.2007e-05	80.113	0.0011172	0.0011157	0.00030719	795.55	1.2087e-05	1.2178e-05	684.26	363.05	1.2154e-05	1.2161e-05	361.89	158	168.12	84.465	1.2127e-05	79.603	334.975	459.742	245.851	139.100	169.086	148.585	138.423	144.506	287.912	218.318	141.376	145.667	148.260	151.643	307.009	147.294	-8191	255	
992.202	1	1	0	0	0.17076	0.18206	0.078046	0.097999	0.24208	0.049251	0.18392	0.26716	0.12769	0.2841	0.22981	0.15372	0.098068	0.17371	0.29596	0.21119	1.0896	-0.22708	0.35417	0.37917	-0.066667	0.52292	0.1375	-0.3125	0.52292	-0.0041667	0.12708	0.30208	-0.44583	0.36458	0.060417	-0.2625	257.223	431.175	443.049	444.148	480.967	138.438	326.876	338.992	141.866	239.853	421.225	355.037	456.312	432.079	167.963	391.893	0.0018625	0.0013492	0.00030996	752.46	4.1934e-06	8.6997e-06	644.85	359.11	8.6521e-06	6.5169e-06	345.85	157.41	171.04	87.788	7.6192e-06	81.568	0.0011148	0.0011154	0.00030918	794	1.2213e-05	1.2226e-05	682.04	363.63	1.2219e-05	1.2229e-05	363.09	159.29	169.4	85.625	1.2208e-05	81.126	325.736	203.694	196.561	139.337	352.272	304.413	138.028	144.166	320.438	423.684	141.606	145.863	148.254	151.573	174.074	147.674	-8191	255	
992.298	1	1	0	0	0.19735	0.051	0.065795	0.16334	0.25313	0.18723	0.5137	0.1202	0.28293	0.048193	0.18852	0.15967	0.077069	0.048911	0.21921	0.27305	0.99792	-0.1125	0.24375	0.54583	-0.15625	0.28542	0.25833	-0.22708	0.575	0.0041667	-0.23958	0.4625	-0.42708	0.15	0.36042	-0.275	158.361	266.428	452.332	467.083	297.239	383.633	434.515	352.703	395.856	284.508	483.574	136.190	147.511	208.515	235.939	460.038	0.0017605	0.00066708	0.00033347	747.05	5.9532e-06	6.645e-06	645.89	361.76	2.3199e-05	6.32e-06	347.95	159.59	173.29	90.555	8.2652e-06	84.217	0.0011206	0.001116	0.00031114	787.41	1.2206e-05	1.2306e-05	679.7	365.78	1.2152e-05	1.2259e-05	365.91	161.4	171.68	88.154	1.2309e-05	83.532	339.422	160.692	474.660	139.331	242.284	204.101	138.491	144.859	243.610	261.741	141.384	145.723	148.570	151.601	293.595	147.387	-8191	255	
992.417	1	1	0	0	0.082922	0.081568	0.073054	0.30005	0.23498	0.27648	0.3543	0.39248	0.26144	0.068416	0.23452	0.30474	0.26729	0.50971	0.11437	0.1558	0.72917	0.09375	0.15208	0.475	-0.2	0.16458	0.34375	-0.20625	0.66042	0.18125	-0.11458	0.34167	-0.52917	0.08125	0.65208	-0.54792	236.475	357.908	265.095	483.973	300.957	277.469	174.598	397.141	459.580	477.417	440.785	475.226	466.907	438.650	246.822	412.698	0.0019669	0.00093083	0.00023775	729.74	1.5211e-05	8.6681e-06	627.76	359.74	1.8735e-05	5.8472e-06	348.2	160.45	172.63	92.66	9.5937e-06	85.843	0.0011345	0.0011258	0.00031373	772.28	1.2414e-05	1.2359e-05	668.23	364.7	1.235e-05	1.2421e-05	365.67	161.87	171.34	89.949	1.2339e-05	85.082	324.987	429.179	454.250	139.265	229.653	373.305	138.592	144.735	205.070	333.818	141.807	145.822	148.558	151.824	217.712	147.756	-8191	255	
992.513	1	1	0	0	0.15978	0.27225	0.18824	0.16804	0.080663	0.22578	0.079321	0.22725	0.25002	0.17114	0.23462	0.20592	0.35444	0.13764	0.081492	0.26182	0.89167	0.15208	-0.27083	0.50208	-0.13958	0.43333	0.48125	-0.30833	0.55625	0.22083	-0.3	0.65208	-0.23542	-0.070833	0.63125	-0.325	458.591	170.774	189.327	431.637	387.747	338.712	434.471	421.996	128.989	247.623	481.688	436.290	141.137	132.642	481.032	433.175	0.0018651	0.00078544	7.661e-05	705.25	7.741e-06	1.1373e-05	612.41	355.47	1.2602e-05	2.2833e-06	344.58	158.29	170.37	92.946	1.0524e-05	86.986	0.0011477	0.0011361	0.00031471	749.37	1.2404e-05	1.2498e-05	650.05	359.14	1.2462e-05	1.2495e-05	362.57	160.49	169.7	90.409	1.2399e-05	85.95	321.523	166.100	258.985	139.834	235.731	219.882	138.401	145.156	274.884	139.015	141.956	145.780	149.183	152.090	318.966	148.031	-8191	255	
992.610	1	1	0	0	0.069825	0.011476	0.26715	0.23495	0.076311	0.051407	0.10109	0.082693	0.11557	0.11265	0.2964	0.037678	0.1886	0.022179	0.11705	0.32382	0.80625	0.43125	-0.19583	0.5625	0.05625	0.15833	0.62917	-0.25833	0.32083	0.37917	-0.28125	0.32083	-0.010417	-0.28125	0.59583	-0.56667	221.719	313.445	279.740	476.575	215.336	246.298	395.027	477.903	376.908	350.719	191.289	394.241	446.553	477.136	387.141	180.034	0.0022418	0.0014112	0.00014799	681.72	6.0068e-06	2.1697e-06	591.1	346.28	1.8934e-05	1.204e-05	342.27	157.93	171.44	93.541	2.2425e-05	88.448	0.0011327	0.0011399	0.00031486	729.85	1.2336e-05	1.2373e-05	633.94	351.66	1.23e-05	1.2297e-05	359.75	160.47	169.96	90.916	1.2263e-05	87.226	329.332	174.491	219.833	139.836	248.728	484.641	138.000	144.985	251.390	304.136	141.908	145.681	148.377	152.155	293.314	147.842	-8191	255	
992.730	1	1	0	0	0.21678	0.3341	0.19361	0.13388	0.17474	0.14551	0.24073	0.26663	0.15101	0.08956	0.37823	0.15123	0.15941	0.16005	0.14485	0.22333	0.59792	0.50208	-0.175	0.42708	0.060417	-0.19167	0.70417	-0.20833	0.12917	0.39583	-0.38958	0.38125	0.13125	-0.40208	0.7125	-0.20833	454.209	347.657	452.490	451.234	400.824	168.365	188.123	374.422	262.695	249.455	433.313	421.026	127.798	417.134	323.785	412.496	0.0020822	0.00074025	0.00014679	681.58	1.3061e-05	3.354e-06	600.07	346.02	1.8489e-05	3.1048e-06	339.02	161.63	175.91	95.607	7.4377e-06	90.395	0.0011244	0.0011185	0.00031158	729.09	1.2253e-05	1.2296e-05	639.15	348.91	1.2174e-05	1.2291e-05	357.87	164.05	174.27	92.761	1.2211e-05	89.295	329.352	208.357	315.651	139.474	204.139	211.168	138.084	144.945	249.797	200.158	142.386	145.551	148.785	152.321	286.633	147.895	-8191	255	
992.826	1	1	0	0	0.06798	0.18518	0.16965	0.087225	0.22198	0.091965	0.11708	0.2244	0.28012	0.047267	0.21136	0.10076	0.33138	0.09299	0.18326	0.27134	0.35625	0.7625	-0.089583	0.31667	0.22917	-0.095833	0.42917	-0.34583	0.21458	0.79167	-0.33958	0.23333	0.19792	-0.26667	0.55	-0.0083333	265.598	247.926	427.932	242.431	434.724	264.766	144.170	359.790	195.644	187.090	423.643	166.257	454.331	415.841	226.632	462.331	0.0020831	0.00088284	0.00060418	690.86	1.1736e-05	1.414e-05	599.8	341.91	1.0183e-05	2.1989e-05	337.71	161.61	176.18	94.067	2.0647e-05	89.473	0.0011228	0.0011212	0.00031272	738.22	1.2292e-05	1.2395e-05	642.78	346.78	1.2449e-05	1.2535e-05	357.52	164.02	174.95	92.129	1.3075e-05	88.816	323.130	133.366	232.802	139.486	213.662	288.773	138.445	145.227	175.279	302.196	141.797	146.087	148.748	152.097	297.898	148.084	-8191	255	
992.898	1	1	0	0	0.24467	0.066399	0.22568	0.060688	0.02669	0.25769	0.21796	0.36287	0.15969	0.14762	0.091121	0.27748	0.19172	0.11644	0.1612	0.12718	0.44792	0.60417	-0.13333	0.18542	0.34167	-0.24792	0.42708	-0.15417	0.12917	0.61042	-0.25417	0.27708	0.30833	-0.42292	0.64375	-0.058333	435.271	358.438	458.558	190.052	356.774	451.004	438.415	133.155	414.783	430.439	141.511	137.461	467.601	444.454	281.952	447.921	0.0020141	0.00068425	0.00022576	685.68	1.1883e-05	7.7588e-06	599.27	335.64	7.6072e-06	4.7845e-06	334.93	158.71	173.96	93.86	1.2076e-05	88.471	0.0012064	0.0012165	0.00033696	737.5	1.334e-05	1.3457e-05	643.62	344.53	1.3482e-05	1.3474e-05	358.01	163.15	173.67	91.752	1.3409e-05	88.273	331.283	196.734	188.076	139.641	214.912	211.105	137.997	145.274	309.046	198.829	142.004	145.836	148.979	152.480	216.863	148.353	-8191	255	
993.019	1	1	0	0	0.15195	0.062442	0.10176	0.15659	0.24111	0.16693	0.21468	0.20777	0.13884	0.39351	0.12246	0.2282	0.1185	0.070208	0.19074	0.43933	0.175	0.66042	-0.12292	0.12083	0.6	-0.22708	0.4	0.17917	-0.13542	0.73125	-0.16875	-0.04375	0.55417	-0.41042	0.25833	0.14583	317.388	478.066	183.583	173.301	454.765	178.454	347.524	146.948	306.519	316.935	254.468	430.217	326.651	170.216	396.838	429.721	0.0022653	0.0010983	0.00020698	684.2	1.4513e-05	1.3927e-05	600.37	332.37	1.2428e-05	9.4767e-06	331.42	159.84	173.95	93.732	4.9801e-06	88.664	0.0012366	0.0012376	0.00034311	740.99	1.3497e-05	1.3621e-05	646.17	341.92	1.3459e-05	1.3525e-05	353.53	163.53	173.98	91.623	1.3308e-05	88.403	326.151	469.146	242.457	139.693	251.549	242.111	137.956	144.790	254.201	185.060	141.620	145.782	148.943	152.368	278.715	148.067	-8191	255	
993.113	1	1	0	0	0.15868	0.028121	0.33342	0.10885	0.29668	0.10675	0.090752	0.17796	0.21811	0.22551	0.12525	0.18015	0.37208	0.24729	0.16438	0.28248	0.04375	0.60833	0.077083	-0.079167	0.49375	-0.225	0.0083333	0.15	-0.070833	0.57083	-0.0625	0.01875	0.58333	-0.2875	0.39792	0.18125	307.060	302.116	231.210	263.882	473.733	185.894	341.549	410.678	326.829	365.581	161.761	183.696	426.046	466.704	198.511	405.744	0.0021751	0.0017403	0.00020887	689.35	1.4748e-05	2.866e-06	601.18	330.32	1.9197e-05	3.9476e-06	328.69	158.3	172.42	92.567	1.1235e-05	88.369	0.0012199	0.001214	0.00033562	743.47	1.3188e-05	1.3222e-05	645.12	337.7	1.3011e-05	1.3045e-05	349.17	161.4	171.73	90.56	1.2867e-05	87.507	330.450	220.314	257.785	139.384	235.835	397.761	138.349	145.149	211.426	452.654	141.991	145.873	149.064	152.570	479.776	148.059	-8191	255	
993.209	1	1	0	0	0.27105	0.072007	0.12073	0.096954	0.14413	0.080947	0.26127	0.29946	0.18281	0.20534	0.083719	0.081664	0.13409	0.30928	0.093454	0.24752	0.15417	0.54375	0.16458	-0.2625	0.72083	-0.15625	-0.15	0.41042	-0.22083	0.56667	0.18125	-0.12292	0.48958	-0.2625	0.089583	0.34375	253.377	475.562	360.168	410.045	211.253	279.329	173.491	445.938	288.882	199.175	453.233	148.598	278.215	129.339	378.444	383.510	0.0020546	0.0015393	0.00020137	691.06	1.3228e-05	6.479e-07	597.69	326.24	1.2815e-05	1.0053e-05	323.83	157.54	171.06	91.83	5.9843e-06	87.778	0.0011795	0.0011727	0.00032502	742.7	1.2823e-05	1.2907e-05	643.27	334.33	1.2813e-05	1.2796e-05	345.25	159.56	170.35	89.918	1.2597e-05	86.805	336.601	225.211	401.767	139.562	239.688	468.187	138.197	145.027	222.703	223.233	141.695	145.830	149.028	152.482	219.630	148.115	-8191	255	
993.330	1	1	0	0	0.20041	0.13854	0.067993	0.042971	0.10644	0.14782	0.38189	0.30511	0.22365	0.058799	0.244	0.044128	0.31941	0.31733	0.12624	0.26186	0.15	0.40417	0.35625	-0.30833	0.49167	-0.17083	-0.13958	0.28125	-0.26042	0.37917	0.18958	-0.3375	0.51458	-0.37708	-0.10208	0.57708	132.951	379.762	412.613	127.995	132.348	458.416	480.484	442.388	243.481	258.289	144.338	252.873	458.234	447.683	276.428	447.715	0.0020323	0.00049164	0.00030368	689.34	3.174e-06	1.1614e-05	596.48	325.23	1.2095e-05	1.7264e-05	320.46	155.18	170.6	91.834	8.511e-06	87.35	0.0011622	0.001158	0.00032175	738.6	1.266e-05	1.2618e-05	640.28	331.99	1.257e-05	1.2509e-05	342.03	158.67	169.22	89.46	1.2421e-05	86.33	326.398	137.368	204.768	139.589	368.200	270.161	137.997	145.214	403.479	262.364	142.125	146.202	148.936	152.644	292.145	148.050	-8191	255	
993.426	1	1	0	0	0.13645	0.18638	0.18036	0.11175	0.17897	0.10689	0.41533	0.29718	0.25963	0.064955	0.25732	0.049655	0.33486	0.397	0.036225	0.21507	0.075	0.41458	0.68333	-0.33125	0.55833	0.125	-0.0125	0.55625	-0.16875	0.09375	0.35625	-0.49583	0.19167	-0.17292	-0.225	0.32708	299.466	421.353	361.193	368.540	419.032	228.300	463.650	408.669	216.096	177.494	350.856	470.624	137.262	443.257	411.131	393.226	0.0016979	0.00068172	0.00025474	690.46	1.6244e-05	1.2012e-05	598.61	324.09	1.2383e-05	1.2895e-05	320.46	156.1	168.43	91.886	1.6909e-05	87.139	0.0011403	0.0011358	0.00031566	737.99	1.2404e-05	1.2532e-05	639.81	330.82	1.2413e-05	1.2474e-05	341.74	158.31	167.9	89.406	1.2412e-05	86.368	326.744	240.337	182.712	139.702	238.939	170.976	138.624	145.006	245.766	215.814	142.076	146.294	148.822	152.589	213.002	148.090	-8191	255	
993.498	1	1	0	0	0.16672	0.13898	0.041569	0.16906	0.3221	0.16943	0.13834	0.093068	0.27231	0.27889	0.072902	0.14468	0.26017	0.33371	0.18052	0.0977	0.24583	0.22083	0.45833	-0.425	0.48958	0.20417	-0.25833	0.6	-0.30833	0.0083333	0.45208	-0.48333	0.32083	0.22083	-0.20625	0.325	333.577	456.610	242.284	166.537	328.996	156.944	180.920	444.980	369.871	242.108	264.943	471.967	155.071	443.046	288.998	420.546	0.0020313	0.00063353	0.00050077	686.08	5.6051e-06	6.4202e-06	595.78	323.88	7.6968e-06	5.311e-06	322	155.83	170.1	91.667	1.7223e-05	87.93	0.00114	0.0011353	0.00031421	736.68	1.2311e-05	1.2345e-05	637.01	331.1	1.2363e-05	1.2337e-05	341.87	158.15	168.47	89.351	1.2253e-05	86.712	331.418	408.082	188.466	139.557	193.044	163.460	138.436	145.201	163.250	483.786	142.353	146.284	148.827	152.796	279.323	148.255	-8191	255	
993.594	1	1	0	0	0.050794	0.26135	0.023462	0.040445	0.32494	0.13316	0.20179	0.23986	0.057994	0.22014	0.1477	0.33284	0.25928	0.30395	0.17179	0.51585	0.56667	-0.054167	0.775	-0.28542	0.325	0.49167	-0.37083	0.48542	-0.035417	0.014583	0.5125	-0.30625	0.32292	0.33333	-0.25417	0.54375	180.480	392.265	358.111	365.994	352.826	321.587	153.276	457.312	427.128	133.889	310.388	462.538	380.184	134.680	177.441	402.598	0.0019384	0.00098369	0.00023369	687.14	3.1859e-06	1.0258e-05	594.48	324.98	2.9529e-05	1.1908e-05	322.42	155.88	167.71	91.023	1.7613e-05	87.391	0.0011234	0.0011214	0.00031022	733.59	1.2173e-05	1.2322e-05	635.86	330.71	1.2258e-05	1.2201e-05	341.87	157.81	167.11	88.785	1.2123e-05	85.94	330.819	221.958	209.207	139.698	275.711	186.841	138.306	145.302	197.332	449.371	142.087	146.119	148.918	152.583	280.349	148.466	-8191	255	
993.690	1	1	0	0	0.20126	0.21141	0.26085	0.10125	0.037478	0.079518	0.37789	0.24215	0.17864	0.14324	0.17793	0.14881	0.26372	0.26644	0.18185	0.13189	0.31042	-0.22292	0.71042	-0.28542	0.20833	0.42083	-0.28958	0.41875	0.18333	-0.15833	0.3125	-0.34167	0.05	0.36042	-0.25417	0.14792	401.721	160.865	347.086	412.722	373.970	171.981	408.962	384.282	455.811	239.164	438.609	147.714	451.448	441.861	140.303	393.155	0.0022927	0.00037422	0.00012349	686.78	1.1005e-05	6.6941e-06	589.51	323.47	1.4913e-05	7.6701e-06	320.96	154.15	166.38	90.483	1.2203e-05	86.353	0.0011181	0.0011097	0.00030826	730.22	1.2129e-05	1.218e-05	631.44	329.84	1.2152e-05	1.2138e-05	340.78	156.24	165.75	88.169	1.2158e-05	85.231	333.625	184.943	152.085	140.018	341.225	174.936	138.291	145.384	277.253	369.145	141.922	146.467	148.956	152.395	233.419	147.992	-8191	255	
993.811	1	1	0	0	0.15315	0.1222	0.13742	0.32441	0.16942	0.11429	0.22936	0.083857	0.14902	0.037025	0.013252	0.19324	0.28793	0.070601	0.052	0.28456	0.6	-0.26458	0.67708	-0.10208	0.10625	0.41875	-0.46875	0.26042	0.53125	-0.24792	0.54375	-0.0875	-0.11458	0.32708	-0.11458	0.31667	141.168	174.347	178.278	414.234	436.122	181.567	313.629	153.461	299.397	366.103	290.175	440.366	421.786	295.003	179.138	468.060	0.0019708	0.0011499	0.00024112	681.46	3.8528e-06	3.433e-06	588.94	323.18	1.2598e-05	8.3073e-06	321.32	152.91	165.8	89.836	1.1592e-05	85.891	0.0011154	0.0011155	0.00030902	726.36	1.2103e-05	1.2126e-05	628.22	329.25	1.2043e-05	1.2071e-05	339.91	155.62	164.71	87.677	1.2006e-05	85.042	331.890	432.125	217.941	139.796	244.801	271.811	138.492	145.233	309.474	150.176	142.138	145.854	148.912	152.542	257.745	147.977	-8191	255	
993.907	1	1	0	0	0.056925	0.19165	0.17244	0.24735	0.17965	0.072763	0.096833	0.12043	0.2661	0.23414	0.27635	0.10951	0.16528	0.14023	0.094685	0.056307	0.7625	-0.054167	0.39583	0.1125	-0.079167	0.7	-0.3	0.175	0.33542	-0.39167	0.45208	0.15208	-0.11042	0.53542	-0.014583	0.11458	306.017	254.040	334.218	355.781	374.203	148.089	365.382	131.613	207.500	315.491	419.947	282.300	132.370	468.797	192.263	337.854	0.0018821	0.0014478	0.00020557	683.31	1.8639e-05	5.144e-06	588.51	324.03	1.495e-05	1.454e-05	323.29	152.23	164.9	89.591	8.2375e-06	86.527	0.001103	0.0010979	0.00030446	726.01	1.2002e-05	1.1991e-05	627.6	329.23	1.1952e-05	1.1958e-05	339.85	154.35	163.57	87.203	1.1989e-05	85.002	332.280	263.426	410.541	140.015	294.408	265.175	138.351	145.073	279.769	228.291	141.646	146.176	148.957	152.559	232.472	148.115	-8191	255	
994.003	1	1	0	0	0.075077	0.054283	0.17403	0.12047	0.049844	0.22535	0.18065	0.12443	0.1891	0.17213	0.10069	0.26034	0.23539	0.10108	0.12191	0.073285	0.90417	-0.2375	0.54583	0.24167	-0.12292	0.72083	-0.10833	-0.066667	0.72917	-0.275	0.28958	0.2625	-0.45417	0.26875	-0.1	-0.083333	288.422	403.839	225.656	378.314	448.021	236.296	483.840	433.381	279.915	267.640	420.960	467.260	483.869	189.155	328.688	480.736	0.0017144	0.00077479	0.0006084	682.53	1.2628e-05	7.0815e-06	590.12	325.55	1.757e-05	1.0249e-05	320.57	151.9	164.82	89.619	1.5969e-05	85.531	0.0010925	0.0010911	0.00030279	727.2	1.187e-05	1.1865e-05	629.32	330.05	1.1885e-05	1.1815e-05	339.54	154.22	163.35	87.066	1.1771e-05	84.571	340.424	405.745	195.401	139.628	285.433	235.143	138.118	144.989	222.182	356.060	142.043	146.223	148.922	152.404	299.761	148.358	-8191	255	
994.099	1	1	0	0	0.19709	0.1483	0.23164	0.40526	0.35402	0.10298	0.02733	0.29749	0.24817	0.10009	0.17129	0.29962	0.25759	0.20006	0.19263	0.21165	1.0542	-0.26458	0.53125	0.13958	-0.16042	0.58958	-0.0625	-0.085417	0.72917	-0.2375	0.22083	0.15208	-0.56042	0.31042	0.15	-0.15	427.652	369.204	218.250	483.908	455.818	258.147	329.342	445.308	438.862	377.881	309.688	482.574	450.676	435.021	269.836	434.178	0.0021739	0.0015968	0.00021948	682	4.2992e-06	7.0537e-06	592.32	324.44	7.2489e-06	1.0882e-05	320.46	150.1	162.76	89.178	1.819e-05	85.229	0.0010891	0.0010806	0.00029657	725.64	1.175e-05	1.1853e-05	626.67	329.81	1.1677e-05	1.1746e-05	338.29	152.27	161.52	86.436	1.1603e-05	83.681	324.578	178.056	181.066	139.813	217.122	306.953	138.472	145.141	340.374	315.854	141.904	146.293	148.891	152.389	225.831	148.087	-8191	255	
994.193	1	1	0	0	0.17933	0.12275	0.14106	0.1037	0.18424	0.18027	0.41236	0.27608	0.20384	0.21535	0.099407	0.17158	0.24191	0.44955	0.077788	0.36766	0.94792	-0.027083	0.20417	0.60417	-0.15	0.46042	0.15625	-0.125	0.63542	-0.25208	0.15	0.39167	-0.575	0.27917	0.43333	-0.23125	218.263	131.823	319.853	312.861	465.996	380.064	436.168	375.945	310.405	278.003	464.574	383.695	131.783	473.059	237.615	379.114	0.0018235	0.00098451	0.00036588	677.93	1.5686e-05	1.0718e-05	587.87	322.31	1.2961e-05	1.1156e-05	320.63	149.65	162.1	87.751	1.5498e-05	84.269	0.001073	0.0010606	0.00029579	718.49	1.1544e-05	1.158e-05	625.25	328.01	1.1624e-05	1.1654e-05	337.03	151.53	160.42	85.682	1.1735e-05	83.407	325.521	140.423	339.805	139.837	203.208	363.151	138.266	145.287	209.220	232.132	141.637	145.943	149.001	152.472	268.222	148.213	-8191	255	
994.291	1	1	0	0	0.11617	0.14765	0.022697	0.19749	0.15524	0.13607	0.32328	0.32889	0.13731	0.024384	0.26558	0.29509	0.20703	0.34111	0.31502	0.030863	0.925	-0.125	-0.029167	0.46875	-0.12917	0.31042	0.27708	-0.34792	0.58542	0.0375	-0.05	0.575	-0.20208	0.1125	0.45625	-0.42292	435.065	486.511	359.026	427.077	241.306	415.940	376.921	454.544	164.189	481.334	462.559	463.314	459.722	150.492	347.086	283.439	0.0017564	0.00042858	0.00010162	682.24	7.9364e-06	5.0071e-06	592.97	323.24	1.3692e-05	1.5158e-05	322.12	149.06	162.36	87.543	1.1774e-06	84.758	0.0010788	0.0010702	0.00029552	723.6	1.1707e-05	1.1774e-05	628.7	329.22	1.1682e-05	1.1631e-05	338.36	151.31	160.24	85.319	1.163e-05	83.444	337.629	224.156	179.438	139.918	194.907	401.267	138.404	145.044	229.041	198.214	141.747	145.958	148.998	152.597	340.306	148.340	-8191	255	
994.410	1	1	0	0	0.16249	0.14141	0.18558	0.03646	0.13862	0.31769	0.27584	0.35815	0.20167	0.083328	0.21557	0.38522	0.28151	0.22351	0.10462	0.10337	0.95625	0.12917	0.12917	0.58958	-0.10417	0.15833	0.21667	-0.52292	0.65417	0.175	-0.15417	0.63333	-0.325	0.1	0.50417	-0.49167	455.038	424.373	444.583	383.035	274.768	470.189	413.530	440.885	168.515	335.326	392.538	397.901	439.383	484.213	206.184	411.227	0.0018112	0.00043057	0.00025623	685.95	6.3931e-06	1.5715e-05	599.83	326.55	2.4181e-05	1.287e-05	323.05	149.32	162.16	87.477	3.055e-06	84.475	0.0010671	0.0010596	0.00029298	725.98	1.144e-05	1.1478e-05	631.83	330.7	1.1455e-05	1.1516e-05	338.45	151.05	159.98	85.053	1.1446e-05	82.903	334.176	213.684	295.281	139.668	294.831	259.588	138.066	145.327	187.444	250.903	141.689	146.144	148.842	152.578	169.126	148.123	-8191	255	
994.506	1	1	0	0	0.19299	0.10238	0.24826	0.22091	0.071263	0.13206	0.13707	0.22996	0.071296	0.14672	0.13089	0.11471	0.078204	0.18586	0.066025	0.41912	0.67917	0.19583	-0.325	0.65208	-0.10208	0.175	0.45833	-0.3375	0.36458	0.24583	-0.35625	0.49792	-0.18333	0.1	0.55625	-0.29792	301.352	303.966	198.853	142.204	265.569	458.506	373.862	382.092	191.019	219.514	395.841	477.031	175.956	445.364	222.678	483.068	0.0022494	0.0013559	0.00013909	690.43	1.0651e-05	6.6684e-06	593.79	326.17	9.1402e-06	1.6461e-05	320.37	148.58	161.37	86.599	1.0972e-05	83.561	0.0010526	0.0010446	0.00029272	726.24	1.1422e-05	1.1551e-05	629	330.25	1.1507e-05	1.146e-05	337.52	150.23	159.42	84.586	1.1515e-05	82.218	325.883	171.856	462.477	139.721	199.225	271.499	138.396	144.836	151.187	219.950	141.909	146.109	148.855	152.423	269.229	148.278	-8191	255	
994.603	1	1	0	0	0.2029	0.1834	0.099898	0.23619	0.27947	0.34184	0.21065	0.031527	0.12037	0.046979	0.10596	0.14891	0.39018	0.35568	0.19126	0.31216	0.77292	0.40833	-0.13542	0.6375	-0.064583	-0.24583	0.49375	-0.27917	0.25833	0.32917	-0.1625	0.48125	-0.08125	-0.26667	0.55	-0.22083	326.836	235.586	247.514	284.676	190.288	388.941	398.156	422.104	251.624	237.086	136.247	426.565	464.874	166.041	440.770	370.068	0.002294	0.000606	0.00013342	688.43	9.7833e-06	7.9365e-06	596.57	326.49	2.8943e-06	1.1121e-05	324.19	149.06	161.05	87.491	1.0602e-05	84.114	0.0010542	0.0010595	0.00029277	727.64	1.1547e-05	1.1504e-05	631.41	329.96	1.1576e-05	1.1572e-05	339.39	150.37	159.67	84.943	1.1573e-05	82.716	327.264	470.660	210.247	139.861	239.576	355.889	138.241	145.130	407.214	178.129	142.097	146.044	149.183	152.523	446.150	148.113	-8191	255	
994.699	1	1	0	0	0.085743	0.14549	0.14755	0.43807	0.047043	0.11693	0.32603	0.19369	0.21709	0.093978	0.19947	0.27593	0.32167	0.22848	0.10081	0.079848	0.6625	0.32708	-0.13333	0.725	-0.035417	0.11458	0.52917	-0.2625	0.2375	0.80208	-0.34375	0.26667	0.18333	-0.31458	0.56458	-0.2125	457.091	391.427	411.269	459.473	232.544	251.431	472.641	487.172	256.971	275.323	465.277	464.916	173.645	449.999	475.378	365.697	0.0019313	0.00048461	0.00049467	691.09	7.5358e-06	6.7953e-06	598.92	328.26	5.4256e-06	5.4627e-06	322.28	148.65	161.96	87.504	1.0366e-05	84.16	0.0010561	0.0010522	0.00029212	729.5	1.1522e-05	1.1524e-05	633.5	331.53	1.153e-05	1.154e-05	338.83	151.1	160.03	85.13	1.1582e-05	83.069	322.448	200.407	183.791	139.833	132.490	229.936	138.013	145.225	213.339	273.308	142.036	145.943	149.010	152.679	312.680	148.403	-8191	255	
994.795	1	1	0	0	0.090201	0.15943	0.2588	0.14461	0.38955	0.14702	0.027169	0.022805	0.093154	0.13767	0.1684	0.21788	0.35367	0.30654	0.23039	0.18041	0.43333	0.57083	-0.22292	0.29167	0.34583	-0.18542	0.5375	-0.1125	-0.0125	0.55208	-0.24167	0.13542	0.33333	-0.29167	0.64792	-0.014583	275.090	137.062	260.215	460.288	342.479	385.049	420.916	368.905	400.469	340.293	471.157	447.524	477.945	477.453	192.586	432.028	0.0018601	0.00061718	0.00011097	696.43	4.1493e-06	3.6392e-06	603.94	329.55	1.4155e-05	2.727e-06	324.8	149.71	162.59	87.954	7.7328e-06	84.33	0.0010654	0.0010592	0.00029602	732.63	1.1582e-05	1.1634e-05	635.99	333.48	1.1576e-05	1.1597e-05	341.03	151.64	160.63	85.453	1.1689e-05	83.062	324.797	427.398	327.572	139.936	149.627	301.980	138.560	145.371	299.098	429.451	141.956	146.535	149.004	152.731	313.312	148.296	-8191	255	
994.891	1	1	0	0	0.31322	0.12936	0.14701	0.06228	0.10181	0.29965	0.23316	0.094091	0.28932	0.046745	0.25939	0.25375	0.19184	0.55232	0.29179	0.21112	0.375	0.58958	-0.03125	0.29167	0.64583	-0.2625	0.47708	0.085417	0.13333	0.475	-0.1	0.1	0.34167	-0.44375	0.40417	0.21875	170.084	141.678	220.183	163.609	446.958	294.414	151.751	310.905	341.697	417.100	447.862	422.994	442.116	432.565	342.525	130.439	0.0019478	0.00070597	0.00025632	693.9	1.2745e-05	4.3496e-06	597.32	329.65	9.0537e-06	6.7962e-06	324.65	149.08	161.34	87.507	6.7244e-06	84.06	0.0010616	0.0010562	0.00029419	732.26	1.1617e-05	1.1535e-05	633.56	333.01	1.1539e-05	1.1606e-05	340.35	150.96	159.9	85.218	1.1518e-05	82.711	330.835	343.510	190.959	139.796	181.713	284.904	138.220	145.417	208.112	268.022	142.128	146.288	149.093	152.733	267.041	148.185	-8191	255	
994.987	1	1	0	0	0.053118	0.090155	0.13627	0.34817	0.35286	0.10069	0.36665	0.0069847	0.34849	0.078498	0.20029	0.2029	0.38517	0.15999	0.1232	0.49667	0.11042	0.66875	-0.01875	0.058333	0.46458	-0.32708	0.16875	0.12708	-0.18333	0.63542	-0.03125	-0.04375	0.51875	-0.32083	0.45208	0.091667	461.969	310.444	300.704	405.178	277.481	424.051	479.215	432.333	164.317	147.332	430.331	403.406	468.845	433.256	477.457	481.104	0.0019176	0.0007656	0.00016496	692.98	8.6901e-06	1.2097e-05	596.94	329.89	1.3586e-05	6.344e-06	323.99	149.58	161.86	88.226	2.2233e-05	84.586	0.0010591	0.0010532	0.00029367	732.02	1.1493e-05	1.1523e-05	633.78	334.19	1.1608e-05	1.166e-05	340.6	151.48	160.75	85.693	1.16e-05	83.274	328.542	279.403	208.920	139.529	217.432	275.370	138.320	145.158	303.327	229.477	142.095	146.254	149.214	152.758	260.058	148.498	-8191	255	
995.106	1	1	0	0	0.22081	0.091379	0.085148	0.27457	0.22356	0.22895	0.25335	0.21189	0.095577	0.13327	0.14669	0.2477	0.25426	0.23444	0.30471	0.27034	0.11875	0.47292	0.0625	-0.022917	0.67708	-0.13333	0.19375	0.45833	-0.36667	0.51667	0.16667	-0.04375	0.5625	-0.43333	0.29583	0.21875	200.411	314.274	245.164	386.023	224.668	222.388	291.793	252.345	380.868	404.146	201.714	485.882	430.946	374.893	470.015	415.195	0.0017281	9.1454e-05	0.00022056	695.67	2.7919e-06	7.6792e-06	602.4	331.19	9.3502e-06	1.9994e-05	324.94	150.96	162.72	88.224	2.4981e-05	84.582	0.0010624	0.0010621	0.00029294	735.61	1.1584e-05	1.165e-05	636.86	335.04	1.1665e-05	1.1694e-05	341.85	152.25	161.05	85.667	1.1619e-05	83.358	331.551	445.696	486.522	139.793	142.147	356.335	138.587	145.365	318.335	338.856	142.702	146.345	149.041	152.782	263.679	148.215	-8191	255	
995.202	1	1	0	0	0.075245	0.023879	0.035301	0.20478	0.11001	0.14302	0.19413	0.21142	0.23876	0.092138	0.10615	0.1957	0.1337	0.18019	0.34773	0.28611	0.0625	0.49583	0.22083	-0.085417	0.56042	-0.083333	0.10833	0.36042	-0.25625	0.50208	0.1	-0.22083	0.44375	-0.26458	0.0041667	0.50833	460.087	313.283	339.164	422.018	400.892	144.064	450.729	383.445	414.271	303.966	384.314	147.926	480.929	430.272	479.237	178.947	0.001425	0.00081518	0.00038572	694.1	7.7688e-07	8.6923e-06	600.55	330.55	2.2284e-05	9.2014e-06	327.28	150.01	162.65	88.193	1.6783e-06	84.832	0.0010752	0.0010555	0.00029642	735.43	1.158e-05	1.1628e-05	637.51	335.07	1.1605e-05	1.1667e-05	342.18	151.88	161.38	85.932	1.1588e-05	83.519	331.403	225.062	231.819	139.728	254.369	208.352	138.404	145.449	216.202	259.324	142.510	146.633	149.165	152.631	334.261	148.659	-8191	255	
995.298	1	1	0	0	0.20041	0.33339	0.19791	0.257	0.43428	0.34831	0.20755	0.1898	0.18775	0.14501	0.16688	0.15842	0.26996	0.10438	0.17012	0.27403	0.24375	0.23542	0.35	-0.3	0.675	0.18542	0.045833	0.52083	-0.2625	0.44583	0.34583	-0.2375	0.44583	-0.31042	0.05	0.30208	216.635	394.680	310.552	438.257	361.579	207.367	438.738	166.456	199.500	282.303	190.012	470.306	133.384	458.856	226.401	368.045	0.0018549	0.00032842	0.00017598	696.9	1.0543e-05	9.5611e-06	603.67	332.8	1.4888e-05	1.1212e-05	324.81	150.69	163.71	88.809	1.3039e-05	85.373	0.00107	0.0010694	0.00029782	736.61	1.163e-05	1.1682e-05	637.68	336.03	1.1708e-05	1.171e-05	342.41	152.4	161.86	86.292	1.172e-05	83.641	328.708	304.797	248.413	139.922	247.300	291.475	138.187	144.855	256.491	209.489	142.578	146.359	149.126	152.638	247.212	148.735	-8191	255	
995.372	1	1	0	0	0.22962	0.098428	0.31488	0.20478	0.14159	0.17348	0.0041166	0.15811	0.21894	0.13096	0.17769	0.10602	0.15533	0.05818	0.044191	0.40307	0.21458	0.39167	0.47083	-0.16875	0.49792	0.18333	0.0041667	0.70208	-0.12292	0.175	0.43333	-0.34167	0.23958	0.04375	0.00625	0.45	281.414	260.466	374.926	393.914	479.935	247.900	146.450	223.120	329.747	386.750	223.272	455.354	266.526	325.049	204.702	434.135	0.0017136	0.00090326	0.00030721	702.44	3.5434e-06	1.5164e-05	604.9	333.24	1.3155e-05	2.1345e-06	325.66	150.92	164.19	89.457	8.2113e-06	85.285	0.001079	0.0010662	0.00029808	739.77	1.1657e-05	1.1759e-05	639.67	337.96	1.1775e-05	1.1724e-05	343.13	153.12	162.81	86.99	1.1704e-05	84.068	332.023	238.087	232.615	139.599	241.025	268.740	138.237	145.258	203.757	365.916	142.247	146.210	148.911	152.754	214.413	148.222	-8191	255	
995.491	1	1	0	0	0.12002	0.090655	0.033038	0.065651	0.21442	0.29409	0.15673	0.098078	0.040773	0.15052	0.13484	0.12873	0.17303	0.18757	0.092327	0.2388	0.13542	0.32292	0.51042	-0.325	0.55417	0.0875	-0.27292	0.5375	0.12083	0.052083	0.47292	-0.31458	0.2125	0.11875	-0.1375	0.38958	331.569	460.038	174.674	134.474	154.264	221.439	402.457	433.432	454.270	292.391	412.415	405.869	347.242	406.842	437.330	486.817	0.0022293	0.00060397	0.00026136	699.68	6.0155e-06	4.3019e-06	608.15	335.6	1.7457e-05	1.1935e-05	328.57	152.09	165.65	90.241	8.5914e-06	86.572	0.0010844	0.0010698	0.00029678	742.68	1.1765e-05	1.1683e-05	641.43	339.18	1.1696e-05	1.1699e-05	345.73	153.96	164.19	87.629	1.1685e-05	85.135	340.438	478.872	219.077	140.308	258.684	267.461	138.553	144.981	155.872	393.229	142.196	146.129	149.337	152.810	262.223	148.497	-8191	255	
995.587	1	1	0	0	0.25119	0.24774	0.13329	0.24278	0.095593	0.2671	0.098675	0.38946	0.083273	0.2081	0.13745	0.25456	0.18886	0.23792	0.082623	0.16964	0.26875	0.19375	0.6375	-0.35833	0.35	0.42083	-0.23542	0.48958	0.095833	-0.0875	0.64583	-0.28958	0.26042	0.225	-0.22083	0.40417	464.234	171.668	229.307	414.275	183.318	159.860	361.514	406.907	140.253	348.685	202.389	397.427	127.667	128.763	449.322	228.247	0.002223	0.00082599	0.00046323	704.91	5.3267e-06	1.0987e-05	610.24	337.58	6.7414e-06	9.4034e-06	333.3	154.58	167.2	90.977	1.1173e-05	86.994	0.0010859	0.0010834	0.00030085	745.89	1.1802e-05	1.1877e-05	644.77	342.05	1.1798e-05	1.1821e-05	349.29	155.88	165.6	88.445	1.1841e-05	85.696	329.894	144.979	210.012	139.801	480.030	302.349	138.491	145.485	295.794	153.712	142.290	146.391	149.091	152.897	233.592	148.821	-8191	255	
995.683	1	1	0	0	0.13226	0.057288	0.20588	0.10522	0.10145	0.25431	0.042057	0.045864	0.11587	0.045297	0.092097	0.33889	0.13008	0.2927	0.24788	0.066635	0.45417	-0.29375	0.52083	-0.19792	0.033333	0.64792	-0.18333	0.39375	0.43125	-0.047917	0.34792	-0.20833	0.033333	0.49792	-0.18125	0.40833	192.309	228.225	209.612	144.321	298.363	225.187	381.626	265.805	476.658	342.054	322.905	390.374	228.477	426.797	485.198	369.590	0.0017018	6.8327e-05	0.00047767	711.53	3.4224e-06	3.7585e-06	613.86	340.35	3.9754e-06	1.4079e-05	334.48	154.92	167.67	91.297	1.6196e-05	86.84	0.0010925	0.0010805	0.00030259	749.14	1.1816e-05	1.1902e-05	648.24	343.88	1.1887e-05	1.1904e-05	350.11	156.23	166.26	88.849	1.1867e-05	85.414	330.951	297.190	266.618	140.262	245.214	269.651	138.792	145.278	129.714	246.768	142.257	146.505	149.038	152.694	340.352	148.218	-8191	255	
995.779	1	1	0	0	0.23617	0.50399	0.13706	0.18848	0.12025	0.041701	0.030464	0.21127	0.22675	0.2327	0.21856	0.24762	0.20148	0.055331	0.16114	0.097644	0.56875	-0.24583	0.59167	-0.20833	0.12083	0.49167	-0.29167	0.35625	0.39167	-0.11042	0.57083	-0.014583	-0.03125	0.46042	-0.27083	0.175	267.732	481.980	446.825	361.669	261.561	295.744	407.631	426.618	373.253	213.603	399.095	180.069	483.245	175.610	388.482	374.520	0.0017278	0.00088425	8.9387e-05	709.27	2.5184e-06	5.9011e-06	615.6	341.78	1.6303e-05	6.4468e-06	333.55	154.49	168.9	91.813	1.0515e-05	87.4	0.0010914	0.0010774	0.00030071	750.72	1.1858e-05	1.1828e-05	650.02	344.81	1.1817e-05	1.181e-05	350.65	156.39	167.19	89.173	1.1788e-05	85.812	331.602	247.224	279.723	139.787	401.762	312.142	138.574	145.173	261.923	336.347	142.082	146.534	149.049	152.677	205.003	148.697	-8191	255	
995.900	1	1	0	0	0.1653	0.21234	0.1814	0.19864	0.059775	0.082742	0.13386	0.17739	0.057329	0.042645	0.15335	0.16051	0.33534	0.15837	0.28985	0.07896	0.7125	-0.24792	0.41042	0.05625	-0.025	0.7	-0.34167	0.23958	0.49375	-0.25417	0.52708	0.10208	-0.20208	0.45	-0.12292	0.05	487.109	293.555	177.510	456.837	350.933	160.633	405.277	462.598	312.025	286.786	266.929	284.164	423.255	468.125	429.621	357.146	0.0019305	0.00071568	0.00014386	715.67	1.4328e-05	1.5087e-05	616.71	341.76	3.6183e-06	9.1265e-06	334.85	154.87	167.85	92.21	1.0921e-05	87.921	0.001091	0.0010739	0.00030108	752.92	1.1738e-05	1.1797e-05	651.75	345.25	1.177e-05	1.1805e-05	351.83	156.31	166.66	89.297	1.1675e-05	86.237	329.939	167.879	367.390	140.369	288.448	334.706	138.714	145.230	388.854	388.790	142.021	146.503	149.322	152.721	449.771	148.209	-8191	255	
995.996	1	1	0	0	0.29545	0.054859	0.27089	0.10239	0.20488	0.14774	0.14252	0.22657	0.21134	0.34828	0.2228	0.063633	0.14363	0.15052	0.14674	0.30523	0.91875	-0.20208	0.53333	0.1875	0.041667	0.66875	-0.13125	-0.1	0.35208	-0.225	0.39583	0.23542	-0.51458	0.43958	-0.047917	-0.079167	340.876	166.275	355.384	359.839	245.057	436.797	147.399	481.088	395.650	167.613	309.951	359.385	188.414	174.837	140.191	412.770	0.0021891	0.0013508	0.00030377	721.71	3.8102e-06	7.088e-06	625.17	346.02	2.0078e-05	3.327e-06	339.43	155.97	169.17	92.363	1.4281e-05	88.546	0.001076	0.0010743	0.00030098	758.36	1.1743e-05	1.1868e-05	659.62	347.66	1.1803e-05	1.1813e-05	354.85	157.64	167.56	89.787	1.1813e-05	86.956	331.023	240.424	169.951	140.504	337.106	138.704	138.515	145.513	255.716	324.406	141.745	146.585	149.387	152.895	248.979	148.561	-8191	255	
996.092	1	1	0	0	0.15299	0.1442	0.26699	0.22888	0.16853	0.17954	0.086256	0.17752	0.38352	0.31124	0.30163	0.18891	0.24098	0.082456	0.23969	0.099387	0.96667	-0.20833	0.48333	0.3	-0.1625	0.58333	-0.10625	-0.30625	0.70625	-0.1	0.45625	0.35	-0.4125	0.2625	0.15	-0.21875	218.691	244.565	150.181	160.806	422.055	400.729	431.831	413.030	475.699	317.971	482.645	444.542	482.241	204.848	434.829	175.301	0.002136	0.0010645	8.2255e-05	723.85	8.2571e-06	6.5351e-06	629.41	344.99	1.1866e-05	8.6131e-06	340.86	156.49	170.99	93.111	1.9979e-06	88.74	0.0010854	0.0010735	0.00029986	764.39	1.1698e-05	1.1701e-05	663.68	349.59	1.1763e-05	1.1739e-05	356.27	158.14	168.66	90.31	1.1719e-05	87.11	330.997	350.481	273.481	139.967	287.478	195.178	138.843	145.622	335.821	361.005	142.360	146.792	149.178	152.908	319.682	148.478	-8191	255	
996.186	1	1	0	0	0.1388	0.090814	0.24125	0.27263	0.10456	0.082001	0.19072	0.31349	0.06884	0.20571	0.16612	0.26326	0.40892	0.20766	0.069414	0.037147	0.8625	-0.27708	0.21667	0.34167	-0.21875	0.55625	0.22917	-0.20208	0.5875	-0.21458	0	0.4625	-0.69167	0.25625	0.20833	-0.3625	380.645	164.481	405.679	467.232	253.808	128.432	139.699	397.404	416.873	150.923	406.141	248.385	130.157	147.993	382.823	347.597	0.0021116	0.00074966	0.0001789	726.41	5.1329e-06	8.3573e-06	636.36	348.47	1.9999e-05	1.1337e-05	344.64	156.78	171.51	93.926	2.2893e-05	89.076	0.0010754	0.0010742	0.00029778	765.98	1.1732e-05	1.1787e-05	668.15	351.91	1.177e-05	1.1766e-05	358.47	158.72	169.63	90.734	1.1691e-05	87.706	321.503	198.060	220.789	140.191	253.532	212.356	138.669	145.681	220.111	236.584	142.293	146.760	149.416	152.847	229.463	148.653	-8191	255	
996.283	1	1	0	0	0.048691	0.23887	0.16547	0.26661	0.4294	0.1532	0.1169	0.12822	0.26499	0.25856	0.18305	0.17622	0.14879	0.21812	0.10704	0.28847	0.84375	0.083333	-0.1	0.39583	-0.089583	0.37708	0.34167	-0.45208	0.46875	0.10625	-0.079167	0.59167	-0.35	0.083333	0.41458	-0.40833	316.335	183.750	391.970	468.458	251.215	179.105	352.937	236.002	294.347	321.064	129.883	181.027	451.945	130.083	478.423	423.475	0.0019259	0.0017339	0.00013024	730.05	2.848e-06	4.7124e-06	641.29	351.08	1.8603e-05	1.6569e-05	345.82	158.35	173.27	93.872	1.325e-05	90.451	0.0010803	0.0010728	0.00029769	770.46	1.1618e-05	1.1809e-05	670.78	353.93	1.1767e-05	1.1786e-05	359.74	160	170.86	91.243	1.1808e-05	88.442	329.373	175.913	211.400	140.155	183.428	224.528	138.751	145.617	182.307	247.211	142.754	146.676	149.531	152.987	331.150	148.720	-8191	255	
996.379	1	1	0	0	0.089952	0.18352	0.2654	0.23411	0.17355	0.16583	0.12709	0.21314	0.18126	0.25723	0.16866	0.27909	0.13539	0.2415	0.21805	0.15096	0.9875	0.089583	0.00625	0.525	-0.27292	0.11458	0.39375	-0.4375	0.55625	0.17917	-0.28333	0.34792	-0.21458	0.083333	0.6	-0.37083	244.452	461.857	182.445	405.139	246.839	268.201	173.522	135.800	312.163	230.933	400.241	462.397	480.055	154.583	182.773	485.040	0.0019636	0.00086043	0.00042498	741.41	1.2718e-05	7.5448e-06	642.9	354.43	1.1694e-05	8.944e-06	348.51	161.14	174.53	94.657	1.6551e-06	90.793	0.0010781	0.0010759	0.00029987	776.6	1.1814e-05	1.1893e-05	676.66	356.95	1.1974e-05	1.1976e-05	364.47	161.67	172.38	91.921	1.1893e-05	89.073	326.529	347.701	214.546	140.069	269.784	292.516	138.614	145.418	187.458	266.340	142.382	146.752	149.331	152.710	416.218	148.426	-8191	255	
996.499	1	1	0	0	0.14019	0.16559	0.19763	0.19028	0.19653	0.13898	0.055165	0.23451	0.24066	0.39725	0.16952	0.23889	0.23134	0.43036	0.1417	0.17043	0.86875	0.14167	-0.21458	0.63542	-0.25208	0.20417	0.375	-0.29583	0.58333	0.45417	-0.3	0.475	-0.13125	-0.225	0.71042	-0.38125	472.318	469.648	393.999	154.617	245.775	227.808	256.960	443.314	417.272	260.021	461.058	354.637	135.897	431.617	338.036	395.664	0.0017665	0.00043515	0.00028386	744.21	5.9871e-06	1.7338e-05	643.81	357.03	7.1588e-06	1.5793e-05	351.13	159.88	174.84	94.8	1.5025e-05	90.214	0.0010941	0.0010888	0.00030404	779.5	1.1971e-05	1.2098e-05	679.64	359.4	1.2038e-05	1.2055e-05	365.11	161.6	172.83	91.964	1.2067e-05	88.625	323.916	206.533	278.446	140.134	288.069	285.925	138.584	145.169	240.097	301.165	142.474	146.250	149.427	152.849	238.457	148.762	-8191	255	
996.595	1	1	0	0	0.25457	0.11698	0.11317	0.12504	0.18715	0.11161	0.12869	0.33174	0.2784	0.21092	0.044929	0.21749	0.18644	0.32359	0.19859	0.39966	0.65208	0.39583	-0.22083	0.5375	-0.029167	0.064583	0.5125	-0.27083	0.42708	0.50208	-0.49792	0.53542	-0.10208	-0.26667	0.76458	-0.425	325.754	414.310	250.915	351.230	306.638	432.423	150.941	472.547	328.950	436.180	146.974	212.346	434.174	440.668	438.575	437.965	0.0019796	0.00035923	9.1822e-05	745.95	1.6295e-05	9.0907e-06	645.14	355.3	1.7303e-06	9.1973e-06	347.73	158.96	174.93	95.196	2.879e-06	90.408	0.0011087	0.0011053	0.00030734	783.74	1.2057e-05	1.2191e-05	680.9	360.26	1.2161e-05	1.2205e-05	365.15	161.86	173.3	92.139	1.2067e-05	88.893	329.224	236.183	438.907	140.001	216.208	436.426	138.919	145.670	278.475	288.623	141.969	146.333	149.114	152.580	307.330	148.470	-8191	255	
996.667	1	1	0	0	0.24709	0.22613	0.27237	0.090831	0.20177	0.09647	0.21155	0.23727	0.11384	0.238	0.26394	0.35522	0.21001	0.1865	0.1683	0.30293	0.5375	0.60625	-0.18333	0.34583	0.15	0.04375	0.45625	-0.14792	0.11458	0.45417	-0.39792	0.37917	0.1625	-0.475	0.53958	-0.17708	360.186	203.556	293.908	438.613	306.574	406.347	474.632	415.141	168.267	268.266	310.767	463.311	177.348	430.482	399.289	378.629	0.0021725	0.00038212	0.00011	745.11	1.1275e-05	1.9716e-05	648.26	359.38	1.1461e-05	1.2624e-05	350.91	161.15	176.8	95.826	7.5918e-06	90.901	0.0011217	0.0011074	0.00030971	785.19	1.2173e-05	1.2091e-05	683.07	362.12	1.2147e-05	1.2106e-05	367.31	162.85	174.52	92.663	1.2053e-05	89.231	333.084	472.322	483.095	140.124	233.656	276.170	138.806	145.496	248.911	269.530	142.153	146.486	149.197	152.582	240.336	148.598	-8191	255	
996.788	1	1	0	0	0.17256	0.12226	0.20149	0.20707	0.25256	0.17846	0.18095	0.2044	0.039882	0.15306	0.099579	0.3674	0.33191	0.20987	0.16376	0.25237	0.66042	0.4875	-0.2375	0.34792	0.31458	-0.23333	0.425	-0.14167	-0.085417	0.5125	-0.25833	0.15208	0.3	-0.48125	0.50208	-0.18333	475.884	408.718	366.090	439.221	220.176	442.832	387.129	452.908	342.710	473.867	208.593	148.251	473.201	486.608	201.601	422.189	0.0023415	0.0010288	0.00035924	746.31	2.6378e-06	4.4841e-06	657.88	360.71	1.165e-05	1.3401e-05	352.47	162.21	176.12	95.378	1.164e-05	91.284	0.0011074	0.0011	0.00030802	786.81	1.207e-05	1.2074e-05	688.74	363.91	1.21e-05	1.2129e-05	369.28	163.61	174.2	92.664	1.2084e-05	89.61	332.409	258.945	298.179	140.129	172.053	337.809	138.570	145.405	290.689	314.528	142.141	146.434	149.154	152.819	222.572	148.685	-8191	255	
996.884	1	1	0	0	0.12755	0.16511	0.15541	0.21459	0.32809	0.19059	0.14583	0.20306	0.16501	0.14477	0.16773	0.27389	0.16899	0.35086	0.24164	0.053472	0.33958	0.50417	-0.15208	0.17292	0.62292	-0.20208	0.51042	0.072917	-0.077083	0.70208	-0.14375	0.17708	0.30833	-0.51458	0.62917	-0.091667	410.593	267.955	416.271	142.669	166.596	291.072	395.267	450.516	430.038	130.480	144.115	415.311	454.886	470.680	430.815	399.499	0.0021462	0.0012642	0.00012263	747.98	5.5674e-06	1.0277e-05	655.59	360.84	3.8288e-06	7.7075e-06	352.71	160.05	175.54	94.958	1.3784e-05	90.823	0.001113	0.0011035	0.00030906	791.11	1.2032e-05	1.2084e-05	692.28	363.77	1.2109e-05	1.2141e-05	369.12	162.39	173.73	92.243	1.2239e-05	89.076	323.835	153.811	264.569	140.427	234.341	287.983	138.390	145.412	260.499	325.203	142.258	146.237	149.098	152.572	255.749	148.210	-8191	255	
996.980	1	1	0	0	0.1894	0.12272	0.37936	0.1088	0.24768	0.10625	0.18222	0.18024	0.27147	0.18061	0.05529	0.29072	0.16025	0.36678	0.081889	0.17917	0.36458	0.79792	-0.20208	0.12292	0.55833	-0.24583	0.36667	0.25208	-0.029167	0.56667	-0.17917	-0.039583	0.30625	-0.42083	0.29583	0.2125	319.297	461.910	337.544	391.808	211.342	151.756	480.189	316.098	142.878	140.899	252.472	392.984	433.322	136.628	261.658	448.117	0.0020211	0.00044416	0.0001146	760.97	9.4389e-06	3.2914e-06	663.09	361.74	1.125e-05	1.395e-05	355.14	161.11	176.28	95.497	2.6638e-05	90.483	0.0011147	0.0011152	0.0003105	798.3	1.2113e-05	1.225e-05	695.54	364.62	1.2216e-05	1.2289e-05	369.76	162.91	174.76	92.587	1.2205e-05	89.04	343.745	221.711	485.022	139.841	304.860	309.777	138.494	145.241	209.982	246.817	142.511	146.062	149.308	152.669	296.710	148.463	-8191	255	
997.076	1	1	0	0	0.29484	0.13658	0.041259	0.2267	0.12647	0.3122	0.19441	0.11139	0.097343	0.1598	0.38216	0.12553	0.23643	0.17354	0.26845	0.10315	0.15208	0.69583	0.12708	-0.05625	0.7125	-0.33125	0.28958	0.32083	-0.25625	0.7375	0.045833	-0.28125	0.57292	-0.31875	0.14792	0.39792	274.455	240.819	446.587	485.109	394.089	214.249	453.180	440.347	278.089	436.921	421.084	160.904	133.860	150.757	261.421	321.385	0.0023523	0.00024049	0.00044645	758.18	4.2718e-06	3.5041e-06	662.19	360.53	8.4557e-06	4.9791e-06	354.71	161.08	176.38	94.784	9.2234e-06	90.629	0.0011204	0.0011199	0.00031007	798.34	1.2246e-05	1.2176e-05	695.44	364.69	1.2145e-05	1.2135e-05	369.89	162.89	174.69	92.332	1.2095e-05	89.151	334.337	332.763	239.999	139.950	256.220	307.342	138.420	145.170	209.599	411.897	142.225	146.375	149.191	152.585	255.822	148.485	-8191	255	
997.172	1	1	0	0	0.33412	0.062951	0.1085	0.17647	0.16727	0.28436	0.22827	0.35283	0.22575	0.15784	0.10937	0.19894	0.32237	0.48192	0.056696	0.17205	0.022917	0.56042	-0.14583	-0.31042	0.69583	-0.13125	0.020833	0.56875	-0.3375	0.46042	0.20625	-0.31458	0.30625	-0.32708	0.24167	0.43958	250.782	459.828	251.409	133.726	248.204	318.235	446.182	167.406	335.717	162.786	293.079	432.366	128.013	467.770	185.478	141.560	0.0020223	0.0015218	0.00019932	759.38	6.0712e-07	1.2609e-05	667.74	364.07	1.0797e-05	9.0882e-06	355.76	162.4	177.03	95.079	1.3449e-05	90.996	0.0011093	0.0011105	0.00030739	800.22	1.2063e-05	1.2179e-05	698.28	366.11	1.2139e-05	1.2187e-05	371.71	164.11	175.16	92.411	1.2182e-05	89.329	333.764	154.482	200.893	139.757	315.668	364.899	138.210	145.233	245.134	166.327	142.419	146.460	148.943	152.404	232.154	148.358	-8191	255	
997.291	1	1	0	0	0.34058	0.12029	0.22922	0.085115	0.19555	0.17125	0.079526	0.16617	0.1598	0.11395	0.11486	0.19808	0.24391	0.13585	0.11123	0.12534	-0.08125	0.64583	0.47917	-0.26667	0.67917	0.05625	-0.19375	0.66667	-0.01875	0.44792	0.29375	-0.29792	0.59375	0.025	-0.13333	0.71667	184.712	247.550	380.233	484.063	444.022	431.151	397.222	161.663	316.441	421.771	455.003	421.555	152.294	133.956	141.449	404.713	0.0020071	0.00059442	0.00043107	763.65	1.9545e-06	1.4181e-05	665.48	364.48	1.0338e-05	1.109e-05	356.74	162.84	177.19	94.785	1.1076e-05	90.444	0.0011229	0.0011175	0.00030915	801.53	1.2282e-05	1.222e-05	700.15	366.72	1.2281e-05	1.2296e-05	371.55	164.1	175.08	92.308	1.2173e-05	89.132	325.722	405.408	227.427	139.856	388.074	304.012	138.367	145.369	238.633	294.118	142.485	146.217	149.079	152.797	311.121	148.457	-8191	255	
997.363	1	1	0	0	0.080713	0.12014	0.14802	0.22461	0.22693	0.13545	0.31247	0.13309	0.12025	0.053078	0.18781	0.17186	0.079736	0.15291	0.074325	0.41865	0.0875	0.26875	0.49792	-0.375	0.50625	0.14375	-0.2375	0.51875	-0.16875	0.033333	0.35625	-0.40208	0.275	0.12083	-0.04375	0.50417	431.384	347.066	209.496	366.211	318.456	448.914	127.993	323.121	319.066	254.414	437.500	248.184	227.370	480.833	290.919	131.956	0.0019598	0.00039086	9.4768e-05	763.83	1.0544e-05	6.6139e-06	663.28	365.66	2.4088e-05	1.7714e-05	356.5	162.28	177.4	94.771	3.2832e-06	90.322	0.0011196	0.0011248	0.00031126	802.6	1.2219e-05	1.2303e-05	699.46	367.91	1.2261e-05	1.2334e-05	371.75	164.18	175.47	92.321	1.2231e-05	89.088	321.087	274.037	472.225	140.331	282.978	269.859	138.803	145.280	218.198	283.319	142.271	146.503	149.212	152.738	265.399	148.259	-8191	255	
997.461	1	1	0	0	0.20043	0.21312	0.13202	0.17104	0.0071902	0.13933	0.061773	0.25015	0.19139	0.18037	0.17855	0.35052	0.20401	0.074774	0.22531	0.24804	0.33542	0.2	0.81458	-0.39167	0.40833	0.13333	-0.37708	0.44792	-0.089583	-0.1	0.43542	-0.2125	0.17917	0.28333	-0.26458	0.25208	220.987	457.399	165.085	444.393	278.426	265.256	394.753	411.216	459.360	185.714	183.431	179.339	216.009	443.229	187.908	455.492	0.0022066	0.0011761	0.00017502	765.54	2.2068e-06	9.8381e-06	671.05	365.93	1.4711e-05	8.4949e-06	357.3	163.03	178.22	94.88	8.6509e-06	90.9	0.0011336	0.0011298	0.00031321	805.16	1.2339e-05	1.2386e-05	701.94	369.2	1.2421e-05	1.2409e-05	373.72	165	176.4	92.644	1.2417e-05	89.716	337.690	208.238	178.276	140.289	458.644	249.392	138.398	145.335	253.664	434.864	142.326	146.455	149.027	152.966	210.872	148.502	-8191	255	
997.580	1	1	0	0	0.065557	0.12899	0.10852	0.082034	0.14715	0.19639	0.051346	0.14351	0.13477	0.11952	0.18282	0.10047	0.26703	0.28268	0.044629	0.27789	0.13542	0.097917	0.56875	-0.19583	0.34375	0.54167	-0.24375	0.28958	0.19375	-0.14792	0.54167	-0.13333	-0.15	0.16667	-0.43542	0.325	203.254	140.489	324.149	482.902	344.581	192.790	275.400	457.674	424.942	382.995	437.225	360.238	147.060	471.540	441.386	370.216	0.0017525	0.00046854	0.00024765	769.83	1.0348e-05	9.3947e-06	668.89	366.54	1.2801e-05	2.7333e-06	355.26	164.82	178.7	96.009	1.0743e-05	91.251	0.0011502	0.0011414	0.00031653	810.05	1.2424e-05	1.2566e-05	706.75	370.55	1.2478e-05	1.2473e-05	375.33	166.1	176.77	93.029	1.2506e-05	90.09	339.789	234.187	212.537	140.204	281.653	203.221	138.824	145.405	292.636	377.423	142.276	146.372	149.237	152.927	281.352	148.633	-8191	255	
997.676	1	1	0	0	0.078295	0.24661	0.088185	0.28461	0.25514	0.17377	0.042397	0.35689	0.063976	0.14028	0.21211	0.24183	0.11704	0.38675	0.12584	0.35612	0.56667	-0.15625	0.55417	-0.11042	0.18125	0.47292	-0.38958	0.51458	0.19375	-0.16667	0.575	-0.33958	-0.12917	0.29792	-0.29792	0.19375	221.840	430.934	345.780	373.996	137.143	281.005	479.255	142.288	480.186	418.056	300.036	271.406	416.159	443.206	240.980	424.328	0.0024223	0.00081633	0.00014009	769.6	1.6912e-06	3.1284e-06	674.5	367.52	6.8994e-06	8.4478e-06	357.58	163.96	178.89	95.622	1.4824e-05	90.883	0.0011494	0.0011397	0.00031952	814.33	1.2508e-05	1.2531e-05	708.83	371.12	1.2539e-05	1.2497e-05	375.54	165.88	177.37	92.955	1.2488e-05	89.797	333.445	250.177	280.962	140.305	162.933	226.095	138.678	145.352	221.224	283.370	142.308	146.520	149.274	152.730	298.327	148.566	-8191	255	
997.772	1	1	0	0	0.13607	0.040904	0.10083	0.22473	0.17579	0.15052	0.21403	0.28526	0.21686	0.11741	0.24709	0.28951	0.18562	0.18128	0.042013	0.068078	0.63542	-0.010417	0.46458	-0.0875	0.027083	0.5	-0.31667	0.425	0.3125	-0.2125	0.46042	-0.14167	-0.27292	0.21875	-0.19375	0.0083333	320.406	409.693	284.502	466.527	138.472	147.683	459.815	139.005	375.574	321.348	358.045	362.410	371.651	151.277	200.187	437.601	0.0021907	0.00058106	0.00014069	775.09	1.157e-05	7.1184e-06	673.01	368.75	6.9172e-06	5.6725e-06	357.84	162.96	178.13	95.087	1.1568e-05	90.301	0.0011518	0.0011493	0.00031756	814.56	1.2573e-05	1.2617e-05	708.92	371.75	1.2586e-05	1.2585e-05	374.93	165.02	176.8	92.767	1.2596e-05	89.176	328.220	258.403	370.627	140.441	265.372	226.826	138.791	145.172	432.322	393.698	142.050	146.456	149.160	152.907	307.229	148.583	-8191	255	
997.893	1	1	0	0	0.17902	0.10618	0.020524	0.31877	0.18636	0.21695	0.12045	0.22582	0.2958	0.12745	0.024663	0.16439	0.10512	0.27484	0.33807	0.039288	0.85208	-0.22917	0.51875	-0.01875	-0.19167	0.50208	-0.48333	-0.01875	0.47917	-0.091667	0.42083	0.18125	-0.27708	0.50625	-0.11458	0.035417	172.326	273.926	323.510	454.211	318.969	306.754	407.755	452.062	293.104	206.764	179.372	429.235	189.871	430.080	372.517	273.485	0.0022811	0.001045	0.00020804	770.88	4.7475e-06	1.026e-05	670.34	368.05	4.4268e-06	5.7685e-06	360.28	162.92	177.89	94.695	1.2211e-05	90.376	0.0011536	0.0011473	0.00032002	813.39	1.2436e-05	1.256e-05	706.62	370.55	1.2569e-05	1.2529e-05	374.96	165.1	176.01	92.36	1.2459e-05	89.331	329.489	230.909	252.205	140.123	235.695	243.898	138.627	145.342	184.944	205.059	142.104	146.743	149.192	152.716	233.900	148.467	-8191	255	
997.964	1	1	0	0	0.084635	0.15512	0.12311	0.09001	0.081095	0.19782	0.21676	0.17396	0.27397	0.14109	0.11202	0.06012	0.086907	0.1992	0.30849	0.26535	1.0208	-0.22292	0.70833	0.175	-0.32917	0.47083	-0.2125	-0.058333	0.56042	-0.15833	0.36667	0.19375	-0.40625	0.35	-0.0020833	-0.33958	293.965	216.000	347.406	161.597	145.746	261.869	135.465	409.760	183.424	411.805	146.131	128.096	387.253	449.203	404.791	444.251	0.0023617	0.00087639	0.00016631	769.16	5.9889e-06	6.5972e-06	672.5	368.18	1.1273e-05	9.2476e-06	359.03	163.92	178.26	95.013	1.1953e-05	91.136	0.0011515	0.0011464	0.00031779	810.92	1.2489e-05	1.254e-05	708.5	371.27	1.2557e-05	1.2576e-05	376.42	165.73	176.53	92.599	1.2622e-05	89.705	326.533	179.741	164.211	140.431	170.684	325.084	138.237	145.234	317.563	321.207	142.362	146.452	149.213	153.090	363.313	148.574	-8191	255	
998.060	1	1	0	0	0.19057	0.08574	0.11583	0.18268	0.058204	0.33161	0.096692	0.32833	0.076122	0.18063	0.1203	0.1343	0.035969	0.1581	0.20384	0.22944	0.95625	-0.070833	0.23542	0.21667	-0.2125	0.48542	-0.079167	-0.20208	0.54583	-0.23333	0.125	0.24375	-0.4625	0.30208	0.09375	-0.14583	427.392	291.543	418.948	436.910	313.947	146.187	307.680	417.649	387.519	386.370	177.827	182.538	381.051	445.437	340.077	446.530	0.002201	0.00062391	0.00055788	776.79	8.6929e-06	1.1711e-05	676.01	368.92	1.9352e-05	7.8329e-06	360.76	164.6	178.6	95.338	1.5464e-05	90.589	0.0011536	0.0011474	0.00032132	815.38	1.2553e-05	1.266e-05	713.07	372.06	1.264e-05	1.2581e-05	376.84	165.95	177.08	92.651	1.2681e-05	89.38	337.011	376.589	189.005	140.453	273.272	289.801	138.989	144.941	235.178	347.394	142.709	146.549	149.561	152.588	202.486	148.626	-8191	255	
#DATA ENDS
